%time,field.header.seq,field.header.stamp,field.header.frame_id,field.orientation.x,field.orientation.y,field.orientation.z,field.orientation.w,field.orientation_covariance0,field.orientation_covariance1,field.orientation_covariance2,field.orientation_covariance3,field.orientation_covariance4,field.orientation_covariance5,field.orientation_covariance6,field.orientation_covariance7,field.orientation_covariance8,field.angular_velocity.x,field.angular_velocity.y,field.angular_velocity.z,field.angular_velocity_covariance0,field.angular_velocity_covariance1,field.angular_velocity_covariance2,field.angular_velocity_covariance3,field.angular_velocity_covariance4,field.angular_velocity_covariance5,field.angular_velocity_covariance6,field.angular_velocity_covariance7,field.angular_velocity_covariance8,field.linear_acceleration.x,field.linear_acceleration.y,field.linear_acceleration.z,field.linear_acceleration_covariance0,field.linear_acceleration_covariance1,field.linear_acceleration_covariance2,field.linear_acceleration_covariance3,field.linear_acceleration_covariance4,field.linear_acceleration_covariance5,field.linear_acceleration_covariance6,field.linear_acceleration_covariance7,field.linear_acceleration_covariance8
1532133199331316912,896,1532133199330863408,base_link,0.00598496221194,-0.309729626821,-0.950032571288,-0.0383386487627,1.0,0.0,0.0,0.0,1.0,0.0,0.0,0.0,1.0,0.190729230642,-0.257472842932,-0.295109540224,1.21846967915e-07,0.0,0.0,0.0,1.21846967915e-07,0.0,0.0,0.0,1.21846967915e-07,-1.4513842,1.24544455,11.36590735,9e-08,0.0,0.0,0.0,9e-08,0.0,0.0,0.0,9e-08
1532133199745525296,897,1532133199744084240,base_link,-0.0121354392466,-0.307518199224,-0.943862720037,-0.120035219764,1.0,0.0,0.0,0.0,1.0,0.0,0.0,0.0,1.0,-0.025430649519,-0.176751643419,-0.433860391378,1.21846967915e-07,0.0,0.0,0.0,1.21846967915e-07,0.0,0.0,0.0,1.21846967915e-07,-1.50041745,1.10815145,11.5130071,9e-08,0.0,0.0,0.0,9e-08,0.0,0.0,0.0,9e-08
1532133200144741264,898,1532133200144363728,base_link,-0.0375152948285,-0.313279614597,-0.92857144917,-0.195457283104,1.0,0.0,0.0,0.0,1.0,0.0,0.0,0.0,1.0,0.164964646101,-0.235052704811,-0.168130770326,1.21846967915e-07,0.0,0.0,0.0,1.21846967915e-07,0.0,0.0,0.0,1.21846967915e-07,-0.5295591,-0.0588399,13.5724036,9e-08,0.0,0.0,0.0,9e-08,0.0,0.0,0.0,9e-08
1532133200522551280,899,1532133200522170864,base_link,-0.0802712119257,-0.284785428941,-0.928107367388,-0.225987846131,1.0,0.0,0.0,0.0,1.0,0.0,0.0,0.0,1.0,-0.54113137722,-0.312828600407,-0.0618214309216,1.21846967915e-07,0.0,0.0,0.0,1.21846967915e-07,0.0,0.0,0.0,1.21846967915e-07,-1.1179581,0.8433719,13.0428445,9e-08,0.0,0.0,0.0,9e-08,0.0,0.0,0.0,9e-08
1532133200868514224,900,1532133200868054640,base_link,-0.0706323046279,-0.172708794423,-0.941680283371,-0.280037486387,1.0,0.0,0.0,0.0,1.0,0.0,0.0,0.0,1.0,-0.709037601948,-0.0697918459773,-0.352801501751,1.21846967915e-07,0.0,0.0,0.0,1.21846967915e-07,0.0,0.0,0.0,1.21846967915e-07,-0.97085835,0.4118793,12.48386545,9e-08,0.0,0.0,0.0,9e-08,0.0,0.0,0.0,9e-08
1532133201358891920,901,1532133201358590128,base_link,-0.051124115696,-0.0697457239344,-0.931915747791,-0.352214278254,1.0,0.0,0.0,0.0,1.0,0.0,0.0,0.0,1.0,-0.344087034464,-0.127253368497,-0.0665211752057,1.21846967915e-07,0.0,0.0,0.0,1.21846967915e-07,0.0,0.0,0.0,1.21846967915e-07,-1.01008495,0.1372931,11.5522337,9e-08,0.0,0.0,0.0,9e-08,0.0,0.0,0.0,9e-08
1532133201859520432,902,1532133201857124464,base_link,-0.029072270068,0.0428103144749,-0.935490263358,-0.349542625798,1.0,0.0,0.0,0.0,1.0,0.0,0.0,0.0,1.0,-0.53181707859,-0.0109945870936,0.00863778218627,1.21846967915e-07,0.0,0.0,0.0,1.21846967915e-07,0.0,0.0,0.0,1.21846967915e-07,-0.53936575,0.4707192,10.6696352,9e-08,0.0,0.0,0.0,9e-08,0.0,0.0,0.0,9e-08
1532133202205702064,903,1532133202205463856,base_link,-0.0193957278609,0.0731930649252,-0.931243504315,-0.35644370756,1.0,0.0,0.0,0.0,1.0,0.0,0.0,0.0,1.0,-0.157064139843,-0.0401755087078,-0.063073374331,1.21846967915e-07,0.0,0.0,0.0,1.21846967915e-07,0.0,0.0,0.0,1.21846967915e-07,-0.46091255,0.79433865,12.22889255,9e-08,0.0,0.0,0.0,9e-08,0.0,0.0,0.0,9e-08
1532133202637282672,904,1532133202636938928,base_link,-0.013358899221,0.0826647551029,-0.933299151298,-0.349200189379,1.0,0.0,0.0,0.0,1.0,0.0,0.0,0.0,1.0,0.0158969629556,0.0245465841144,0.177560478449,1.21846967915e-07,0.0,0.0,0.0,1.21846967915e-07,0.0,0.0,0.0,1.21846967915e-07,-0.3334261,-0.67665885,8.1002929,9e-08,0.0,0.0,0.0,9e-08,0.0,0.0,0.0,9e-08
1532133203043458096,905,1532133203042918800,base_link,-0.00354932704667,0.0828049239072,-0.949217031365,-0.303509100723,1.0,0.0,0.0,0.0,1.0,0.0,0.0,0.0,1.0,-0.00930321682245,0.0499685667455,0.231389224529,1.21846967915e-07,0.0,0.0,0.0,1.21846967915e-07,0.0,0.0,0.0,1.21846967915e-07,0.04903325,0.38245935,8.7279185,9e-08,0.0,0.0,0.0,9e-08,0.0,0.0,0.0,9e-08
1532133203460342064,906,1532133203454092592,base_link,0.00848706612438,0.070080790281,-0.958724754991,-0.275433289038,1.0,0.0,0.0,0.0,1.0,0.0,0.0,0.0,1.0,0.205787450075,0.0558379478753,0.0604955852032,1.21846967915e-07,0.0,0.0,0.0,1.21846967915e-07,0.0,0.0,0.0,1.21846967915e-07,0.46091255,0.4511059,8.50236555,9e-08,0.0,0.0,0.0,9e-08,0.0,0.0,0.0,9e-08
1532133203765706736,907,1532133203765443984,base_link,0.0118335036691,0.037413982018,-0.961494361689,-0.272008739899,1.0,0.0,0.0,0.0,1.0,0.0,0.0,0.0,1.0,0.0555228218436,0.0570347495377,0.0236717164516,1.21846967915e-07,0.0,0.0,0.0,1.21846967915e-07,0.0,0.0,0.0,1.21846967915e-07,0.392266,0.38245935,7.6295737,9e-08,0.0,0.0,0.0,9e-08,0.0,0.0,0.0,9e-08
1532133204229478864,908,1532133204229130192,base_link,0.0140774355542,0.0108908410225,-0.962380360982,-0.271122216326,1.0,0.0,0.0,0.0,1.0,0.0,0.0,0.0,1.0,0.139568775892,0.0302944928408,0.0232803076506,1.21846967915e-07,0.0,0.0,0.0,1.21846967915e-07,0.0,0.0,0.0,1.21846967915e-07,0.5295591,0.28439285,8.8455983,9e-08,0.0,0.0,0.0,9e-08,0.0,0.0,0.0,9e-08
1532133204576899504,909,1532133204576568944,base_link,0.00496530058587,-0.0213358418484,-0.961132280191,-0.27521785483,1.0,0.0,0.0,0.0,1.0,0.0,0.0,0.0,1.0,0.291565656662,-0.00662708096206,-0.0531853549182,1.21846967915e-07,0.0,0.0,0.0,1.21846967915e-07,0.0,0.0,0.0,1.21846967915e-07,0.3334261,0.30400615,9.30651085,9e-08,0.0,0.0,0.0,9e-08,0.0,0.0,0.0,9e-08
1532133204935331792,910,1532133204935092272,base_link,-0.0146931685345,-0.0547279337299,-0.957801402896,-0.281789702933,1.0,0.0,0.0,0.0,1.0,0.0,0.0,0.0,1.0,0.211761817336,-0.0984939038754,-0.0260850470513,1.21846967915e-07,0.0,0.0,0.0,1.21846967915e-07,0.0,0.0,0.0,1.21846967915e-07,0.8237586,0.24516625,12.0229529,9e-08,0.0,0.0,0.0,9e-08,0.0,0.0,0.0,9e-08
1532133205346309328,911,1532133205345681840,base_link,-0.024516424445,-0.0454500715859,-0.960408280935,-0.273768460265,1.0,0.0,0.0,0.0,1.0,0.0,0.0,0.0,1.0,-0.155685976148,-0.0589172765613,0.0425482690334,1.21846967915e-07,0.0,0.0,0.0,1.21846967915e-07,0.0,0.0,0.0,1.21846967915e-07,0.5099458,0.4707192,9.79684335,9e-08,0.0,0.0,0.0,9e-08,0.0,0.0,0.0,9e-08
1532133205742132592,912,1532133205741767152,base_link,-0.0293555573836,-0.0272253908368,-0.960452827743,-0.275549260613,1.0,0.0,0.0,0.0,1.0,0.0,0.0,0.0,1.0,0.0314002595842,-0.066432222724,-0.0229440387338,1.21846967915e-07,0.0,0.0,0.0,1.21846967915e-07,0.0,0.0,0.0,1.21846967915e-07,0.9414384,0.2353596,11.2580342,9e-08,0.0,0.0,0.0,9e-08,0.0,0.0,0.0,9e-08
1532133206162988464,913,1532133206162732752,base_link,-0.0444456377186,-0.0359503731265,-0.96026726514,-0.2731646673,1.0,0.0,0.0,0.0,1.0,0.0,0.0,0.0,1.0,-0.0273232646286,-0.0586295835674,0.0184804592282,1.21846967915e-07,0.0,0.0,0.0,1.21846967915e-07,0.0,0.0,0.0,1.21846967915e-07,0.85317855,0.59820565,11.5522337,9e-08,0.0,0.0,0.0,9e-08,0.0,0.0,0.0,9e-08
1532133206558688048,914,1532133206558411696,base_link,-0.0421950794012,-0.0138555918997,-0.959202890119,-0.279208548282,1.0,0.0,0.0,0.0,1.0,0.0,0.0,0.0,1.0,-0.132037207484,0.0277935881168,-0.0618561767042,1.21846967915e-07,0.0,0.0,0.0,1.21846967915e-07,0.0,0.0,0.0,1.21846967915e-07,0.65704555,0.5099458,9.50264385,9e-08,0.0,0.0,0.0,9e-08,0.0,0.0,0.0,9e-08
1532133207008509712,915,1532133206999129744,base_link,-0.0325629910472,0.0256525339356,-0.956375012468,-0.289185813351,1.0,0.0,0.0,0.0,1.0,0.0,0.0,0.0,1.0,-0.199447631836,-0.0149496300146,-0.0441434979439,1.21846967915e-07,0.0,0.0,0.0,1.21846967915e-07,0.0,0.0,0.0,1.21846967915e-07,0.7256921,0.95124505,12.6898051,9e-08,0.0,0.0,0.0,9e-08,0.0,0.0,0.0,9e-08
1532133207432781552,916,1532133207432311344,base_link,-0.0373580155233,0.0132645458217,-0.953639748717,-0.298328108243,1.0,0.0,0.0,0.0,1.0,0.0,0.0,0.0,1.0,0.156414791942,-0.011477057822,-0.00737083237618,1.21846967915e-07,0.0,0.0,0.0,1.21846967915e-07,0.0,0.0,0.0,1.21846967915e-07,0.1372931,0.22555295,9.79684335,9e-08,0.0,0.0,0.0,9e-08,0.0,0.0,0.0,9e-08
1532133207754575600,917,1532133207754029328,base_link,-0.0499632965085,-0.0140962271173,-0.954463616921,-0.293775712673,1.0,0.0,0.0,0.0,1.0,0.0,0.0,0.0,1.0,0.135969370604,-0.0115233557299,0.0013516289182,1.21846967915e-07,0.0,0.0,0.0,1.21846967915e-07,0.0,0.0,0.0,1.21846967915e-07,0.22555295,0.38245935,9.0417313,9e-08,0.0,0.0,0.0,9e-08,0.0,0.0,0.0,9e-08
1532133208191676880,918,1532133208191304560,base_link,-0.053402298841,-0.0374438927455,-0.95125424673,-0.301432426015,1.0,0.0,0.0,0.0,1.0,0.0,0.0,0.0,1.0,0.00563288060948,0.0396609790623,-0.0762281566858,1.21846967915e-07,0.0,0.0,0.0,1.21846967915e-07,0.0,0.0,0.0,1.21846967915e-07,0.42168595,0.79433865,10.42446895,9e-08,0.0,0.0,0.0,9e-08,0.0,0.0,0.0,9e-08
1532133208526662832,919,1532133208526286352,base_link,-0.055329447842,-0.0702407240644,-0.944060275524,-0.317419421368,1.0,0.0,0.0,0.0,1.0,0.0,0.0,0.0,1.0,0.373573869467,0.0161004774272,-0.118831932545,1.21846967915e-07,0.0,0.0,0.0,1.21846967915e-07,0.0,0.0,0.0,1.21846967915e-07,0.3138128,0.4707192,8.6494653,9e-08,0.0,0.0,0.0,9e-08,0.0,0.0,0.0,9e-08
1532133208988417200,920,1532133208988137968,base_link,-0.0535321658853,-0.105941474915,-0.93357178667,-0.338163318888,1.0,0.0,0.0,0.0,1.0,0.0,0.0,0.0,1.0,-0.052634652704,0.0843745023012,-0.211592137814,1.21846967915e-07,0.0,0.0,0.0,1.21846967915e-07,0.0,0.0,0.0,1.21846967915e-07,0.24516625,0.7060788,7.85512665,9e-08,0.0,0.0,0.0,9e-08,0.0,0.0,0.0,9e-08
1532133209406969232,921,1532133209406616624,base_link,-0.0455551355515,-0.123192025267,-0.916445128471,-0.377990450988,1.0,0.0,0.0,0.0,1.0,0.0,0.0,0.0,1.0,0.307818204165,-0.00794359017164,-0.188003435731,1.21846967915e-07,0.0,0.0,0.0,1.21846967915e-07,0.0,0.0,0.0,1.21846967915e-07,0.0784532,0.1569064,7.9826131,9e-08,0.0,0.0,0.0,9e-08,0.0,0.0,0.0,9e-08
1532133209737775536,922,1532133209735114608,base_link,-0.0798115847334,-0.179739096981,-0.897731723558,-0.394210249076,1.0,0.0,0.0,0.0,1.0,0.0,0.0,0.0,1.0,0.211792767048,-0.084585160017,-0.0693878233433,1.21846967915e-07,0.0,0.0,0.0,1.21846967915e-07,0.0,0.0,0.0,1.21846967915e-07,0.4118793,0.69627215,10.09104285,9e-08,0.0,0.0,0.0,9e-08,0.0,0.0,0.0,9e-08
1532133210198474320,923,1532133210198196240,base_link,-0.114995994462,-0.218844484339,-0.86780510992,-0.4310421141,1.0,0.0,0.0,0.0,1.0,0.0,0.0,0.0,1.0,0.290428817272,-0.101435340941,-0.300080895424,1.21846967915e-07,0.0,0.0,0.0,1.21846967915e-07,0.0,0.0,0.0,1.21846967915e-07,0.55897905,1.0002783,10.13026945,9e-08,0.0,0.0,0.0,9e-08,0.0,0.0,0.0,9e-08
1532133210555000656,924,1532133210552233456,base_link,-0.151524591009,-0.265055393365,-0.825193333429,-0.475228260136,1.0,0.0,0.0,0.0,1.0,0.0,0.0,0.0,1.0,0.202895760536,-0.23040035367,-0.290725588799,1.21846967915e-07,0.0,0.0,0.0,1.21846967915e-07,0.0,0.0,0.0,1.21846967915e-07,0.50013915,0.57859235,10.28717585,9e-08,0.0,0.0,0.0,9e-08,0.0,0.0,0.0,9e-08
1532133211054134224,925,1532133211053542000,base_link,-0.216575547561,-0.282285307534,-0.753070674066,-0.553438882995,1.0,0.0,0.0,0.0,1.0,0.0,0.0,0.0,1.0,0.18541418016,-0.382453560829,-0.293351888657,1.21846967915e-07,0.0,0.0,0.0,1.21846967915e-07,0.0,0.0,0.0,1.21846967915e-07,0.9414384,0.83356525,13.4154972,9e-08,0.0,0.0,0.0,9e-08,0.0,0.0,0.0,9e-08
1532133211368017552,926,1532133211366859376,base_link,-0.261944609103,-0.272541736979,-0.711293081747,-0.59259444414,1.0,0.0,0.0,0.0,1.0,0.0,0.0,0.0,1.0,-0.0057928301394,-0.398659139872,-0.250869691372,1.21846967915e-07,0.0,0.0,0.0,1.21846967915e-07,0.0,0.0,0.0,1.21846967915e-07,0.75511205,1.1571847,13.60182355,9e-08,0.0,0.0,0.0,9e-08,0.0,0.0,0.0,9e-08
1532133211780604752,927,1532133211780072208,base_link,-0.284295767692,-0.238908004511,-0.645331550753,-0.667567278599,1.0,0.0,0.0,0.0,1.0,0.0,0.0,0.0,1.0,-0.116698093712,-0.325242936611,-0.460931956768,1.21846967915e-07,0.0,0.0,0.0,1.21846967915e-07,0.0,0.0,0.0,1.21846967915e-07,0.77472535,1.0198916,12.95458465,9e-08,0.0,0.0,0.0,9e-08,0.0,0.0,0.0,9e-08
1532133212084559888,928,1532133212084212400,base_link,-0.323324104217,-0.233360330213,-0.575442406105,-0.714052180986,1.0,0.0,0.0,0.0,1.0,0.0,0.0,0.0,1.0,0.0587584674358,-0.447668671608,-0.346456468105,1.21846967915e-07,0.0,0.0,0.0,1.21846967915e-07,0.0,0.0,0.0,1.21846967915e-07,0.69627215,0.4511059,12.22889255,9e-08,0.0,0.0,0.0,9e-08,0.0,0.0,0.0,9e-08
1532133212396576464,929,1532133212395652016,base_link,-0.371058799501,-0.209108692601,-0.511007567878,-0.746632565298,1.0,0.0,0.0,0.0,1.0,0.0,0.0,0.0,1.0,0.284143924713,-0.541623771191,-0.321237236261,1.21846967915e-07,0.0,0.0,0.0,1.21846967915e-07,0.0,0.0,0.0,1.21846967915e-07,0.69627215,1.16699135,12.52309205,9e-08,0.0,0.0,0.0,9e-08,0.0,0.0,0.0,9e-08
1532133212682980016,930,1532133212682637328,base_link,-0.404411879952,-0.176775921545,-0.437163540759,-0.783638528626,1.0,0.0,0.0,0.0,1.0,0.0,0.0,0.0,1.0,-0.207426443696,-0.457854241133,-0.400555551052,1.21846967915e-07,0.0,0.0,0.0,1.21846967915e-07,0.0,0.0,0.0,1.21846967915e-07,1.99074995,1.42196425,14.709975,9e-08,0.0,0.0,0.0,9e-08,0.0,0.0,0.0,9e-08
1532133213090462160,931,1532133213090252656,base_link,-0.399719040998,-0.11916702716,-0.32931446767,-0.847098512149,1.0,0.0,0.0,0.0,1.0,0.0,0.0,0.0,1.0,-0.215202316642,-0.496254324913,-0.44254270196,1.21846967915e-07,0.0,0.0,0.0,1.21846967915e-07,0.0,0.0,0.0,1.21846967915e-07,1.1964113,1.2944778,13.09187775,9e-08,0.0,0.0,0.0,9e-08,0.0,0.0,0.0,9e-08
1532133213420262864,932,1532133213419189200,base_link,-0.380506219215,-0.0626210239982,-0.234833098019,-0.892270721568,1.0,0.0,0.0,0.0,1.0,0.0,0.0,0.0,1.0,-0.183301836252,-0.460186064243,-0.447995364666,1.21846967915e-07,0.0,0.0,0.0,1.21846967915e-07,0.0,0.0,0.0,1.21846967915e-07,1.40235095,1.06892485,13.140911,9e-08,0.0,0.0,0.0,9e-08,0.0,0.0,0.0,9e-08
1532133213723486448,933,1532133213722009392,base_link,-0.419819768411,-0.0217456403874,-0.153173454349,-0.89432453956,1.0,0.0,0.0,0.0,1.0,0.0,0.0,0.0,1.0,0.513933002949,-0.517929494381,-0.281967997551,1.21846967915e-07,0.0,0.0,0.0,1.21846967915e-07,0.0,0.0,0.0,1.21846967915e-07,1.44157755,0.63743225,12.6113519,9e-08,0.0,0.0,0.0,9e-08,0.0,0.0,0.0,9e-08
1532133214086378960,934,1532133214085575056,base_link,-0.416817819104,0.0349236131769,-0.0610134317984,-0.90626740428,1.0,0.0,0.0,0.0,1.0,0.0,0.0,0.0,1.0,-0.439510583878,-0.414570629597,-0.388489067554,1.21846967915e-07,0.0,0.0,0.0,1.21846967915e-07,0.0,0.0,0.0,1.21846967915e-07,2.30456275,1.20621795,11.91507975,9e-08,0.0,0.0,0.0,9e-08,0.0,0.0,0.0,9e-08
1532133214485538864,935,1532133214485328592,base_link,-0.311487489693,0.0937691359228,0.0526696364716,-0.944144481691,1.0,0.0,0.0,0.0,1.0,0.0,0.0,0.0,1.0,-0.681346416473,-0.523195922375,-0.304177075624,1.21846967915e-07,0.0,0.0,0.0,1.21846967915e-07,0.0,0.0,0.0,1.21846967915e-07,2.65760215,0.91201845,18.3580488,9e-08,0.0,0.0,0.0,9e-08,0.0,0.0,0.0,9e-08
1532133214998266448,936,1532133214997858160,base_link,-0.190216104538,0.147427605586,0.166721530211,-0.956183489739,1.0,0.0,0.0,0.0,1.0,0.0,0.0,0.0,1.0,-0.616755306721,-0.298281729221,-0.225818902254,1.21846967915e-07,0.0,0.0,0.0,1.21846967915e-07,0.0,0.0,0.0,1.21846967915e-07,0.69627215,0.4707192,13.8469898,9e-08,0.0,0.0,0.0,9e-08,0.0,0.0,0.0,9e-08
1532133215438524336,937,1532133215436289328,base_link,-0.0483313249218,0.15580118465,0.23073913841,-0.959244246216,1.0,0.0,0.0,0.0,1.0,0.0,0.0,0.0,1.0,-0.62896168232,-0.0748672783375,-0.140514150262,1.21846967915e-07,0.0,0.0,0.0,1.21846967915e-07,0.0,0.0,0.0,1.21846967915e-07,0.2353596,0.42168595,11.8660465,9e-08,0.0,0.0,0.0,9e-08,0.0,0.0,0.0,9e-08
1532133215824212272,938,1532133215823768432,base_link,0.0572496977861,0.128858209305,0.263905777375,-0.95418644649,1.0,0.0,0.0,0.0,1.0,0.0,0.0,0.0,1.0,-0.688987135887,0.0859514698386,-0.0122732026502,1.21846967915e-07,0.0,0.0,0.0,1.21846967915e-07,0.0,0.0,0.0,1.21846967915e-07,0.3334261,0.42168595,7.5707338,9e-08,0.0,0.0,0.0,9e-08,0.0,0.0,0.0,9e-08
1532133216284594992,939,1532133216280775888,base_link,0.140965083803,0.0719194077136,0.285800798714,-0.945131920632,1.0,0.0,0.0,0.0,1.0,0.0,0.0,0.0,1.0,-0.103528983891,0.157253965735,0.0282010193914,1.21846967915e-07,0.0,0.0,0.0,1.21846967915e-07,0.0,0.0,0.0,1.21846967915e-07,0.71588545,0.10787315,7.5511205,9e-08,0.0,0.0,0.0,9e-08,0.0,0.0,0.0,9e-08
1532133216786353232,940,1532133216786071504,base_link,0.155274655646,0.0268615144886,0.253260777012,-0.954477458707,1.0,0.0,0.0,0.0,1.0,0.0,0.0,0.0,1.0,-0.0942900627851,0.164839282632,0.260571539402,1.21846967915e-07,0.0,0.0,0.0,1.21846967915e-07,0.0,0.0,0.0,1.21846967915e-07,1.0983448,0.3138128,6.75678185,9e-08,0.0,0.0,0.0,9e-08,0.0,0.0,0.0,9e-08
1532133217258419696,941,1532133217258048432,base_link,0.145278860305,-0.016655047793,0.197640359122,-0.969306427595,1.0,0.0,0.0,0.0,1.0,0.0,0.0,0.0,1.0,0.0939674004912,0.145003378391,0.226517558098,1.21846967915e-07,0.0,0.0,0.0,1.21846967915e-07,0.0,0.0,0.0,1.21846967915e-07,1.4513842,8.67099078872e-16,7.0804013,9e-08,0.0,0.0,0.0,9e-08,0.0,0.0,0.0,9e-08
1532133217648621872,942,1532133217648384112,base_link,0.109556063916,-0.0312105621937,0.161194686491,-0.980326294003,1.0,0.0,0.0,0.0,1.0,0.0,0.0,0.0,1.0,0.174711853266,0.0415111519396,0.182304084301,1.21846967915e-07,0.0,0.0,0.0,1.21846967915e-07,0.0,0.0,0.0,1.21846967915e-07,1.5494507,0.2745862,7.9041599,9e-08,0.0,0.0,0.0,9e-08,0.0,0.0,0.0,9e-08
1532133218076740048,943,1532133218076418448,base_link,0.0818283765879,-0.0312080396824,0.139319801909,-0.986367156712,1.0,0.0,0.0,0.0,1.0,0.0,0.0,0.0,1.0,0.112475931644,-0.0466655194759,0.0456413775682,1.21846967915e-07,0.0,0.0,0.0,1.21846967915e-07,0.0,0.0,0.0,1.21846967915e-07,1.4121576,0.14709975,9.3359308,9e-08,0.0,0.0,0.0,9e-08,0.0,0.0,0.0,9e-08
1532133218505325072,944,1532133218505074032,base_link,0.0603604338501,-0.0136556954007,0.12573162672,-0.990132161911,1.0,0.0,0.0,0.0,1.0,0.0,0.0,0.0,1.0,0.195228204131,-0.0902843996882,0.0309157725424,1.21846967915e-07,0.0,0.0,0.0,1.21846967915e-07,0.0,0.0,0.0,1.21846967915e-07,0.97085835,0.55897905,10.6304086,9e-08,0.0,0.0,0.0,9e-08,0.0,0.0,0.0,9e-08
1532133218818215472,945,1532133218817806832,base_link,0.0396251378312,0.00575648851706,0.114609962601,-0.992603278135,1.0,0.0,0.0,0.0,1.0,0.0,0.0,0.0,1.0,0.129802256823,-0.0917874872684,0.0733418688178,1.21846967915e-07,0.0,0.0,0.0,1.21846967915e-07,0.0,0.0,0.0,1.21846967915e-07,1.18660465,0.196133,10.46369555,9e-08,0.0,0.0,0.0,9e-08,0.0,0.0,0.0,9e-08
1532133219252391984,946,1532133219251339376,base_link,0.00672321016988,0.0322220564936,0.0983767845068,-0.994604718363,1.0,0.0,0.0,0.0,1.0,0.0,0.0,0.0,1.0,0.195908725262,-0.0942478850484,0.045749142766,1.21846967915e-07,0.0,0.0,0.0,1.21846967915e-07,0.0,0.0,0.0,1.21846967915e-07,1.22583125,0.28439285,11.2580342,9e-08,0.0,0.0,0.0,9e-08,0.0,0.0,0.0,9e-08
1532133219582884784,947,1532133219582485488,base_link,-0.0172791291122,0.0493177395892,0.0891594180187,-0.994645560206,1.0,0.0,0.0,0.0,1.0,0.0,0.0,0.0,1.0,0.00565299065784,-0.0999017804861,0.0752543210983,1.21846967915e-07,0.0,0.0,0.0,1.21846967915e-07,0.0,0.0,0.0,1.21846967915e-07,1.4121576,0.4511059,11.0226746,9e-08,0.0,0.0,0.0,9e-08,0.0,0.0,0.0,9e-08
1532133219967751760,948,1532133219967480976,base_link,-0.0237625969972,0.062351759622,0.0804749038265,-0.994520681992,1.0,0.0,0.0,0.0,1.0,0.0,0.0,0.0,1.0,-0.00598267093301,-0.0180223993957,0.00779059249908,1.21846967915e-07,0.0,0.0,0.0,1.21846967915e-07,0.0,0.0,0.0,1.21846967915e-07,1.34351105,0.83356525,12.4936721,9e-08,0.0,0.0,0.0,9e-08,0.0,0.0,0.0,9e-08
1532133220424859344,949,1532133220424594448,base_link,-0.0353385835965,0.0674911766453,0.0834178965338,-0.993598299174,1.0,0.0,0.0,0.0,1.0,0.0,0.0,0.0,1.0,0.0783498808742,0.000805464573205,-0.0404217392206,1.21846967915e-07,0.0,0.0,0.0,1.21846967915e-07,0.0,0.0,0.0,1.21846967915e-07,0.77472535,0.91201845,10.54214875,9e-08,0.0,0.0,0.0,9e-08,0.0,0.0,0.0,9e-08
1532133220798598736,950,1532133220798344624,base_link,0.000367376233184,0.0516144162001,0.0995097162607,-0.993696952519,1.0,0.0,0.0,0.0,1.0,0.0,0.0,0.0,1.0,0.118015050888,0.0889391824603,-0.0931367129087,1.21846967915e-07,0.0,0.0,0.0,1.21846967915e-07,0.0,0.0,0.0,1.21846967915e-07,0.61781895,-0.588399,5.6486304,9e-08,0.0,0.0,0.0,9e-08,0.0,0.0,0.0,9e-08
1532133221158862032,951,1532133221158590032,base_link,-0.0669477728842,0.0484963728506,0.0862877116871,-0.992834592638,1.0,0.0,0.0,0.0,1.0,0.0,0.0,0.0,1.0,0.184807449579,0.034091886133,0.214033544064,1.21846967915e-07,0.0,0.0,0.0,1.21846967915e-07,0.0,0.0,0.0,1.21846967915e-07,1.59848395,-0.34323275,10.44408225,9e-08,0.0,0.0,0.0,9e-08,0.0,0.0,0.0,9e-08
1532133221601526896,952,1532133221601153264,base_link,-0.071820000752,0.0395511375801,0.0508391574497,-0.995335609269,1.0,0.0,0.0,0.0,1.0,0.0,0.0,0.0,1.0,-0.0991110131145,0.132916554809,-0.032680798322,1.21846967915e-07,0.0,0.0,0.0,1.21846967915e-07,0.0,0.0,0.0,1.21846967915e-07,1.59848395,1.2552512,9.5909037,9e-08,0.0,0.0,0.0,9e-08,0.0,0.0,0.0,9e-08
1532133221915128272,953,1532133221913606096,base_link,-0.0550388693772,0.0171853466965,0.0794149411932,-0.995172675384,1.0,0.0,0.0,0.0,1.0,0.0,0.0,0.0,1.0,-0.172201767564,0.078359991312,-0.231214821339,1.21846967915e-07,0.0,0.0,0.0,1.21846967915e-07,0.0,0.0,0.0,1.21846967915e-07,0.85317855,0.7060788,7.58054045,9e-08,0.0,0.0,0.0,9e-08,0.0,0.0,0.0,9e-08
1532133222428491952,954,1532133222428202832,base_link,-0.0731757704326,0.0149712583842,0.12397796204,-0.989469874717,1.0,0.0,0.0,0.0,1.0,0.0,0.0,0.0,1.0,0.138731569052,-0.0787184387445,-0.0143068674952,1.21846967915e-07,0.0,0.0,0.0,1.21846967915e-07,0.0,0.0,0.0,1.21846967915e-07,0.75511205,-0.04903325,9.3163175,9e-08,0.0,0.0,0.0,9e-08,0.0,0.0,0.0,9e-08
1532133222838992240,955,1532133222838029456,base_link,-0.0734420349631,0.0326258303084,0.111917206032,-0.990462700808,1.0,0.0,0.0,0.0,1.0,0.0,0.0,0.0,1.0,-0.216146990657,-0.107669442892,0.0688027665019,1.21846967915e-07,0.0,0.0,0.0,1.21846967915e-07,0.0,0.0,0.0,1.21846967915e-07,1.02969825,0.65704555,10.3558224,9e-08,0.0,0.0,0.0,9e-08,0.0,0.0,0.0,9e-08
1532133223126352848,956,1532133223124468176,base_link,-0.0386776694891,0.0384386689392,0.109834547976,-0.992452960439,1.0,0.0,0.0,0.0,1.0,0.0,0.0,0.0,1.0,-0.23750834167,-0.033038970083,-0.0418369248509,1.21846967915e-07,0.0,0.0,0.0,1.21846967915e-07,0.0,0.0,0.0,1.21846967915e-07,1.28467115,1.0002783,10.6892485,9e-08,0.0,0.0,0.0,9e-08,0.0,0.0,0.0,9e-08
1532133223552460560,957,1532133223550696144,base_link,0.0169878859207,0.035890219633,0.123445273321,-0.991556639008,1.0,0.0,0.0,0.0,1.0,0.0,0.0,0.0,1.0,-0.241630196571,-0.0348043814301,-0.0437394343317,1.21846967915e-07,0.0,0.0,0.0,1.21846967915e-07,0.0,0.0,0.0,1.21846967915e-07,1.3533177,0.392266,10.8853815,9e-08,0.0,0.0,0.0,9e-08,0.0,0.0,0.0,9e-08
1532133223916386800,958,1532133223915905424,base_link,0.0655383065888,0.0367101683483,0.115809526123,-0.990426800712,1.0,0.0,0.0,0.0,1.0,0.0,0.0,0.0,1.0,-0.434897094965,-0.0237028189003,0.180916950107,1.21846967915e-07,0.0,0.0,0.0,1.21846967915e-07,0.0,0.0,0.0,1.21846967915e-07,0.57859235,-0.1372931,8.73772515,9e-08,0.0,0.0,0.0,9e-08,0.0,0.0,0.0,9e-08
1532133224381363504,959,1532133224380888560,base_link,0.0637497992068,0.0287165883621,0.0739370940457,-0.994808839314,1.0,0.0,0.0,0.0,1.0,0.0,0.0,0.0,1.0,0.340565651655,0.0656722784042,0.142328336835,1.21846967915e-07,0.0,0.0,0.0,1.21846967915e-07,0.0,0.0,0.0,1.21846967915e-07,1.1375714,-0.0784532,6.9823348,9e-08,0.0,0.0,0.0,9e-08,0.0,0.0,0.0,9e-08
1532133224870277200,960,1532133224869123888,base_link,0.00650825608897,0.0138483995867,0.0459376538029,-0.998827110362,1.0,0.0,0.0,0.0,1.0,0.0,0.0,0.0,1.0,0.120002366602,0.126713514328,-0.0198807325214,1.21846967915e-07,0.0,0.0,0.0,1.21846967915e-07,0.0,0.0,0.0,1.21846967915e-07,1.6279039,1.12776475,8.12971285,9e-08,0.0,0.0,0.0,9e-08,0.0,0.0,0.0,9e-08
1532133225375687088,961,1532133225375445712,base_link,-0.0652154174138,0.00465699025883,0.077831972263,-0.994820308331,1.0,0.0,0.0,0.0,1.0,0.0,0.0,0.0,1.0,0.0535587146878,0.00620732363313,-0.0478178597987,1.21846967915e-07,0.0,0.0,0.0,1.21846967915e-07,0.0,0.0,0.0,1.21846967915e-07,1.7063571,-0.02941995,8.62004535,9e-08,0.0,0.0,0.0,9e-08,0.0,0.0,0.0,9e-08
1532133225665457360,962,1532133225664953648,base_link,-0.0862482252948,0.010282150521,0.072351844603,-0.993589820598,1.0,0.0,0.0,0.0,1.0,0.0,0.0,0.0,1.0,0.267456114292,-0.0434778481722,0.113199435174,1.21846967915e-07,0.0,0.0,0.0,1.21846967915e-07,0.0,0.0,0.0,1.21846967915e-07,1.38273765,0.71588545,7.75706015,9e-08,0.0,0.0,0.0,9e-08,0.0,0.0,0.0,9e-08
1532133226038885744,963,1532133226037822576,base_link,-0.0614642609296,0.0283846497177,0.0780791708395,-0.994645715504,1.0,0.0,0.0,0.0,1.0,0.0,0.0,0.0,1.0,-0.225891932845,-0.135538071394,-0.0249127410352,1.21846967915e-07,0.0,0.0,0.0,1.21846967915e-07,0.0,0.0,0.0,1.21846967915e-07,1.2944778,0.83356525,12.38579895,9e-08,0.0,0.0,0.0,9e-08,0.0,0.0,0.0,9e-08
1532133226497829552,964,1532133226497546480,base_link,-0.0325541137322,0.0531908387207,0.0878849617501,-0.994176643184,1.0,0.0,0.0,0.0,1.0,0.0,0.0,0.0,1.0,-0.0901517048478,-0.109106436372,-0.0723774507642,1.21846967915e-07,0.0,0.0,0.0,1.21846967915e-07,0.0,0.0,0.0,1.21846967915e-07,0.6864655,0.73549875,11.91507975,9e-08,0.0,0.0,0.0,9e-08,0.0,0.0,0.0,9e-08
1532133227008498384,965,1532133227006442832,base_link,-0.0347913361386,0.0669345692381,0.108255654061,-0.991256798077,1.0,0.0,0.0,0.0,1.0,0.0,0.0,0.0,1.0,0.142217233777,-0.0462749637663,-0.0884744077921,1.21846967915e-07,0.0,0.0,0.0,1.21846967915e-07,0.0,0.0,0.0,1.21846967915e-07,0.95124505,0.28439285,9.95374975,9e-08,0.0,0.0,0.0,9e-08,0.0,0.0,0.0,9e-08
1532133227318645136,966,1532133227318350928,base_link,-0.0308601293794,0.0701650835495,0.112447581964,-0.990696752178,1.0,0.0,0.0,0.0,1.0,0.0,0.0,0.0,1.0,-0.105720818043,0.0180317163467,-0.00303100701421,1.21846967915e-07,0.0,0.0,0.0,1.21846967915e-07,0.0,0.0,0.0,1.21846967915e-07,0.85317855,0.4903325,10.40485565,9e-08,0.0,0.0,0.0,9e-08,0.0,0.0,0.0,9e-08
1532133227735485904,967,1532133227735184496,base_link,-0.0232186329015,0.0520866765436,0.130175683653,-0.989849566651,1.0,0.0,0.0,0.0,1.0,0.0,0.0,0.0,1.0,-0.108707919717,0.0760906711221,-0.114220775664,1.21846967915e-07,0.0,0.0,0.0,1.21846967915e-07,0.0,0.0,0.0,1.21846967915e-07,0.8433719,0.1372931,8.2571993,9e-08,0.0,0.0,0.0,9e-08,0.0,0.0,0.0,9e-08
1532133228102745904,968,1532133228099789424,base_link,-0.0260478361107,0.0474059872012,0.141994515945,-0.98838845605,1.0,0.0,0.0,0.0,1.0,0.0,0.0,0.0,1.0,-0.141199439764,0.0143098197877,-0.0340158082545,1.21846967915e-07,0.0,0.0,0.0,1.21846967915e-07,0.0,0.0,0.0,1.21846967915e-07,1.2552512,0.1176798,10.198916,9e-08,0.0,0.0,0.0,9e-08,0.0,0.0,0.0,9e-08
1532133228526491504,969,1532133228526146384,base_link,-0.0125152347601,0.0411130730615,0.134155061694,-0.990028031696,1.0,0.0,0.0,0.0,1.0,0.0,0.0,0.0,1.0,-0.026367103681,0.00315381027758,0.0521051026881,1.21846967915e-07,0.0,0.0,0.0,1.21846967915e-07,0.0,0.0,0.0,1.21846967915e-07,1.12776475,0.0784532,9.5124505,9e-08,0.0,0.0,0.0,9e-08,0.0,0.0,0.0,9e-08
1532133228946884752,970,1532133228946534096,base_link,0.0196142036566,0.03606964777,0.124489598181,-0.99137107254,1.0,0.0,0.0,0.0,1.0,0.0,0.0,0.0,1.0,-0.0678604245186,0.00686622364447,0.0601001791656,1.21846967915e-07,0.0,0.0,0.0,1.21846967915e-07,0.0,0.0,0.0,1.21846967915e-07,0.8433719,0.2353596,10.73828175,9e-08,0.0,0.0,0.0,9e-08,0.0,0.0,0.0,9e-08
1532133229185769680,971,1532133229182811472,base_link,0.0156178893734,0.0345738546821,0.118621116066,-0.992214574035,1.0,0.0,0.0,0.0,1.0,0.0,0.0,0.0,1.0,0.0416983515024,0.0285236276686,0.0344367064536,1.21846967915e-07,0.0,0.0,0.0,1.21846967915e-07,0.0,0.0,0.0,1.21846967915e-07,0.4903325,0.40207265,8.9828914,9e-08,0.0,0.0,0.0,9e-08,0.0,0.0,0.0,9e-08
1532133229559687120,972,1532133229559331184,base_link,0.0164950198477,0.0326355674837,0.117481620638,-0.992401583467,1.0,0.0,0.0,0.0,1.0,0.0,0.0,0.0,1.0,0.0584378689528,0.00282165454701,-0.0360447987914,1.21846967915e-07,0.0,0.0,0.0,1.21846967915e-07,0.0,0.0,0.0,1.21846967915e-07,0.75511205,0.4903325,9.20844435,9e-08,0.0,0.0,0.0,9e-08,0.0,0.0,0.0,9e-08
1532133229780332624,973,1532133229779908496,base_link,0.0186109013683,0.0322963075778,0.118708539097,-0.992229240454,1.0,0.0,0.0,0.0,1.0,0.0,0.0,0.0,1.0,0.057797331363,-0.0112673342228,0.000508507015184,1.21846967915e-07,0.0,0.0,0.0,1.21846967915e-07,0.0,0.0,0.0,1.21846967915e-07,0.53936575,0.63743225,10.89518815,9e-08,0.0,0.0,0.0,9e-08,0.0,0.0,0.0,9e-08
1532133230094939856,974,1532133230092939120,base_link,0.00715897850459,0.0318386922523,0.119609190784,-0.99228458024,1.0,0.0,0.0,0.0,1.0,0.0,0.0,0.0,1.0,0.127287179232,0.0111543349922,-0.00368335982785,1.21846967915e-07,0.0,0.0,0.0,1.21846967915e-07,0.0,0.0,0.0,1.21846967915e-07,0.5295591,0.0980665,8.87501825,9e-08,0.0,0.0,0.0,9e-08,0.0,0.0,0.0,9e-08
1532133230402277488,975,1532133230401721136,base_link,-0.0125263933766,0.0311402701287,0.113402727376,-0.992981970868,1.0,0.0,0.0,0.0,1.0,0.0,0.0,0.0,1.0,0.202883154154,0.0380730703473,0.0357868820429,1.21846967915e-07,0.0,0.0,0.0,1.21846967915e-07,0.0,0.0,0.0,1.21846967915e-07,0.7060788,0.196133,7.6688003,9e-08,0.0,0.0,0.0,9e-08,0.0,0.0,0.0,9e-08
1532133230726097424,976,1532133230725127280,base_link,-0.044456708044,0.032054823098,0.105246051602,-0.992934719933,1.0,0.0,0.0,0.0,1.0,0.0,0.0,0.0,1.0,0.106926381588,0.00118582136929,0.0303866211325,1.21846967915e-07,0.0,0.0,0.0,1.21846967915e-07,0.0,0.0,0.0,1.21846967915e-07,1.0395049,0.8433719,10.0223963,9e-08,0.0,0.0,0.0,9e-08,0.0,0.0,0.0,9e-08
1532133231039463440,977,1532133231038631344,base_link,-0.0322891894028,0.0238338943206,0.106511674601,-0.993501191193,1.0,0.0,0.0,0.0,1.0,0.0,0.0,0.0,1.0,-0.23626691103,0.0565794296563,-0.0408509783447,1.21846967915e-07,0.0,0.0,0.0,1.21846967915e-07,0.0,0.0,0.0,1.21846967915e-07,0.73549875,0.3530394,5.71727695,9e-08,0.0,0.0,0.0,9e-08,0.0,0.0,0.0,9e-08
1532133231502088176,978,1532133231501614352,base_link,-0.0163692917601,0.0282703263703,0.102460975975,-0.99420047442,1.0,0.0,0.0,0.0,1.0,0.0,0.0,0.0,1.0,-0.0554049275815,-0.0582720041275,0.120222002268,1.21846967915e-07,0.0,0.0,0.0,1.21846967915e-07,0.0,0.0,0.0,1.21846967915e-07,0.75511205,0.196133,10.56176205,9e-08,0.0,0.0,0.0,9e-08,0.0,0.0,0.0,9e-08
1532133231963742512,979,1532133231963074032,base_link,-0.052030863755,0.0369250117935,0.106625229112,-0.99225016666,1.0,0.0,0.0,0.0,1.0,0.0,0.0,0.0,1.0,0.0776244923472,-0.0318666100502,-0.0179049167782,1.21846967915e-07,0.0,0.0,0.0,1.21846967915e-07,0.0,0.0,0.0,1.21846967915e-07,0.77472535,0.3726527,9.6497436,9e-08,0.0,0.0,0.0,9e-08,0.0,0.0,0.0,9e-08
1532133232352917392,980,1532133232352667536,base_link,-0.0450531676573,0.0456159612643,0.103019832463,-0.992610855412,1.0,0.0,0.0,0.0,1.0,0.0,0.0,0.0,1.0,-0.0881412625313,-0.0516351684928,0.0498922429979,1.21846967915e-07,0.0,0.0,0.0,1.21846967915e-07,0.0,0.0,0.0,1.21846967915e-07,1.4317709,0.3530394,11.18938765,9e-08,0.0,0.0,0.0,9e-08,0.0,0.0,0.0,9e-08
1532133232716553072,981,1532133232716165360,base_link,-0.025920835927,0.0546645786799,0.0999541501762,-0.99315107711,1.0,0.0,0.0,0.0,1.0,0.0,0.0,0.0,1.0,-0.16156257689,-0.0754907950759,0.0293251313269,1.21846967915e-07,0.0,0.0,0.0,1.21846967915e-07,0.0,0.0,0.0,1.21846967915e-07,1.1571847,0.3726527,12.81729155,9e-08,0.0,0.0,0.0,9e-08,0.0,0.0,0.0,9e-08
1532133233123164048,982,1532133233122600400,base_link,0.000294487132297,0.0645622129104,0.0833259384742,-0.994428691219,1.0,0.0,0.0,0.0,1.0,0.0,0.0,0.0,1.0,-0.109217718244,-0.0292173177004,0.0595281943679,1.21846967915e-07,0.0,0.0,0.0,1.21846967915e-07,0.0,0.0,0.0,1.21846967915e-07,1.1571847,0.588399,11.60126695,9e-08,0.0,0.0,0.0,9e-08,0.0,0.0,0.0,9e-08
1532133233512514896,983,1532133233511536304,base_link,0.0116708658604,0.0619693666697,0.0832189484912,-0.994534159844,1.0,0.0,0.0,0.0,1.0,0.0,0.0,0.0,1.0,0.122117064893,0.0181840248406,-0.0467758327723,1.21846967915e-07,0.0,0.0,0.0,1.21846967915e-07,0.0,0.0,0.0,1.21846967915e-07,1.01008495,0.30400615,10.0223963,9e-08,0.0,0.0,0.0,9e-08,0.0,0.0,0.0,9e-08
1532133233838174128,984,1532133233837780816,base_link,-0.0152205919538,0.0595667304167,0.0901809571594,-0.994025921782,1.0,0.0,0.0,0.0,1.0,0.0,0.0,0.0,1.0,0.137471571565,0.0471308529377,-0.0461162552238,1.21846967915e-07,0.0,0.0,0.0,1.21846967915e-07,0.0,0.0,0.0,1.21846967915e-07,0.65704555,0.46091255,9.01231135,9e-08,0.0,0.0,0.0,9e-08,0.0,0.0,0.0,9e-08
1532133234304082000,985,1532133234303792528,base_link,-0.0764255318922,0.0511752532112,0.0880141875782,-0.991863768024,1.0,0.0,0.0,0.0,1.0,0.0,0.0,0.0,1.0,0.23616553843,0.0704790949821,0.0279896426946,1.21846967915e-07,0.0,0.0,0.0,1.21846967915e-07,0.0,0.0,0.0,1.21846967915e-07,1.04931155,0.12748645,8.6690786,9e-08,0.0,0.0,0.0,9e-08,0.0,0.0,0.0,9e-08
1532133234695320848,986,1532133234694794704,base_link,-0.115334929865,0.0326715285662,0.105377700915,-0.987180816935,1.0,0.0,0.0,0.0,1.0,0.0,0.0,0.0,1.0,0.0883250311017,0.0887365043163,-0.221584632993,1.21846967915e-07,0.0,0.0,0.0,1.21846967915e-07,0.0,0.0,0.0,1.21846967915e-07,1.26505785,0.57859235,7.44324735,9e-08,0.0,0.0,0.0,9e-08,0.0,0.0,0.0,9e-08
1532133235038607952,987,1532133235038402384,base_link,-0.142974314278,0.0286044355932,0.137316306039,-0.979736884994,1.0,0.0,0.0,0.0,1.0,0.0,0.0,0.0,1.0,0.103008762002,-0.00514606107026,-0.143910139799,1.21846967915e-07,0.0,0.0,0.0,1.21846967915e-07,0.0,0.0,0.0,1.21846967915e-07,1.30428445,0.5099458,9.1201845,9e-08,0.0,0.0,0.0,9e-08,0.0,0.0,0.0,9e-08
1532133235521119152,988,1532133235520711216,base_link,-0.180107156636,0.0489761193455,0.165072935733,-0.968459435264,1.0,0.0,0.0,0.0,1.0,0.0,0.0,0.0,1.0,0.0449852831662,-0.10443328321,-0.103671170771,1.21846967915e-07,0.0,0.0,0.0,1.21846967915e-07,0.0,0.0,0.0,1.21846967915e-07,1.5298374,0.8237586,12.32695905,9e-08,0.0,0.0,0.0,9e-08,0.0,0.0,0.0,9e-08
1532133235921518544,989,1532133235921193360,base_link,-0.217915953773,0.0646069896909,0.204848690623,-0.952037597957,1.0,0.0,0.0,0.0,1.0,0.0,0.0,0.0,1.0,0.138838514686,-0.102344363928,-0.287236362696,1.21846967915e-07,0.0,0.0,0.0,1.21846967915e-07,0.0,0.0,0.0,1.21846967915e-07,0.5099458,0.97085835,9.1201845,9e-08,0.0,0.0,0.0,9e-08,0.0,0.0,0.0,9e-08
1532133236372885200,990,1532133236372705616,base_link,-0.238246031697,0.0770342450548,0.278903685267,-0.92710155205,1.0,0.0,0.0,0.0,1.0,0.0,0.0,0.0,1.0,0.172721236944,-0.144095644355,-0.305745691061,1.21846967915e-07,0.0,0.0,0.0,1.21846967915e-07,0.0,0.0,0.0,1.21846967915e-07,0.55897905,0.8629852,10.26756255,9e-08,0.0,0.0,0.0,9e-08,0.0,0.0,0.0,9e-08
1532133236740465488,991,1532133236739998288,base_link,-0.271199616947,0.111239337976,0.34224309749,-0.892718454875,1.0,0.0,0.0,0.0,1.0,0.0,0.0,0.0,1.0,0.118537910283,-0.259802758694,-0.210431575775,1.21846967915e-07,0.0,0.0,0.0,1.21846967915e-07,0.0,0.0,0.0,1.21846967915e-07,0.61781895,0.14709975,10.91480145,9e-08,0.0,0.0,0.0,9e-08,0.0,0.0,0.0,9e-08
1532133237211495408,992,1532133237210992016,base_link,-0.270148747372,0.175104334013,0.384211365125,-0.865297494167,1.0,0.0,0.0,0.0,1.0,0.0,0.0,0.0,1.0,-0.109149217606,-0.32013040781,-0.10975279659,1.21846967915e-07,0.0,0.0,0.0,1.21846967915e-07,0.0,0.0,0.0,1.21846967915e-07,1.10815145,0.9414384,12.46425215,9e-08,0.0,0.0,0.0,9e-08,0.0,0.0,0.0,9e-08
1532133237670028944,993,1532133237669453136,base_link,-0.224605503033,0.160845155843,0.457167291233,-0.845387054358,1.0,0.0,0.0,0.0,1.0,0.0,0.0,0.0,1.0,-0.330046862364,0.0125820478424,-0.461208224297,1.21846967915e-07,0.0,0.0,0.0,1.21846967915e-07,0.0,0.0,0.0,1.21846967915e-07,0.6472389,1.4709975,8.5513988,9e-08,0.0,0.0,0.0,9e-08,0.0,0.0,0.0,9e-08
1532133237948745840,994,1532133237948348944,base_link,-0.200687191528,0.144611895039,0.517082727035,-0.819412902249,1.0,0.0,0.0,0.0,1.0,0.0,0.0,0.0,1.0,-0.171981647611,-0.157711133361,-0.387320399284,1.21846967915e-07,0.0,0.0,0.0,1.21846967915e-07,0.0,0.0,0.0,1.21846967915e-07,0.9218251,0.4314926,10.1400761,9e-08,0.0,0.0,0.0,9e-08,0.0,0.0,0.0,9e-08
1532133238300776592,995,1532133238300506672,base_link,-0.157895088752,0.142849542287,0.562241716289,-0.799091610318,1.0,0.0,0.0,0.0,1.0,0.0,0.0,0.0,1.0,-0.288806945086,-0.252862900496,-0.123692452908,1.21846967915e-07,0.0,0.0,0.0,1.21846967915e-07,0.0,0.0,0.0,1.21846967915e-07,1.14737805,0.1765197,12.9840046,9e-08,0.0,0.0,0.0,9e-08,0.0,0.0,0.0,9e-08
1532133238778968112,996,1532133238778648592,base_link,-0.060690472244,0.13427249456,0.573673479118,-0.805720983431,1.0,0.0,0.0,0.0,1.0,0.0,0.0,0.0,1.0,-0.25057849288,-0.0298845171928,0.0168624706566,1.21846967915e-07,0.0,0.0,0.0,1.21846967915e-07,0.0,0.0,0.0,1.21846967915e-07,0.8629852,1.30428445,12.79767825,9e-08,0.0,0.0,0.0,9e-08,0.0,0.0,0.0,9e-08
1532133239245796368,997,1532133239245284400,base_link,-0.0635608423674,0.11255123633,0.621688802293,-0.7725252563,1.0,0.0,0.0,0.0,1.0,0.0,0.0,0.0,1.0,0.0768873170018,0.0416691638529,-0.337800472975,1.21846967915e-07,0.0,0.0,0.0,1.21846967915e-07,0.0,0.0,0.0,1.21846967915e-07,0.26477955,0.4903325,8.65927195,9e-08,0.0,0.0,0.0,9e-08,0.0,0.0,0.0,9e-08
1532133239749689712,998,1532133239749440688,base_link,-0.054248569332,0.0970547987047,0.661557247279,-0.741606005468,1.0,0.0,0.0,0.0,1.0,0.0,0.0,0.0,1.0,-0.0515063852072,-0.0218357220292,-0.125703498721,1.21846967915e-07,0.0,0.0,0.0,1.21846967915e-07,0.0,0.0,0.0,1.21846967915e-07,0.36284605,-0.14709975,8.5121722,9e-08,0.0,0.0,0.0,9e-08,0.0,0.0,0.0,9e-08
1532133240061922000,999,1532133240061714256,base_link,-0.0411345974868,0.0908448512075,0.666702059379,-0.738622719606,1.0,0.0,0.0,0.0,1.0,0.0,0.0,0.0,1.0,-0.187610059977,-0.0382810160518,0.00904700160027,1.21846967915e-07,0.0,0.0,0.0,1.21846967915e-07,0.0,0.0,0.0,1.21846967915e-07,0.6668522,0.53936575,9.9831697,9e-08,0.0,0.0,0.0,9e-08,0.0,0.0,0.0,9e-08
1532133240448060240,1000,1532133240446870800,base_link,-0.012580218822,0.0580066012111,0.666478049346,-0.743158113762,1.0,0.0,0.0,0.0,1.0,0.0,0.0,0.0,1.0,-0.173145145178,0.0284970067441,0.0871090367436,1.21846967915e-07,0.0,0.0,0.0,1.21846967915e-07,0.0,0.0,0.0,1.21846967915e-07,0.9218251,0.1372931,9.5124505,9e-08,0.0,0.0,0.0,9e-08,0.0,0.0,0.0,9e-08
1532133240745703344,1001,1532133240745406000,base_link,0.0278321611131,0.0194684235779,0.655379827735,-0.754535375373,1.0,0.0,0.0,0.0,1.0,0.0,0.0,0.0,1.0,-0.143928870559,0.0084456494078,0.0621636286378,1.21846967915e-07,0.0,0.0,0.0,1.21846967915e-07,0.0,0.0,0.0,1.21846967915e-07,1.42196425,0.48052585,10.54214875,9e-08,0.0,0.0,0.0,9e-08,0.0,0.0,0.0,9e-08
1532133241191786096,1002,1532133241190842928,base_link,-0.0225458474963,0.0373911033597,0.657117228058,-0.752522782871,1.0,0.0,0.0,0.0,1.0,0.0,0.0,0.0,1.0,0.201255455613,0.103486783803,-0.0721445828676,1.21846967915e-07,0.0,0.0,0.0,1.21846967915e-07,0.0,0.0,0.0,1.21846967915e-07,0.71588545,0.6864655,8.24739265,9e-08,0.0,0.0,0.0,9e-08,0.0,0.0,0.0,9e-08
1532133241540252592,1003,1532133241535892976,base_link,-0.0396355971931,0.0341467845703,0.669710394889,-0.740777296842,1.0,0.0,0.0,0.0,1.0,0.0,0.0,0.0,1.0,-0.0336857438087,0.0813746973872,-0.0905857980251,1.21846967915e-07,0.0,0.0,0.0,1.21846967915e-07,0.0,0.0,0.0,1.21846967915e-07,0.6668522,0.08825985,8.433719,9e-08,0.0,0.0,0.0,9e-08,0.0,0.0,0.0,9e-08
1532133241919546928,1004,1532133241919289456,base_link,-0.0452933241139,0.0327858193567,0.671151713019,-0.739208348811,1.0,0.0,0.0,0.0,1.0,0.0,0.0,0.0,1.0,0.0176886916161,-0.00234560016543,0.0221597589552,1.21846967915e-07,0.0,0.0,0.0,1.21846967915e-07,0.0,0.0,0.0,1.21846967915e-07,0.8629852,0.2549729,9.3163175,9e-08,0.0,0.0,0.0,9e-08,0.0,0.0,0.0,9e-08
1532133242297297872,1005,1532133242296905488,base_link,-0.050559535968,0.0372535985651,0.669052969269,-0.740556565718,1.0,0.0,0.0,0.0,1.0,0.0,0.0,0.0,1.0,0.147567465901,0.00423816638067,-0.00357009959407,1.21846967915e-07,0.0,0.0,0.0,1.21846967915e-07,0.0,0.0,0.0,1.21846967915e-07,0.57859235,0.42168595,9.22805765,9e-08,0.0,0.0,0.0,9e-08,0.0,0.0,0.0,9e-08
1532133242662404048,1006,1532133242662192592,base_link,-0.0661087196165,0.0454421830904,0.674306285526,-0.734081520328,1.0,0.0,0.0,0.0,1.0,0.0,0.0,0.0,1.0,-0.0481327362359,0.0459841713309,-0.117821440101,1.21846967915e-07,0.0,0.0,0.0,1.21846967915e-07,0.0,0.0,0.0,1.21846967915e-07,0.5099458,0.79433865,9.03192465,9e-08,0.0,0.0,0.0,9e-08,0.0,0.0,0.0,9e-08
1532133243067736912,1007,1532133243066831344,base_link,-0.0585599505239,0.0364515550199,0.696158233825,-0.714566812698,1.0,0.0,0.0,0.0,1.0,0.0,0.0,0.0,1.0,0.0900498107076,-0.0499998964369,-0.0862317234278,1.21846967915e-07,0.0,0.0,0.0,1.21846967915e-07,0.0,0.0,0.0,1.21846967915e-07,0.38245935,-0.06864655,10.395049,9e-08,0.0,0.0,0.0,9e-08,0.0,0.0,0.0,9e-08
1532133243461881456,1008,1532133243461449168,base_link,-0.0624831414234,0.0634363018826,0.695428511703,-0.713057415466,1.0,0.0,0.0,0.0,1.0,0.0,0.0,0.0,1.0,-0.0573937669396,-0.0550581738353,0.0287067294121,1.21846967915e-07,0.0,0.0,0.0,1.21846967915e-07,0.0,0.0,0.0,1.21846967915e-07,0.20593965,0.588399,9.6301303,9e-08,0.0,0.0,0.0,9e-08,0.0,0.0,0.0,9e-08
1532133244004053936,1009,1532133244003736816,base_link,0.0278329719703,-0.0393666777109,-0.717945362442,0.694427855796,1.0,0.0,0.0,0.0,1.0,0.0,0.0,0.0,1.0,-0.0587380602956,-0.0427273064852,-0.141631558537,1.21846967915e-07,0.0,0.0,0.0,1.21846967915e-07,0.0,0.0,0.0,1.21846967915e-07,0.26477955,0.53936575,10.07142955,9e-08,0.0,0.0,0.0,9e-08,0.0,0.0,0.0,9e-08
1532133244252856816,1010,1532133244246997232,base_link,0.0151656498488,-0.0350317985663,-0.726870081825,0.685713249326,1.0,0.0,0.0,0.0,1.0,0.0,0.0,0.0,1.0,-0.0681949704885,-0.0405867397785,-0.0437846705317,1.21846967915e-07,0.0,0.0,0.0,1.21846967915e-07,0.0,0.0,0.0,1.21846967915e-07,0.2157463,-0.00980665,10.8069283,9e-08,0.0,0.0,0.0,9e-08,0.0,0.0,0.0,9e-08
1532133244660017456,1011,1532133244659027056,base_link,-0.000505161534625,-0.0214972489119,-0.726398835651,0.686936929176,1.0,0.0,0.0,0.0,1.0,0.0,0.0,0.0,1.0,0.0685097575188,0.0261524319649,-0.0246991254389,1.21846967915e-07,0.0,0.0,0.0,1.21846967915e-07,0.0,0.0,0.0,1.21846967915e-07,0.1765197,0.63743225,9.80665,9e-08,0.0,0.0,0.0,9e-08,0.0,0.0,0.0,9e-08
1532133244956861584,1012,1532133244956586256,base_link,0.00880493501127,-0.0235606551113,-0.72978357958,0.683215409388,1.0,0.0,0.0,0.0,1.0,0.0,0.0,0.0,1.0,-0.0609621852636,0.0533120520413,0.00231316196732,1.21846967915e-07,0.0,0.0,0.0,1.21846967915e-07,0.0,0.0,0.0,1.21846967915e-07,0.32361945,0.02941995,9.01231135,9e-08,0.0,0.0,0.0,9e-08,0.0,0.0,0.0,9e-08
1532133245443266352,1013,1532133245442796176,base_link,0.0190710379294,-0.015463834535,-0.724811987072,0.688509076723,1.0,0.0,0.0,0.0,1.0,0.0,0.0,0.0,1.0,-0.0376369990408,0.0470581352711,-0.0139591852203,1.21846967915e-07,0.0,0.0,0.0,1.21846967915e-07,0.0,0.0,0.0,1.21846967915e-07,0.2549729,0.44129925,8.5317855,9e-08,0.0,0.0,0.0,9e-08,0.0,0.0,0.0,9e-08
1532133245806691152,1014,1532133245806451760,base_link,0.0294926404307,-0.00885079074748,-0.730422901192,0.682300691102,1.0,0.0,0.0,0.0,1.0,0.0,0.0,0.0,1.0,0.111203566194,0.0695770680904,-0.0653178170323,1.21846967915e-07,0.0,0.0,0.0,1.21846967915e-07,0.0,0.0,0.0,1.21846967915e-07,0.2157463,0.4707192,8.4729456,9e-08,0.0,0.0,0.0,9e-08,0.0,0.0,0.0,9e-08
1532133246094173328,1015,1532133246090902224,base_link,0.0458017168539,-0.0206488300867,-0.736206896479,0.674889053198,1.0,0.0,0.0,0.0,1.0,0.0,0.0,0.0,1.0,0.131308808923,0.00412970548496,-0.0570009797812,1.21846967915e-07,0.0,0.0,0.0,1.21846967915e-07,0.0,0.0,0.0,1.21846967915e-07,0.10787315,0.2353596,9.42419065,9e-08,0.0,0.0,0.0,9e-08,0.0,0.0,0.0,9e-08
1532133246550455856,1016,1532133246550123888,base_link,0.0415651258086,-0.020839499305,-0.735616827131,0.675800221387,1.0,0.0,0.0,0.0,1.0,0.0,0.0,0.0,1.0,-0.0920885205269,0.00852497294545,0.00109067116864,1.21846967915e-07,0.0,0.0,0.0,1.21846967915e-07,0.0,0.0,0.0,1.21846967915e-07,0.1372931,-0.02941995,8.85540495,9e-08,0.0,0.0,0.0,9e-08,0.0,0.0,0.0,9e-08
1532133246791100496,1017,1532133246790517936,base_link,0.043080161142,-0.0234617771393,-0.7302034932,0.681466435892,1.0,0.0,0.0,0.0,1.0,0.0,0.0,0.0,1.0,0.019354134798,-0.0226766467094,0.0965147539973,1.21846967915e-07,0.0,0.0,0.0,1.21846967915e-07,0.0,0.0,0.0,1.21846967915e-07,0.14709975,0.08825985,8.7867584,9e-08,0.0,0.0,0.0,9e-08,0.0,0.0,0.0,9e-08
1532133247035879888,1018,1532133247035462160,base_link,0.035795014308,-0.0181462912446,-0.721054290095,0.69171536039,1.0,0.0,0.0,0.0,1.0,0.0,0.0,0.0,1.0,-0.114567659795,1.21276825667e-05,0.0605205595493,1.21846967915e-07,0.0,0.0,0.0,1.21846967915e-07,0.0,0.0,0.0,1.21846967915e-07,0.26477955,0.61781895,10.3558224,9e-08,0.0,0.0,0.0,9e-08,0.0,0.0,0.0,9e-08
1532133247306436048,1019,1532133247305898640,base_link,0.0242416654832,-0.00396771108009,-0.720758035969,0.692751364134,1.0,0.0,0.0,0.0,1.0,0.0,0.0,0.0,1.0,-0.0944809019566,0.00676247896627,-0.0221369899809,1.21846967915e-07,0.0,0.0,0.0,1.21846967915e-07,0.0,0.0,0.0,1.21846967915e-07,0.26477955,0.4511059,10.0616229,9e-08,0.0,0.0,0.0,9e-08,0.0,0.0,0.0,9e-08
1532133247785946544,1020,1532133247785590320,base_link,-0.0082443790955,0.0406902141271,-0.736655659118,0.674992427052,1.0,0.0,0.0,0.0,1.0,0.0,0.0,0.0,1.0,-0.372377634048,-0.0150307873264,-0.0587042868137,1.21846967915e-07,0.0,0.0,0.0,1.21846967915e-07,0.0,0.0,0.0,1.21846967915e-07,-0.1176798,0.1372931,8.2179727,9e-08,0.0,0.0,0.0,9e-08,0.0,0.0,0.0,9e-08
1532133248138869648,1021,1532133248138526000,base_link,-0.00923646204677,0.0348359128111,-0.740000464703,0.671640126248,1.0,0.0,0.0,0.0,1.0,0.0,0.0,0.0,1.0,0.1774263978,-0.0370833389461,0.0377321764827,1.21846967915e-07,0.0,0.0,0.0,1.21846967915e-07,0.0,0.0,0.0,1.21846967915e-07,0.30400615,-0.0980665,10.6500219,9e-08,0.0,0.0,0.0,9e-08,0.0,0.0,0.0,9e-08
1532133248420747376,1022,1532133248420517296,base_link,0.00722512422578,0.00819471737109,-0.726569400419,0.687006223088,1.0,0.0,0.0,0.0,1.0,0.0,0.0,0.0,1.0,0.381795555353,-0.0894144624472,0.1549025774,1.21846967915e-07,0.0,0.0,0.0,1.21846967915e-07,0.0,0.0,0.0,1.21846967915e-07,0.61781895,0.2745862,12.79767825,9e-08,0.0,0.0,0.0,9e-08,0.0,0.0,0.0,9e-08
1532133248744265456,1023,1532133248743747664,base_link,0.0039881378388,-0.00361940105188,-0.712777809322,0.701369224611,1.0,0.0,0.0,0.0,1.0,0.0,0.0,0.0,1.0,0.0294645279646,-0.010633058846,0.0549884587526,1.21846967915e-07,0.0,0.0,0.0,1.21846967915e-07,0.0,0.0,0.0,1.21846967915e-07,0.12748645,0.5295591,9.8458766,9e-08,0.0,0.0,0.0,9e-08,0.0,0.0,0.0,9e-08
1532133249218680656,1024,1532133249218293936,base_link,0.0298292953789,-0.037962179109,-0.715403500079,0.697041546946,1.0,0.0,0.0,0.0,1.0,0.0,0.0,0.0,1.0,0.157206118107,-0.0479144752026,-0.0110077178106,1.21846967915e-07,0.0,0.0,0.0,1.21846967915e-07,0.0,0.0,0.0,1.21846967915e-07,0.06864655,0.3334261,11.30706745,9e-08,0.0,0.0,0.0,9e-08,0.0,0.0,0.0,9e-08
1532133249726006352,1025,1532133249725573328,base_link,0.0127330581954,-0.0358904389178,-0.724368559917,0.688360323542,1.0,0.0,0.0,0.0,1.0,0.0,0.0,0.0,1.0,-0.210274979472,-0.0317148342729,-0.0736159533262,1.21846967915e-07,0.0,0.0,0.0,1.21846967915e-07,0.0,0.0,0.0,1.21846967915e-07,-0.1569064,0.34323275,10.1400761,9e-08,0.0,0.0,0.0,9e-08,0.0,0.0,0.0,9e-08
1532133250075837456,1026,1532133250075536304,base_link,0.00955130959316,-0.0258710288254,-0.740736127769,0.671229805187,1.0,0.0,0.0,0.0,1.0,0.0,0.0,0.0,1.0,-0.112180605531,0.0153342559934,-0.163544148207,1.21846967915e-07,0.0,0.0,0.0,1.21846967915e-07,0.0,0.0,0.0,1.21846967915e-07,-0.4511059,0.4903325,7.4726673,9e-08,0.0,0.0,0.0,9e-08,0.0,0.0,0.0,9e-08
1532133250528859632,1027,1532133250528202832,base_link,0.0105825455088,-0.0244708418244,-0.755119930682,0.655044332788,1.0,0.0,0.0,0.0,1.0,0.0,0.0,0.0,1.0,0.035529460758,-0.01535918843,-0.0265133902431,1.21846967915e-07,0.0,0.0,0.0,1.21846967915e-07,0.0,0.0,0.0,1.21846967915e-07,-0.0980665,-0.34323275,9.16921775,9e-08,0.0,0.0,0.0,9e-08,0.0,0.0,0.0,9e-08
1532133251032926064,1028,1532133251032692208,base_link,0.0237829983771,-0.0398205061128,-0.741529562194,0.669315026481,1.0,0.0,0.0,0.0,1.0,0.0,0.0,0.0,1.0,0.000631870701909,0.00859275553375,0.0879577025771,1.21846967915e-07,0.0,0.0,0.0,1.21846967915e-07,0.0,0.0,0.0,1.21846967915e-07,-0.0392266,0.4511059,8.73772515,9e-08,0.0,0.0,0.0,9e-08,0.0,0.0,0.0,9e-08
1532133251427100432,1029,1532133251426894672,base_link,0.00463549016404,-0.0138285839761,-0.73839306098,0.674212852141,1.0,0.0,0.0,0.0,1.0,0.0,0.0,0.0,1.0,-0.115648321807,0.012295326218,-0.0292873326689,1.21846967915e-07,0.0,0.0,0.0,1.21846967915e-07,0.0,0.0,0.0,1.21846967915e-07,0.36284605,0.4511059,10.2185293,9e-08,0.0,0.0,0.0,9e-08,0.0,0.0,0.0,9e-08
1532133251854460432,1030,1532133251854223408,base_link,0.00948466007844,-0.0158291541186,-0.743884360805,0.668053543403,1.0,0.0,0.0,0.0,1.0,0.0,0.0,0.0,1.0,0.249684244394,-0.00901352148503,-0.003465550486,1.21846967915e-07,0.0,0.0,0.0,1.21846967915e-07,0.0,0.0,0.0,1.21846967915e-07,0.36284605,-0.0392266,10.69905515,9e-08,0.0,0.0,0.0,9e-08,0.0,0.0,0.0,9e-08
1532133252230233648,1031,1532133252229957264,base_link,0.0295564772112,-0.035842420163,-0.736587408719,0.674744933207,1.0,0.0,0.0,0.0,1.0,0.0,0.0,0.0,1.0,0.217105746269,-0.0147718079388,0.0606452263892,1.21846967915e-07,0.0,0.0,0.0,1.21846967915e-07,0.0,0.0,0.0,1.21846967915e-07,0.16671305,0.24516625,10.22833595,9e-08,0.0,0.0,0.0,9e-08,0.0,0.0,0.0,9e-08
1532133252617665584,1032,1532133252616745840,base_link,0.0461490515699,-0.0552488634214,-0.730698222516,0.678894642593,1.0,0.0,0.0,0.0,1.0,0.0,0.0,0.0,1.0,0.0537252984941,-0.00345631223172,-0.0213183872402,1.21846967915e-07,0.0,0.0,0.0,1.21846967915e-07,0.0,0.0,0.0,1.21846967915e-07,0.1765197,0.6864655,9.2378643,9e-08,0.0,0.0,0.0,9e-08,0.0,0.0,0.0,9e-08
1532133253031497840,1033,1532133253029642864,base_link,0.0583846759853,-0.0612774171814,-0.745303115552,0.661331666944,1.0,0.0,0.0,0.0,1.0,0.0,0.0,0.0,1.0,0.207303792238,-0.0190635696054,-0.160084143281,1.21846967915e-07,0.0,0.0,0.0,1.21846967915e-07,0.0,0.0,0.0,1.21846967915e-07,0.04903325,0.46091255,9.52225715,9e-08,0.0,0.0,0.0,9e-08,0.0,0.0,0.0,9e-08
1532133253497637328,1034,1532133253495552176,base_link,0.0900952266824,-0.105165835291,-0.758876493356,0.636340683163,1.0,0.0,0.0,0.0,1.0,0.0,0.0,0.0,1.0,0.137036070228,-0.0510422587395,-0.0640796944499,1.21846967915e-07,0.0,0.0,0.0,1.21846967915e-07,0.0,0.0,0.0,1.21846967915e-07,0.2353596,0.1765197,9.5320638,9e-08,0.0,0.0,0.0,9e-08,0.0,0.0,0.0,9e-08
1532133253832377680,1035,1532133253832089584,base_link,0.0929578261949,-0.118079452958,-0.763883257424,0.627613300023,1.0,0.0,0.0,0.0,1.0,0.0,0.0,0.0,1.0,0.0835973396897,-0.0371318981051,-0.0656708553433,1.21846967915e-07,0.0,0.0,0.0,1.21846967915e-07,0.0,0.0,0.0,1.21846967915e-07,0.3530394,0.65704555,9.2967042,9e-08,0.0,0.0,0.0,9e-08,0.0,0.0,0.0,9e-08
1532133254278832304,1036,1532133254278544656,base_link,0.0967885312476,-0.126508722844,-0.785620533599,0.597852741444,1.0,0.0,0.0,0.0,1.0,0.0,0.0,0.0,1.0,0.0667668730021,-0.0397094897926,-0.213811397552,1.21846967915e-07,0.0,0.0,0.0,1.21846967915e-07,0.0,0.0,0.0,1.21846967915e-07,0.392266,0.8237586,9.81645665,9e-08,0.0,0.0,0.0,9e-08,0.0,0.0,0.0,9e-08
1532133254708831632,1037,1532133254708499312,base_link,0.106495710054,-0.152198237007,-0.808373622601,0.558593274821,1.0,0.0,0.0,0.0,1.0,0.0,0.0,0.0,1.0,0.0514961518347,-0.0910827293992,-0.159011080861,1.21846967915e-07,0.0,0.0,0.0,1.21846967915e-07,0.0,0.0,0.0,1.21846967915e-07,0.4118793,0.4314926,9.91452315,9e-08,0.0,0.0,0.0,9e-08,0.0,0.0,0.0,9e-08
1532133255182523280,1038,1532133255182231760,base_link,0.100776144992,-0.183088875484,-0.826610528923,0.522530062052,1.0,0.0,0.0,0.0,1.0,0.0,0.0,0.0,1.0,0.076812915504,-0.113303653896,-0.163643404841,1.21846967915e-07,0.0,0.0,0.0,1.21846967915e-07,0.0,0.0,0.0,1.21846967915e-07,0.8041453,0.9218251,10.11065615,9e-08,0.0,0.0,0.0,9e-08,0.0,0.0,0.0,9e-08
1532133255478466096,1039,1532133255478161232,base_link,0.0895265605135,-0.191104204066,-0.843065952758,0.494675628519,1.0,0.0,0.0,0.0,1.0,0.0,0.0,0.0,1.0,0.0288974512368,-0.13762447238,-0.199006140232,1.21846967915e-07,0.0,0.0,0.0,1.21846967915e-07,0.0,0.0,0.0,1.21846967915e-07,0.67665885,0.8433719,11.2188076,9e-08,0.0,0.0,0.0,9e-08,0.0,0.0,0.0,9e-08
1532133255916964720,1040,1532133255916613104,base_link,0.0800917881683,-0.206363496933,-0.865664522042,0.449025999112,1.0,0.0,0.0,0.0,1.0,0.0,0.0,0.0,1.0,0.0110110621899,-0.120517246425,-0.221997395158,1.21846967915e-07,0.0,0.0,0.0,1.21846967915e-07,0.0,0.0,0.0,1.21846967915e-07,1.10815145,0.8629852,11.6306869,9e-08,0.0,0.0,0.0,9e-08,0.0,0.0,0.0,9e-08
1532133256294961072,1041,1532133256293967728,base_link,0.0688973056125,-0.20870990044,-0.887553455781,0.404897767181,1.0,0.0,0.0,0.0,1.0,0.0,0.0,0.0,1.0,0.0986868068576,-0.106107987463,-0.253577888012,1.21846967915e-07,0.0,0.0,0.0,1.21846967915e-07,0.0,0.0,0.0,1.21846967915e-07,1.01008495,0.50013915,11.56204035,9e-08,0.0,0.0,0.0,9e-08,0.0,0.0,0.0,9e-08
1532133256749117296,1042,1532133256748833616,base_link,0.0623973249324,-0.240751602112,-0.906649281804,0.340781924001,1.0,0.0,0.0,0.0,1.0,0.0,0.0,0.0,1.0,0.0527127459645,-0.135981693864,-0.290575623512,1.21846967915e-07,0.0,0.0,0.0,1.21846967915e-07,0.0,0.0,0.0,1.21846967915e-07,0.69627215,0.9610517,9.20844435,9e-08,0.0,0.0,0.0,9e-08,0.0,0.0,0.0,9e-08
1532133257060332144,1043,1532133257060111824,base_link,0.0573230981557,-0.269724548095,-0.917764020457,0.285783017912,1.0,0.0,0.0,0.0,1.0,0.0,0.0,0.0,1.0,0.0573698952794,-0.239001706243,-0.298354327679,1.21846967915e-07,0.0,0.0,0.0,1.21846967915e-07,0.0,0.0,0.0,1.21846967915e-07,0.4314926,0.93163175,10.7284751,9e-08,0.0,0.0,0.0,9e-08,0.0,0.0,0.0,9e-08
1532133257484095408,1044,1532133257483622800,base_link,0.0346578215276,-0.273955457665,-0.936863833823,0.214553954746,1.0,0.0,0.0,0.0,1.0,0.0,0.0,0.0,1.0,-0.115575641394,-0.189990177751,-0.3075928092,1.21846967915e-07,0.0,0.0,0.0,1.21846967915e-07,0.0,0.0,0.0,1.21846967915e-07,0.5295591,0.99047165,11.11093445,9e-08,0.0,0.0,0.0,9e-08,0.0,0.0,0.0,9e-08
1532133257814429968,1045,1532133257810869392,base_link,0.0117098808194,-0.249616509685,-0.954262078018,0.164129105402,1.0,0.0,0.0,0.0,1.0,0.0,0.0,0.0,1.0,-0.182412564754,-0.168988153338,-0.302175760269,1.21846967915e-07,0.0,0.0,0.0,1.21846967915e-07,0.0,0.0,0.0,1.21846967915e-07,0.980665,0.81395195,11.4345539,9e-08,0.0,0.0,0.0,9e-08,0.0,0.0,0.0,9e-08
1532133258189680496,1046,1532133258189408368,base_link,-0.0124130095048,-0.210647709116,-0.971849738511,0.104792869961,1.0,0.0,0.0,0.0,1.0,0.0,0.0,0.0,1.0,-0.150148406625,-0.156471520662,-0.29160875082,1.21846967915e-07,0.0,0.0,0.0,1.21846967915e-07,0.0,0.0,0.0,1.21846967915e-07,0.4511059,0.75511205,10.83634825,9e-08,0.0,0.0,0.0,9e-08,0.0,0.0,0.0,9e-08
1532133258683483440,1047,1532133258683066832,base_link,-0.0502980352146,-0.158531340592,-0.984548114357,0.0547990166023,1.0,0.0,0.0,0.0,1.0,0.0,0.0,0.0,1.0,-0.306848227978,-0.150393366814,-0.0733656361699,1.21846967915e-07,0.0,0.0,0.0,1.21846967915e-07,0.0,0.0,0.0,1.21846967915e-07,0.6668522,0.46091255,11.1207411,9e-08,0.0,0.0,0.0,9e-08,0.0,0.0,0.0,9e-08
1532133259039565744,1048,1532133259039173296,base_link,-0.0607826330165,-0.0950114819651,-0.992987811179,0.0354047548772,1.0,0.0,0.0,0.0,1.0,0.0,0.0,0.0,1.0,-0.362894505262,0.0185693874955,-0.110614016652,1.21846967915e-07,0.0,0.0,0.0,1.21846967915e-07,0.0,0.0,0.0,1.21846967915e-07,0.34323275,0.6472389,8.3356525,9e-08,0.0,0.0,0.0,9e-08,0.0,0.0,0.0,9e-08
1532133259435128912,1049,1532133259434727120,base_link,-0.0549196869039,-0.0217699351125,-0.998200411714,0.0102876610092,1.0,0.0,0.0,0.0,1.0,0.0,0.0,0.0,1.0,-0.338776767254,0.0336880199611,-0.0824658498168,1.21846967915e-07,0.0,0.0,0.0,1.21846967915e-07,0.0,0.0,0.0,1.21846967915e-07,0.57859235,0.40207265,9.1397978,9e-08,0.0,0.0,0.0,9e-08,0.0,0.0,0.0,9e-08
1532133259704162480,1050,1532133259700812432,base_link,-0.0512581834836,0.0160595016454,-0.998541379879,0.00545927676154,1.0,0.0,0.0,0.0,1.0,0.0,0.0,0.0,1.0,-0.206556633115,0.0407691821456,0.0416441634297,1.21846967915e-07,0.0,0.0,0.0,1.21846967915e-07,0.0,0.0,0.0,1.21846967915e-07,0.81395195,1.12530725333e-15,9.18883105,9e-08,0.0,0.0,0.0,9e-08,0.0,0.0,0.0,9e-08
1532133260062537104,1051,1532133260062170864,base_link,-0.0508270635972,0.0612649650681,-0.996560692684,0.0230217171009,1.0,0.0,0.0,0.0,1.0,0.0,0.0,0.0,1.0,-0.272450447083,-0.00441781245172,0.097699791193,1.21846967915e-07,0.0,0.0,0.0,1.21846967915e-07,0.0,0.0,0.0,1.21846967915e-07,1.0787315,0.5687857,9.83606995,9e-08,0.0,0.0,0.0,9e-08,0.0,0.0,0.0,9e-08
1532133260567694800,1052,1532133260567383344,base_link,-0.0445709450706,0.0662457328614,-0.995925239852,0.0419267260627,1.0,0.0,0.0,0.0,1.0,0.0,0.0,0.0,1.0,0.119944706559,0.00298233889043,0.107756666839,1.21846967915e-07,0.0,0.0,0.0,1.21846967915e-07,0.0,0.0,0.0,1.21846967915e-07,0.6668522,0.2353596,9.63993695,9e-08,0.0,0.0,0.0,9e-08,0.0,0.0,0.0,9e-08
1532133261077208208,1053,1532133261076973104,base_link,-0.0351562408215,0.0519656303977,-0.994911267404,0.0788364254666,1.0,0.0,0.0,0.0,1.0,0.0,0.0,0.0,1.0,0.0614510476589,0.03350090608,0.100658133626,1.21846967915e-07,0.0,0.0,0.0,1.21846967915e-07,0.0,0.0,0.0,1.21846967915e-07,1.14737805,0.53936575,10.1793027,9e-08,0.0,0.0,0.0,9e-08,0.0,0.0,0.0,9e-08
1532133261429086800,1054,1532133261428686352,base_link,-0.0194131245015,0.0211157445152,-0.996287092148,0.0811744168494,1.0,0.0,0.0,0.0,1.0,0.0,0.0,0.0,1.0,0.183888107538,0.0701980888844,-0.0498461946845,1.21846967915e-07,0.0,0.0,0.0,1.21846967915e-07,0.0,0.0,0.0,1.21846967915e-07,1.0591182,0.30400615,8.58081875,9e-08,0.0,0.0,0.0,9e-08,0.0,0.0,0.0,9e-08
1532133261821374512,1055,1532133261821051376,base_link,-0.00480176067162,-0.0237584986513,-0.996672605663,0.0778215520056,1.0,0.0,0.0,0.0,1.0,0.0,0.0,0.0,1.0,0.221889585257,0.0294884797186,0.00734155252576,1.21846967915e-07,0.0,0.0,0.0,1.21846967915e-07,0.0,0.0,0.0,1.21846967915e-07,1.2944778,0.18632635,9.12999115,9e-08,0.0,0.0,0.0,9e-08,0.0,0.0,0.0,9e-08
1532133262203133200,1056,1532133262202648944,base_link,0.00077947857116,-0.045258243914,-0.995439627101,0.0839704267455,1.0,0.0,0.0,0.0,1.0,0.0,0.0,0.0,1.0,0.0481600835919,-0.0018759155646,0.00576324108988,1.21846967915e-07,0.0,0.0,0.0,1.21846967915e-07,0.0,0.0,0.0,1.21846967915e-07,0.9414384,0.44129925,9.73800345,9e-08,0.0,0.0,0.0,9e-08,0.0,0.0,0.0,9e-08
1532133262610560496,1057,1532133262610313808,base_link,-0.00032608971863,-0.0368513329033,-0.995425440933,0.0881479691848,1.0,0.0,0.0,0.0,1.0,0.0,0.0,0.0,1.0,-0.113394372165,0.0529902279377,-0.0863757655025,1.21846967915e-07,0.0,0.0,0.0,1.21846967915e-07,0.0,0.0,0.0,1.21846967915e-07,0.93163175,1.2748645,9.83606995,9e-08,0.0,0.0,0.0,9e-08,0.0,0.0,0.0,9e-08
1532133263090808912,1058,1532133263089226704,base_link,-0.00117466972551,-0.0207005804296,-0.997246069382,0.0712066234546,1.0,0.0,0.0,0.0,1.0,0.0,0.0,0.0,1.0,0.209691092372,-0.0639571994543,0.010210567154,1.21846967915e-07,0.0,0.0,0.0,1.21846967915e-07,0.0,0.0,0.0,1.21846967915e-07,1.1964113,0.2157463,11.8268199,9e-08,0.0,0.0,0.0,9e-08,0.0,0.0,0.0,9e-08
1532133263504091568,1059,1532133263503816880,base_link,-0.00805433844175,-0.0406410739447,-0.995562623504,0.084489605417,1.0,0.0,0.0,0.0,1.0,0.0,0.0,0.0,1.0,0.013095154427,-0.0279813203961,0.0253969617188,1.21846967915e-07,0.0,0.0,0.0,1.21846967915e-07,0.0,0.0,0.0,1.21846967915e-07,0.63743225,0.32361945,9.56148375,9e-08,0.0,0.0,0.0,9e-08,0.0,0.0,0.0,9e-08
1532133263958777584,1060,1532133263958553904,base_link,-0.0191648097322,-0.048666141328,-0.994377508238,0.0920743605225,1.0,0.0,0.0,0.0,1.0,0.0,0.0,0.0,1.0,0.127011984587,-0.0416521392763,-0.00642023049295,1.21846967915e-07,0.0,0.0,0.0,1.21846967915e-07,0.0,0.0,0.0,1.21846967915e-07,0.38245935,0.4903325,10.198916,9e-08,0.0,0.0,0.0,9e-08,0.0,0.0,0.0,9e-08
1532133264230693488,1061,1532133264230440464,base_link,-0.0216325265485,-0.0479351960572,-0.994297059787,0.0927771937079,1.0,0.0,0.0,0.0,1.0,0.0,0.0,0.0,1.0,-0.0748545750976,0.00563355674967,0.00506753567606,1.21846967915e-07,0.0,0.0,0.0,1.21846967915e-07,0.0,0.0,0.0,1.21846967915e-07,0.48052585,0.26477955,8.825985,9e-08,0.0,0.0,0.0,9e-08,0.0,0.0,0.0,9e-08
1532133264693214800,1062,1532133264692469232,base_link,-0.0108938509282,-0.0712723118215,-0.993731608062,0.0854346107768,1.0,0.0,0.0,0.0,1.0,0.0,0.0,0.0,1.0,0.0286559462547,0.0441241525114,-0.0559533312917,1.21846967915e-07,0.0,0.0,0.0,1.21846967915e-07,0.0,0.0,0.0,1.21846967915e-07,0.2157463,0.3334261,6.52142225,9e-08,0.0,0.0,0.0,9e-08,0.0,0.0,0.0,9e-08
1532133265129106960,1063,1532133265128850064,base_link,-0.0015482478379,-0.0466077962275,-0.996560635647,0.0684997499176,1.0,0.0,0.0,0.0,1.0,0.0,0.0,0.0,1.0,-0.0439126156271,0.0749850720167,-0.124922551215,1.21846967915e-07,0.0,0.0,0.0,1.21846967915e-07,0.0,0.0,0.0,1.21846967915e-07,0.85317855,0.51975245,8.09048625,9e-08,0.0,0.0,0.0,9e-08,0.0,0.0,0.0,9e-08
1532133265441889520,1064,1532133265441224400,base_link,-0.00455123679302,-0.0241952821477,-0.998034900901,0.0576212733992,1.0,0.0,0.0,0.0,1.0,0.0,0.0,0.0,1.0,-0.0496268756688,-0.00807142164558,0.0257053524256,1.21846967915e-07,0.0,0.0,0.0,1.21846967915e-07,0.0,0.0,0.0,1.21846967915e-07,1.2552512,-0.04903325,13.01342455,9e-08,0.0,0.0,0.0,9e-08,0.0,0.0,0.0,9e-08
1532133265857132528,1065,1532133265856810064,base_link,-0.0108086344547,-0.0255480626864,-0.996390167344,0.0802315669457,1.0,0.0,0.0,0.0,1.0,0.0,0.0,0.0,1.0,-0.0144772315398,-0.00405095424503,0.0363590791821,1.21846967915e-07,0.0,0.0,0.0,1.21846967915e-07,0.0,0.0,0.0,1.21846967915e-07,0.4707192,0.24516625,9.50264385,9e-08,0.0,0.0,0.0,9e-08,0.0,0.0,0.0,9e-08
1532133266194348816,1066,1532133266193942544,base_link,-0.0148847659697,-0.022559912124,-0.995969171033,0.0855272147205,1.0,0.0,0.0,0.0,1.0,0.0,0.0,0.0,1.0,0.0372915640473,-0.00368898920715,-0.0180451236665,1.21846967915e-07,0.0,0.0,0.0,1.21846967915e-07,0.0,0.0,0.0,1.21846967915e-07,0.51975245,0.75511205,10.69905515,9e-08,0.0,0.0,0.0,9e-08,0.0,0.0,0.0,9e-08
1532133266537872848,1067,1532133266537601104,base_link,-0.0138357689585,-0.0175488523993,-0.997428860512,0.0680902158563,1.0,0.0,0.0,0.0,1.0,0.0,0.0,0.0,1.0,0.0733550414443,0.00149407563731,-0.137996211648,1.21846967915e-07,0.0,0.0,0.0,1.21846967915e-07,0.0,0.0,0.0,1.21846967915e-07,0.32361945,0.40207265,10.01258965,9e-08,0.0,0.0,0.0,9e-08,0.0,0.0,0.0,9e-08
1532133266896189712,1068,1532133266895251184,base_link,-0.0117743804322,-0.0282122652502,-0.998280287066,0.0500190014904,1.0,0.0,0.0,0.0,1.0,0.0,0.0,0.0,1.0,0.298744827509,-0.0179049801081,-0.115900821984,1.21846967915e-07,0.0,0.0,0.0,1.21846967915e-07,0.0,0.0,0.0,1.21846967915e-07,0.0980665,-0.0784532,7.99241975,9e-08,0.0,0.0,0.0,9e-08,0.0,0.0,0.0,9e-08
1532133267245238672,1069,1532133267244894960,base_link,-0.0051730033414,-0.0833178201177,-0.99451684938,0.0629890243418,1.0,0.0,0.0,0.0,1.0,0.0,0.0,0.0,1.0,0.219560354948,0.0470187738538,0.184350013733,1.21846967915e-07,0.0,0.0,0.0,1.21846967915e-07,0.0,0.0,0.0,1.21846967915e-07,0.3138128,0.38245935,7.7472535,9e-08,0.0,0.0,0.0,9e-08,0.0,0.0,0.0,9e-08
1532133267626338672,1070,1532133267626092048,base_link,-0.00304927092599,-0.0602770563881,-0.994737967576,0.0827874041258,1.0,0.0,0.0,0.0,1.0,0.0,0.0,0.0,1.0,-0.276422202587,-0.00834227353334,0.00471862172708,1.21846967915e-07,0.0,0.0,0.0,1.21846967915e-07,0.0,0.0,0.0,1.21846967915e-07,1.0983448,0.57859235,11.16977435,9e-08,0.0,0.0,0.0,9e-08,0.0,0.0,0.0,9e-08
1532133268004293296,1071,1532133268003900912,base_link,0.000371913719648,-0.0242196003268,-0.996534736736,0.0795725525498,1.0,0.0,0.0,0.0,1.0,0.0,0.0,0.0,1.0,0.00464541837573,0.0486091226339,-0.0657793134451,1.21846967915e-07,0.0,0.0,0.0,1.21846967915e-07,0.0,0.0,0.0,1.21846967915e-07,0.4511059,0.5491724,8.73772515,9e-08,0.0,0.0,0.0,9e-08,0.0,0.0,0.0,9e-08
1532133268410340624,1072,1532133268410063088,base_link,0.0110979267495,-0.0327838598198,-0.997655426834,0.0590398498099,1.0,0.0,0.0,0.0,1.0,0.0,0.0,0.0,1.0,0.140096798539,-0.00186206586659,-0.0636864826083,1.21846967915e-07,0.0,0.0,0.0,1.21846967915e-07,0.0,0.0,0.0,1.21846967915e-07,0.1569064,-0.30400615,7.2176944,9e-08,0.0,0.0,0.0,9e-08,0.0,0.0,0.0,9e-08
1532133268755380112,1073,1532133268754105616,base_link,0.0090001211304,-0.0474216476388,-0.996035941741,0.0747167177733,1.0,0.0,0.0,0.0,1.0,0.0,0.0,0.0,1.0,-0.276778995991,-0.0372985266149,0.21408033371,1.21846967915e-07,0.0,0.0,0.0,1.21846967915e-07,0.0,0.0,0.0,1.21846967915e-07,0.1569064,0.3138128,9.24767095,9e-08,0.0,0.0,0.0,9e-08,0.0,0.0,0.0,9e-08
1532133269233802608,1074,1532133269232012208,base_link,0.00218723836235,0.0214055580007,-0.996036862908,0.0862993963135,1.0,0.0,0.0,0.0,1.0,0.0,0.0,0.0,1.0,-0.25515806675,0.00633380515501,-0.0872314274311,1.21846967915e-07,0.0,0.0,0.0,1.21846967915e-07,0.0,0.0,0.0,1.21846967915e-07,0.196133,0.79433865,10.0812362,9e-08,0.0,0.0,0.0,9e-08,0.0,0.0,0.0,9e-08
1532133269675746928,1075,1532133269675526128,base_link,-0.00184445760548,0.0018405824778,-0.997900854483,0.0647077650215,1.0,0.0,0.0,0.0,1.0,0.0,0.0,0.0,1.0,0.215992733836,-0.0636340007186,-0.0928861126304,1.21846967915e-07,0.0,0.0,0.0,1.21846967915e-07,0.0,0.0,0.0,1.21846967915e-07,0.0392266,0.18632635,8.3944924,9e-08,0.0,0.0,0.0,9e-08,0.0,0.0,0.0,9e-08
1532133270065453360,1076,1532133270065212496,base_link,-0.0166711524562,0.000543121512863,-0.998114967797,0.0590617368058,1.0,0.0,0.0,0.0,1.0,0.0,0.0,0.0,1.0,0.00893812812865,-0.0877082124352,-0.00534522067755,1.21846967915e-07,0.0,0.0,0.0,1.21846967915e-07,0.0,0.0,0.0,1.21846967915e-07,-0.00980665,0.4707192,11.1403544,9e-08,0.0,0.0,0.0,9e-08,0.0,0.0,0.0,9e-08
1532133270591222224,1077,1532133270590841456,base_link,-0.0409335267779,-0.0206132370991,-0.996827176071,0.065077814102,1.0,0.0,0.0,0.0,1.0,0.0,0.0,0.0,1.0,0.111261382699,-0.0896685197949,0.0682957023382,1.21846967915e-07,0.0,0.0,0.0,1.21846967915e-07,0.0,0.0,0.0,1.21846967915e-07,0.14709975,-0.0196133,12.48386545,9e-08,0.0,0.0,0.0,9e-08,0.0,0.0,0.0,9e-08
1532133270947709872,1078,1532133270946859280,base_link,-0.0496454267393,-0.0279815670085,-0.995389343616,0.0771519159018,1.0,0.0,0.0,0.0,1.0,0.0,0.0,0.0,1.0,-0.0354464873672,-0.0179135538638,0.0170932430774,1.21846967915e-07,0.0,0.0,0.0,1.21846967915e-07,0.0,0.0,0.0,1.21846967915e-07,-0.14709975,0.6276256,10.99325465,9e-08,0.0,0.0,0.0,9e-08,0.0,0.0,0.0,9e-08
1532133271446343408,1079,1532133271444073712,base_link,-0.0395391373616,-0.0309540917035,-0.996534371547,0.0663155121277,1.0,0.0,0.0,0.0,1.0,0.0,0.0,0.0,1.0,0.0415940135717,0.0706144496799,-0.0950618237257,1.21846967915e-07,0.0,0.0,0.0,1.21846967915e-07,0.0,0.0,0.0,1.21846967915e-07,-0.196133,0.1372931,7.18827445,9e-08,0.0,0.0,0.0,9e-08,0.0,0.0,0.0,9e-08
1532133271896537072,1080,1532133271896201680,base_link,-0.0242430269898,-0.0106799367569,-0.997934551771,0.0585221750754,1.0,0.0,0.0,0.0,1.0,0.0,0.0,0.0,1.0,0.0537717305124,0.0669037774205,0.00807429011911,1.21846967915e-07,0.0,0.0,0.0,1.21846967915e-07,0.0,0.0,0.0,1.21846967915e-07,0.2745862,0.22555295,8.54159215,9e-08,0.0,0.0,0.0,9e-08,0.0,0.0,0.0,9e-08
1532133272318224848,1081,1532133272317972272,base_link,-0.00809388504821,0.007567931973,-0.997407009512,0.0711088799366,1.0,0.0,0.0,0.0,1.0,0.0,0.0,0.0,1.0,-0.0992914438248,0.0699171423912,0.0899784043431,1.21846967915e-07,0.0,0.0,0.0,1.21846967915e-07,0.0,0.0,0.0,1.21846967915e-07,0.48052585,0.2745862,8.56120545,9e-08,0.0,0.0,0.0,9e-08,0.0,0.0,0.0,9e-08
1532133272749146992,1082,1532133272746679440,base_link,0.00465493935938,0.0344613271913,-0.995323651172,0.0901197974127,1.0,0.0,0.0,0.0,1.0,0.0,0.0,0.0,1.0,-0.228268057108,0.0275088623166,0.136460855603,1.21846967915e-07,0.0,0.0,0.0,1.21846967915e-07,0.0,0.0,0.0,1.21846967915e-07,0.59820565,0.5491724,9.30651085,9e-08,0.0,0.0,0.0,9e-08,0.0,0.0,0.0,9e-08
1532133273119955952,1083,1532133273119614544,base_link,0.0105411804971,0.0400533467442,-0.994286913918,0.0983775672625,1.0,0.0,0.0,0.0,1.0,0.0,0.0,0.0,1.0,0.0273438505828,0.0113815944642,0.03043554537,1.21846967915e-07,0.0,0.0,0.0,1.21846967915e-07,0.0,0.0,0.0,1.21846967915e-07,0.44129925,0.2549729,9.0613446,9e-08,0.0,0.0,0.0,9e-08,0.0,0.0,0.0,9e-08
1532133273573136688,1084,1532133273572925936,base_link,0.00815503850297,0.0106711463512,-0.992956595647,0.117714999653,1.0,0.0,0.0,0.0,1.0,0.0,0.0,0.0,1.0,0.29191198945,0.00270980224013,0.106377445161,1.21846967915e-07,0.0,0.0,0.0,1.21846967915e-07,0.0,0.0,0.0,1.21846967915e-07,0.57859235,0.3726527,7.7276402,9e-08,0.0,0.0,0.0,9e-08,0.0,0.0,0.0,9e-08
1532133273860568464,1085,1532133273860223984,base_link,0.00889962144671,-0.0237543603947,-0.991516501417,0.127481585015,1.0,0.0,0.0,0.0,1.0,0.0,0.0,0.0,1.0,0.298103839159,-0.0275562535971,0.0340201929212,1.21846967915e-07,0.0,0.0,0.0,1.21846967915e-07,0.0,0.0,0.0,1.21846967915e-07,0.7256921,0.5099458,9.14960445,9e-08,0.0,0.0,0.0,9e-08,0.0,0.0,0.0,9e-08
1532133274310195248,1086,1532133274309934000,base_link,-0.00106213385831,-0.0255654378058,-0.991656014134,0.126347259141,1.0,0.0,0.0,0.0,1.0,0.0,0.0,0.0,1.0,-0.19379504025,-0.0584182143211,-0.089944049716,1.21846967915e-07,0.0,0.0,0.0,1.21846967915e-07,0.0,0.0,0.0,1.21846967915e-07,1.63771055,0.32361945,11.8268199,9e-08,0.0,0.0,0.0,9e-08,0.0,0.0,0.0,9e-08
1532133274673491760,1087,1532133274670631696,base_link,-0.0204989719015,-0.0164766729783,-0.991893665815,0.124319214581,1.0,0.0,0.0,0.0,1.0,0.0,0.0,0.0,1.0,0.0523290932178,-0.100084796548,0.0846919715405,1.21846967915e-07,0.0,0.0,0.0,1.21846967915e-07,0.0,0.0,0.0,1.21846967915e-07,1.52003075,0.12748645,12.944778,9e-08,0.0,0.0,0.0,9e-08,0.0,0.0,0.0,9e-08
1532133275081305680,1088,1532133275080829360,base_link,-0.0376256749663,-0.0142115452626,-0.991300461718,0.125322524563,1.0,0.0,0.0,0.0,1.0,0.0,0.0,0.0,1.0,0.0148029625416,-0.045431625098,-0.130023539066,1.21846967915e-07,0.0,0.0,0.0,1.21846967915e-07,0.0,0.0,0.0,1.21846967915e-07,1.01008495,0.784532,11.62088025,9e-08,0.0,0.0,0.0,9e-08,0.0,0.0,0.0,9e-08
1532133275483284016,1089,1532133275482403632,base_link,-0.045346217745,-0.0482181867572,-0.991939685432,0.10804807942,1.0,0.0,0.0,0.0,1.0,0.0,0.0,0.0,1.0,0.207361385226,-0.0689933598042,-0.0151252709329,1.21846967915e-07,0.0,0.0,0.0,1.21846967915e-07,0.0,0.0,0.0,1.21846967915e-07,1.10815145,0.22555295,10.64021525,9e-08,0.0,0.0,0.0,9e-08,0.0,0.0,0.0,9e-08
1532133275880630608,1090,1532133275880301232,base_link,-0.0505684579154,-0.0480572555085,-0.99169253783,0.108070540244,1.0,0.0,0.0,0.0,1.0,0.0,0.0,0.0,1.0,0.140570804477,0.00808439496905,-0.0053843203932,1.21846967915e-07,0.0,0.0,0.0,1.21846967915e-07,0.0,0.0,0.0,1.21846967915e-07,0.97085835,-0.02941995,9.42419065,9e-08,0.0,0.0,0.0,9e-08,0.0,0.0,0.0,9e-08
1532133276341553936,1091,1532133276340399120,base_link,-0.0475103535261,-0.0927748179191,-0.988888102413,0.105999624406,1.0,0.0,0.0,0.0,1.0,0.0,0.0,0.0,1.0,0.00459030037746,0.0122243221849,-0.0630824044347,1.21846967915e-07,0.0,0.0,0.0,1.21846967915e-07,0.0,0.0,0.0,1.21846967915e-07,1.53964405,0.1569064,9.80665,9e-08,0.0,0.0,0.0,9e-08,0.0,0.0,0.0,9e-08
1532133276801911376,1092,1532133276801635504,base_link,-0.0461535629781,-0.0669142696241,-0.991755356939,0.0990638235056,1.0,0.0,0.0,0.0,1.0,0.0,0.0,0.0,1.0,-0.216590434313,0.0256714075804,-0.051229223609,1.21846967915e-07,0.0,0.0,0.0,1.21846967915e-07,0.0,0.0,0.0,1.21846967915e-07,1.38273765,0.3138128,10.50292215,9e-08,0.0,0.0,0.0,9e-08,0.0,0.0,0.0,9e-08
1532133277206373008,1093,1532133277206053456,base_link,-0.0475065100465,-0.0214906901095,-0.994465856108,0.091208238542,1.0,0.0,0.0,0.0,1.0,0.0,0.0,0.0,1.0,-0.103769168258,-0.0138882221654,-0.0198698490858,1.21846967915e-07,0.0,0.0,0.0,1.21846967915e-07,0.0,0.0,0.0,1.21846967915e-07,1.0787315,0.4707192,10.0223963,9e-08,0.0,0.0,0.0,9e-08,0.0,0.0,0.0,9e-08
1532133277604682704,1094,1532133277604477232,base_link,-0.0450009160126,0.00182876938954,-0.995139011596,0.0875780837894,1.0,0.0,0.0,0.0,1.0,0.0,0.0,0.0,1.0,-0.081050015986,0.0638587549329,-0.0860528051853,1.21846967915e-07,0.0,0.0,0.0,1.21846967915e-07,0.0,0.0,0.0,1.21846967915e-07,1.0983448,0.51975245,8.79656505,9e-08,0.0,0.0,0.0,9e-08,0.0,0.0,0.0,9e-08
1532133277905358992,1095,1532133277905092400,base_link,-0.0383047823445,0.000995557753327,-0.996711676402,0.0713973853774,1.0,0.0,0.0,0.0,1.0,0.0,0.0,0.0,1.0,0.236821293831,0.0016406737268,-0.021068084985,1.21846967915e-07,0.0,0.0,0.0,1.21846967915e-07,0.0,0.0,0.0,1.21846967915e-07,1.01008495,-0.196133,9.75761675,9e-08,0.0,0.0,0.0,9e-08,0.0,0.0,0.0,9e-08
1532133278523030832,1096,1532133278522790576,base_link,-0.0308131127474,-0.0619762765776,-0.992744576552,0.0983244575448,1.0,0.0,0.0,0.0,1.0,0.0,0.0,0.0,1.0,0.107774302363,0.0306812226772,-0.0426332652569,1.21846967915e-07,0.0,0.0,0.0,1.21846967915e-07,0.0,0.0,0.0,1.21846967915e-07,1.1571847,0.69627215,9.24767095,9e-08,0.0,0.0,0.0,9e-08,0.0,0.0,0.0,9e-08
1532133278877892880,1097,1532133278875545808,base_link,-0.0204537522341,-0.0870696066907,-0.991783107954,0.0914701830507,1.0,0.0,0.0,0.0,1.0,0.0,0.0,0.0,1.0,0.234734386206,0.0223748609424,-0.080471932888,1.21846967915e-07,0.0,0.0,0.0,1.21846967915e-07,0.0,0.0,0.0,1.21846967915e-07,1.0983448,0.83356525,9.4339973,9e-08,0.0,0.0,0.0,9e-08,0.0,0.0,0.0,9e-08
1532133279288648144,1098,1532133279288247024,base_link,-0.00928548955798,-0.132975418677,-0.988759945423,0.0677132781584,1.0,0.0,0.0,0.0,1.0,0.0,0.0,0.0,1.0,0.0228275582194,0.0133759528399,-0.150383129716,1.21846967915e-07,0.0,0.0,0.0,1.21846967915e-07,0.0,0.0,0.0,1.21846967915e-07,1.28467115,0.46091255,8.75733845,9e-08,0.0,0.0,0.0,9e-08,0.0,0.0,0.0,9e-08
1532133279636613616,1099,1532133279636352848,base_link,0.00285858297998,-0.146553957526,-0.988958435002,0.0217940330222,1.0,0.0,0.0,0.0,1.0,0.0,0.0,0.0,1.0,0.155949547887,-0.00706231314689,-0.333031356335,1.21846967915e-07,0.0,0.0,0.0,1.21846967915e-07,0.0,0.0,0.0,1.21846967915e-07,1.2356379,0.1765197,8.89463155,9e-08,0.0,0.0,0.0,9e-08,0.0,0.0,0.0,9e-08
1532133280116643760,1100,1532133280116082832,base_link,-0.015109995923,-0.201656287386,-0.978904814021,-0.0291855249793,1.0,0.0,0.0,0.0,1.0,0.0,0.0,0.0,1.0,0.128060221672,-0.194343164563,-0.0951744914055,1.21846967915e-07,0.0,0.0,0.0,1.21846967915e-07,0.0,0.0,0.0,1.21846967915e-07,1.4709975,0.2353596,12.160246,9e-08,0.0,0.0,0.0,9e-08,0.0,0.0,0.0,9e-08
1532133280510063376,1101,1532133280509462928,base_link,-0.0441482537574,-0.247933157146,-0.964937683354,-0.0739955979884,1.0,0.0,0.0,0.0,1.0,0.0,0.0,0.0,1.0,0.385133653879,-0.232810288668,-0.300338119268,1.21846967915e-07,0.0,0.0,0.0,1.21846967915e-07,0.0,0.0,0.0,1.21846967915e-07,0.93163175,0.784532,12.83690485,9e-08,0.0,0.0,0.0,9e-08,0.0,0.0,0.0,9e-08
1532133281002682224,1102,1532133281002353424,base_link,-0.0901607131504,-0.283635808141,-0.945579009774,-0.131537486745,1.0,0.0,0.0,0.0,1.0,0.0,0.0,0.0,1.0,0.0984875336289,-0.244982689619,-0.199083521962,1.21846967915e-07,0.0,0.0,0.0,1.21846967915e-07,0.0,0.0,0.0,1.21846967915e-07,0.4511059,0.5491724,10.14988275,9e-08,0.0,0.0,0.0,9e-08,0.0,0.0,0.0,9e-08
1532133281459707536,1103,1532133281459429168,base_link,-0.127565945465,-0.28446149703,-0.931204763207,-0.188855170028,1.0,0.0,0.0,0.0,1.0,0.0,0.0,0.0,1.0,-0.171577528119,-0.199016839266,-0.204687595367,1.21846967915e-07,0.0,0.0,0.0,1.21846967915e-07,0.0,0.0,0.0,1.21846967915e-07,1.01008495,0.91201845,10.983448,9e-08,0.0,0.0,0.0,9e-08,0.0,0.0,0.0,9e-08
1532133281813537968,1104,1532133281806832560,base_link,-0.138948972483,-0.267485346038,-0.92214863009,-0.242459639369,1.0,0.0,0.0,0.0,1.0,0.0,0.0,0.0,1.0,-0.234785988927,-0.17070427537,-0.290333479643,1.21846967915e-07,0.0,0.0,0.0,1.21846967915e-07,0.0,0.0,0.0,1.21846967915e-07,1.3337044,0.69627215,13.20955755,9e-08,0.0,0.0,0.0,9e-08,0.0,0.0,0.0,9e-08
1532133282227518576,1105,1532133282227281456,base_link,-0.140369113537,-0.242266012384,-0.907665348271,-0.312645656866,1.0,0.0,0.0,0.0,1.0,0.0,0.0,0.0,1.0,-0.0068939877674,-0.0697294771671,-0.291185647249,1.21846967915e-07,0.0,0.0,0.0,1.21846967915e-07,0.0,0.0,0.0,1.21846967915e-07,0.69627215,1.18660465,10.6304086,9e-08,0.0,0.0,0.0,9e-08,0.0,0.0,0.0,9e-08
1532133282632393168,1106,1532133282632203568,base_link,-0.133778823976,-0.241002650723,-0.881434515496,-0.383528543256,1.0,0.0,0.0,0.0,1.0,0.0,0.0,0.0,1.0,-0.1317204386,-0.15848480165,-0.380489259958,1.21846967915e-07,0.0,0.0,0.0,1.21846967915e-07,0.0,0.0,0.0,1.21846967915e-07,1.04931155,0.980665,9.38496405,9e-08,0.0,0.0,0.0,9e-08,0.0,0.0,0.0,9e-08
1532133282927876656,1107,1532133282927539632,base_link,-0.146385131128,-0.240132817689,-0.855341757066,-0.435084017028,1.0,0.0,0.0,0.0,1.0,0.0,0.0,0.0,1.0,0.14968521893,-0.220091059804,-0.314405858517,1.21846967915e-07,0.0,0.0,0.0,1.21846967915e-07,0.0,0.0,0.0,1.21846967915e-07,1.2552512,0.4511059,10.54214875,9e-08,0.0,0.0,0.0,9e-08,0.0,0.0,0.0,9e-08
1532133283213540848,1108,1532133283213198704,base_link,-0.181840977107,-0.252092913718,-0.826169239177,-0.469922770396,1.0,0.0,0.0,0.0,1.0,0.0,0.0,0.0,1.0,0.163048759103,-0.307669430971,-0.184041768312,1.21846967915e-07,0.0,0.0,0.0,1.21846967915e-07,0.0,0.0,0.0,1.21846967915e-07,1.6082906,0.63743225,12.34657235,9e-08,0.0,0.0,0.0,9e-08,0.0,0.0,0.0,9e-08
1532133283656376144,1109,1532133283656103504,base_link,-0.220920591066,-0.238004656175,-0.783417250299,-0.529910641539,1.0,0.0,0.0,0.0,1.0,0.0,0.0,0.0,1.0,-0.147188439965,-0.259066134691,-0.389591157436,1.21846967915e-07,0.0,0.0,0.0,1.21846967915e-07,0.0,0.0,0.0,1.21846967915e-07,1.569064,1.6279039,12.77806495,9e-08,0.0,0.0,0.0,9e-08,0.0,0.0,0.0,9e-08
1532133284031356112,1110,1532133284030608784,base_link,-0.216886770967,-0.199669113931,-0.739304086454,-0.605410473376,1.0,0.0,0.0,0.0,1.0,0.0,0.0,0.0,1.0,-0.300885885954,-0.276802688837,-0.314732700586,1.21846967915e-07,0.0,0.0,0.0,1.21846967915e-07,0.0,0.0,0.0,1.21846967915e-07,0.85317855,0.7060788,9.6693569,9e-08,0.0,0.0,0.0,9e-08,0.0,0.0,0.0,9e-08
1532133284413919792,1111,1532133284413315376,base_link,-0.189251965006,-0.114449642638,-0.709761111404,-0.668822949502,1.0,0.0,0.0,0.0,1.0,0.0,0.0,0.0,1.0,-0.553372621536,-0.188562586904,-0.215397253633,1.21846967915e-07,0.0,0.0,0.0,1.21846967915e-07,0.0,0.0,0.0,1.21846967915e-07,1.3337044,0.392266,13.4939504,9e-08,0.0,0.0,0.0,9e-08,0.0,0.0,0.0,9e-08
1532133284739416080,1112,1532133284739151440,base_link,-0.174644721104,-0.0595464042895,-0.693136288251,-0.696789446703,1.0,0.0,0.0,0.0,1.0,0.0,0.0,0.0,1.0,-0.451609879732,-0.146368458867,-0.0178491082042,1.21846967915e-07,0.0,0.0,0.0,1.21846967915e-07,0.0,0.0,0.0,1.21846967915e-07,1.08853815,0.5295591,11.964113,9e-08,0.0,0.0,0.0,9e-08,0.0,0.0,0.0,9e-08
1532133285154211856,1113,1532133285153888464,base_link,-0.0873947237341,0.0316952757329,-0.682360735403,-0.725080270411,1.0,0.0,0.0,0.0,1.0,0.0,0.0,0.0,1.0,-0.342480033636,0.128753587604,-0.193373918533,1.21846967915e-07,0.0,0.0,0.0,1.21846967915e-07,0.0,0.0,0.0,1.21846967915e-07,0.93163175,0.6276256,9.87529655,9e-08,0.0,0.0,0.0,9e-08,0.0,0.0,0.0,9e-08
1532133285489747984,1114,1532133285489423472,base_link,-0.0728175932855,0.0352133636322,-0.66774636133,-0.739981360617,1.0,0.0,0.0,0.0,1.0,0.0,0.0,0.0,1.0,-0.241667583585,0.0345420092344,-0.0169328451157,1.21846967915e-07,0.0,0.0,0.0,1.21846967915e-07,0.0,0.0,0.0,1.21846967915e-07,0.6080123,-0.02941995,8.22777935,9e-08,0.0,0.0,0.0,9e-08,0.0,0.0,0.0,9e-08
1532133286054833840,1115,1532133286053663472,base_link,-0.0273663293549,0.0632683441673,-0.692982492378,-0.717651354003,1.0,0.0,0.0,0.0,1.0,0.0,0.0,0.0,1.0,-0.0326512381434,0.0649057254195,0.183882847428,1.21846967915e-07,0.0,0.0,0.0,1.21846967915e-07,0.0,0.0,0.0,1.21846967915e-07,1.372931,0.26477955,9.2770909,9e-08,0.0,0.0,0.0,9e-08,0.0,0.0,0.0,9e-08
1532133286411822128,1116,1532133286411318640,base_link,0.00387784301291,0.0755011282629,-0.711435614262,-0.69867296264,1.0,0.0,0.0,0.0,1.0,0.0,0.0,0.0,1.0,-0.174871519208,0.12662473321,0.104029625654,1.21846967915e-07,0.0,0.0,0.0,1.21846967915e-07,0.0,0.0,0.0,1.21846967915e-07,1.8436502,0.48052585,10.20872265,9e-08,0.0,0.0,0.0,9e-08,0.0,0.0,0.0,9e-08
1532133286810273616,1117,1532133286809646224,base_link,0.0176222784578,0.0575680780687,-0.724626177217,-0.686507301477,1.0,0.0,0.0,0.0,1.0,0.0,0.0,0.0,1.0,-0.015781365335,0.146150231361,0.110075347126,1.21846967915e-07,0.0,0.0,0.0,1.21846967915e-07,0.0,0.0,0.0,1.21846967915e-07,1.3337044,0.2549729,8.0806796,9e-08,0.0,0.0,0.0,9e-08,0.0,0.0,0.0,9e-08
1532133287167829328,1118,1532133287167530768,base_link,0.0347742130476,0.044246128004,-0.732246980269,-0.678710095807,1.0,0.0,0.0,0.0,1.0,0.0,0.0,0.0,1.0,0.182912126184,0.102288544178,0.00596159463748,1.21846967915e-07,0.0,0.0,0.0,1.21846967915e-07,0.0,0.0,0.0,1.21846967915e-07,1.40235095,0.42168595,6.83523505,9e-08,0.0,0.0,0.0,9e-08,0.0,0.0,0.0,9e-08
1532133287578433808,1119,1532133287578027600,base_link,0.0382949013035,0.0315309277971,-0.740553535506,-0.670163981557,1.0,0.0,0.0,0.0,1.0,0.0,0.0,0.0,1.0,0.0713596567512,0.0120597342029,0.101290553808,1.21846967915e-07,0.0,0.0,0.0,1.21846967915e-07,0.0,0.0,0.0,1.21846967915e-07,1.95152335,0.2941995,9.7478101,9e-08,0.0,0.0,0.0,9e-08,0.0,0.0,0.0,9e-08
1532133288032613936,1120,1532133288031599792,base_link,0.00137467316607,0.00538887786653,-0.756248336614,-0.654261051597,1.0,0.0,0.0,0.0,1.0,0.0,0.0,0.0,1.0,0.5464220047,-0.0701605305076,0.00117298401892,1.21846967915e-07,0.0,0.0,0.0,1.21846967915e-07,0.0,0.0,0.0,1.21846967915e-07,2.0201699,0.14709975,10.0223963,9e-08,0.0,0.0,0.0,9e-08,0.0,0.0,0.0,9e-08
1532133288503842640,1121,1532133288503470960,base_link,-0.0620669574914,-0.037325222985,-0.759483598411,-0.646482160822,1.0,0.0,0.0,0.0,1.0,0.0,0.0,0.0,1.0,0.0683319270611,-0.0640784949064,-0.00771279772744,1.21846967915e-07,0.0,0.0,0.0,1.21846967915e-07,0.0,0.0,0.0,1.21846967915e-07,1.4121576,1.0591182,10.64021525,9e-08,0.0,0.0,0.0,9e-08,0.0,0.0,0.0,9e-08
1532133288926420176,1122,1532133288926096304,base_link,-0.0844446224228,-0.0416409593269,-0.747991680177,-0.656995877184,1.0,0.0,0.0,0.0,1.0,0.0,0.0,0.0,1.0,0.141929626465,-0.0740750208497,-0.123599790037,1.21846967915e-07,0.0,0.0,0.0,1.21846967915e-07,0.0,0.0,0.0,1.21846967915e-07,1.3925443,0.18632635,10.198916,9e-08,0.0,0.0,0.0,9e-08,0.0,0.0,0.0,9e-08
1532133289160809744,1123,1532133289159235280,base_link,-0.0895938814356,-0.0339510954646,-0.739529943624,-0.666270006837,1.0,0.0,0.0,0.0,1.0,0.0,0.0,0.0,1.0,-0.144043490291,-0.0671685039997,-0.0800169333816,1.21846967915e-07,0.0,0.0,0.0,1.21846967915e-07,0.0,0.0,0.0,1.21846967915e-07,1.26505785,0.30400615,11.4541672,9e-08,0.0,0.0,0.0,9e-08,0.0,0.0,0.0,9e-08
1532133289460621616,1124,1532133289460246192,base_link,-0.0819545798519,-0.00731607802112,-0.732039130728,-0.676275559907,1.0,0.0,0.0,0.0,1.0,0.0,0.0,0.0,1.0,-0.199737757444,-0.0308933258057,-0.0888339728117,1.21846967915e-07,0.0,0.0,0.0,1.21846967915e-07,0.0,0.0,0.0,1.21846967915e-07,1.20621795,1.0198916,11.50320045,9e-08,0.0,0.0,0.0,9e-08,0.0,0.0,0.0,9e-08
1532133289741884656,1125,1532133289741538480,base_link,-0.0695444798532,0.0108241017498,-0.723465409448,-0.686763573201,1.0,0.0,0.0,0.0,1.0,0.0,0.0,0.0,1.0,-0.26531213522,-0.0216895397753,-0.034702822566,1.21846967915e-07,0.0,0.0,0.0,1.21846967915e-07,0.0,0.0,0.0,1.21846967915e-07,0.9218251,0.1765197,10.4146623,9e-08,0.0,0.0,0.0,9e-08,0.0,0.0,0.0,9e-08
1532133290084090832,1126,1532133290082968176,base_link,-0.069149632358,0.0134167690429,-0.723407919022,-0.68681824477,1.0,0.0,0.0,0.0,1.0,0.0,0.0,0.0,1.0,0.0703792944551,-0.0227548182011,0.00593588361517,1.21846967915e-07,0.0,0.0,0.0,1.21846967915e-07,0.0,0.0,0.0,1.21846967915e-07,1.1179581,0.36284605,10.002783,9e-08,0.0,0.0,0.0,9e-08,0.0,0.0,0.0,9e-08
1532133290637205488,1127,1532133290636910000,base_link,-0.0495151899031,0.0253200520091,-0.721982241822,-0.689672953963,1.0,0.0,0.0,0.0,1.0,0.0,0.0,0.0,1.0,-0.037715755403,0.0330546051264,-0.0338880158961,1.21846967915e-07,0.0,0.0,0.0,1.21846967915e-07,0.0,0.0,0.0,1.21846967915e-07,1.0395049,0.6472389,9.71839015,9e-08,0.0,0.0,0.0,9e-08,0.0,0.0,0.0,9e-08
1532133290906984464,1128,1532133290905937712,base_link,-0.0492608056965,0.0164997204245,-0.71853804036,-0.69354467542,1.0,0.0,0.0,0.0,1.0,0.0,0.0,0.0,1.0,0.129354849458,0.0412786453962,-0.0758876502514,1.21846967915e-07,0.0,0.0,0.0,1.21846967915e-07,0.0,0.0,0.0,1.21846967915e-07,0.8433719,0.75511205,9.1594111,9e-08,0.0,0.0,0.0,9e-08,0.0,0.0,0.0,9e-08
1532133291407744944,1129,1532133291406982768,base_link,-0.074039215569,-0.0175005847244,-0.709824888132,-0.700257489986,1.0,0.0,0.0,0.0,1.0,0.0,0.0,0.0,1.0,0.130357682705,0.00221033161506,0.00773536879569,1.21846967915e-07,0.0,0.0,0.0,1.21846967915e-07,0.0,0.0,0.0,1.21846967915e-07,0.93163175,0.2941995,8.2768126,9e-08,0.0,0.0,0.0,9e-08,0.0,0.0,0.0,9e-08
1532133291778160144,1130,1532133291777758064,base_link,-0.0646500237362,-0.0146604744985,-0.713856555993,-0.697147231498,1.0,0.0,0.0,0.0,1.0,0.0,0.0,0.0,1.0,-0.164337173104,0.039665967226,-0.0126129724085,1.21846967915e-07,0.0,0.0,0.0,1.21846967915e-07,0.0,0.0,0.0,1.21846967915e-07,1.2748645,0.9414384,8.9828914,9e-08,0.0,0.0,0.0,9e-08,0.0,0.0,0.0,9e-08
1532133292125155696,1131,1532133292124945680,base_link,-0.0512723770224,-0.0120907370694,-0.706192298042,-0.706057643268,1.0,0.0,0.0,0.0,1.0,0.0,0.0,0.0,1.0,-0.102940782905,-0.0108787436038,-0.0914682000875,1.21846967915e-07,0.0,0.0,0.0,1.21846967915e-07,0.0,0.0,0.0,1.21846967915e-07,1.4121576,0.4118793,9.85568325,9e-08,0.0,0.0,0.0,9e-08,0.0,0.0,0.0,9e-08
1532133292557044880,1132,1532133292556618928,base_link,-0.0798895171868,-0.0377713173173,-0.691256637282,-0.717185648243,1.0,0.0,0.0,0.0,1.0,0.0,0.0,0.0,1.0,0.377661257982,-0.0219941996038,-0.0834305360913,1.21846967915e-07,0.0,0.0,0.0,1.21846967915e-07,0.0,0.0,0.0,1.21846967915e-07,0.95124505,0.32361945,9.3751574,9e-08,0.0,0.0,0.0,9e-08,0.0,0.0,0.0,9e-08
1532133292903881168,1133,1532133292903652976,base_link,-0.139365643639,-0.0862332233664,-0.675605866671,-0.718816917915,1.0,0.0,0.0,0.0,1.0,0.0,0.0,0.0,1.0,0.517493844032,-0.074624106288,-0.151915177703,1.21846967915e-07,0.0,0.0,0.0,1.21846967915e-07,0.0,0.0,0.0,1.21846967915e-07,0.4118793,1.0002783,9.1397978,9e-08,0.0,0.0,0.0,9e-08,0.0,0.0,0.0,9e-08
1532133293484366832,1134,1532133293483814512,base_link,-0.198598638087,-0.107810115279,-0.628259134391,-0.744463578725,1.0,0.0,0.0,0.0,1.0,0.0,0.0,0.0,1.0,-0.0901051536202,-0.114379107952,-0.172856390476,1.21846967915e-07,0.0,0.0,0.0,1.21846967915e-07,0.0,0.0,0.0,1.21846967915e-07,0.61781895,0.91201845,11.1991943,9e-08,0.0,0.0,0.0,9e-08,0.0,0.0,0.0,9e-08
1532133293833361072,1135,1532133293832455792,base_link,-0.228088081683,-0.117931173808,-0.592305262716,-0.763703175977,1.0,0.0,0.0,0.0,1.0,0.0,0.0,0.0,1.0,0.325887590647,-0.121258459985,-0.271921932697,1.21846967915e-07,0.0,0.0,0.0,1.21846967915e-07,0.0,0.0,0.0,1.21846967915e-07,0.53936575,0.83356525,10.09104285,9e-08,0.0,0.0,0.0,9e-08,0.0,0.0,0.0,9e-08
1532133294303534832,1136,1532133294301911152,base_link,-0.288287608322,-0.145999021889,-0.52069486078,-0.790222375318,1.0,0.0,0.0,0.0,1.0,0.0,0.0,0.0,1.0,0.246477589011,-0.173687905073,-0.351009875536,1.21846967915e-07,0.0,0.0,0.0,1.21846967915e-07,0.0,0.0,0.0,1.21846967915e-07,0.99047165,0.8041453,10.22833595,9e-08,0.0,0.0,0.0,9e-08,0.0,0.0,0.0,9e-08
1532133294673129392,1137,1532133294671950448,base_link,-0.318954540011,-0.145287102025,-0.443934374112,-0.824670801516,1.0,0.0,0.0,0.0,1.0,0.0,0.0,0.0,1.0,0.0521052256227,-0.266558945179,-0.357615053654,1.21846967915e-07,0.0,0.0,0.0,1.21846967915e-07,0.0,0.0,0.0,1.21846967915e-07,1.2552512,0.392266,10.1400761,9e-08,0.0,0.0,0.0,9e-08,0.0,0.0,0.0,9e-08
1532133294992362896,1138,1532133294991131888,base_link,-0.34408128368,-0.132282164124,-0.381129301482,-0.847850195982,1.0,0.0,0.0,0.0,1.0,0.0,0.0,0.0,1.0,0.00667162518948,-0.341389894485,-0.385320544243,1.21846967915e-07,0.0,0.0,0.0,1.21846967915e-07,0.0,0.0,0.0,1.21846967915e-07,1.34351105,1.44157755,13.52337035,9e-08,0.0,0.0,0.0,9e-08,0.0,0.0,0.0,9e-08
1532133295521644592,1139,1532133295521402160,base_link,-0.419785182001,-0.0754942537995,-0.255417918351,-0.867665088384,1.0,0.0,0.0,0.0,1.0,0.0,0.0,0.0,1.0,-0.108062542975,-0.506649196148,-0.229848906398,1.21846967915e-07,0.0,0.0,0.0,1.21846967915e-07,0.0,0.0,0.0,1.21846967915e-07,1.26505785,1.53964405,16.44575205,9e-08,0.0,0.0,0.0,9e-08,0.0,0.0,0.0,9e-08
1532133295991923472,1140,1532133295985954768,base_link,-0.415901458115,-0.021072297649,-0.131669046501,-0.8995805676,1.0,0.0,0.0,0.0,1.0,0.0,0.0,0.0,1.0,-0.132122710347,-0.396688133478,-0.504334390163,1.21846967915e-07,0.0,0.0,0.0,1.21846967915e-07,0.0,0.0,0.0,1.21846967915e-07,1.34351105,1.24544455,16.54381855,9e-08,0.0,0.0,0.0,9e-08,0.0,0.0,0.0,9e-08
1532133296338698032,1141,1532133296338458608,base_link,-0.362003110147,0.0271394334227,-0.0353138777454,-0.931112307639,1.0,0.0,0.0,0.0,1.0,0.0,0.0,0.0,1.0,-0.462421238422,-0.440744251013,-0.288458585739,1.21846967915e-07,0.0,0.0,0.0,1.21846967915e-07,0.0,0.0,0.0,1.21846967915e-07,0.44129925,0.50013915,14.2588691,9e-08,0.0,0.0,0.0,9e-08,0.0,0.0,0.0,9e-08
1532133296736882096,1142,1532133296736635760,base_link,-0.268829942303,0.0863649112053,0.039819005165,-0.958481095829,1.0,0.0,0.0,0.0,1.0,0.0,0.0,0.0,1.0,-0.696768820286,-0.280480891466,-0.154450342059,1.21846967915e-07,0.0,0.0,0.0,1.21846967915e-07,0.0,0.0,0.0,1.21846967915e-07,0.53936575,0.5491724,12.91535805,9e-08,0.0,0.0,0.0,9e-08,0.0,0.0,0.0,9e-08
1532133297125441648,1143,1532133297124559824,base_link,-0.135023536037,0.0922913473964,0.0940775113732,-0.982038886076,1.0,0.0,0.0,0.0,1.0,0.0,0.0,0.0,1.0,-0.656199812889,-0.058361466974,-0.179160133004,1.21846967915e-07,0.0,0.0,0.0,1.21846967915e-07,0.0,0.0,0.0,1.21846967915e-07,0.08825985,0.28439285,10.0420096,9e-08,0.0,0.0,0.0,9e-08,0.0,0.0,0.0,9e-08
1532133297550501232,1144,1532133297550218544,base_link,-0.0178781059618,0.0781903483412,0.127713208587,-0.988562582291,1.0,0.0,0.0,0.0,1.0,0.0,0.0,0.0,1.0,-0.602191567421,0.0643210560083,-0.0433902665973,1.21846967915e-07,0.0,0.0,0.0,1.21846967915e-07,0.0,0.0,0.0,1.21846967915e-07,0.3726527,0.73549875,9.3555441,9e-08,0.0,0.0,0.0,9e-08,0.0,0.0,0.0,9e-08
1532133297908769360,1145,1532133297908453904,base_link,0.0746217890155,0.0487280252025,0.146771772799,-0.98514730618,1.0,0.0,0.0,0.0,1.0,0.0,0.0,0.0,1.0,-0.430741459131,0.110833115876,-0.0810516998172,1.21846967915e-07,0.0,0.0,0.0,1.21846967915e-07,0.0,0.0,0.0,1.21846967915e-07,0.71588545,0.44129925,9.40457735,9e-08,0.0,0.0,0.0,9e-08,0.0,0.0,0.0,9e-08
1532133298309316496,1146,1532133298307999088,base_link,0.0983277549794,0.0291394276689,0.147523870644,-0.983727225376,1.0,0.0,0.0,0.0,1.0,0.0,0.0,0.0,1.0,-0.0356766022742,0.063189432025,0.0984049290419,1.21846967915e-07,0.0,0.0,0.0,1.21846967915e-07,0.0,0.0,0.0,1.21846967915e-07,0.6080123,0.1765197,8.14932615,9e-08,0.0,0.0,0.0,9e-08,0.0,0.0,0.0,9e-08
1532133298683574320,1147,1532133298683207280,base_link,0.0889394483795,0.016288461193,0.129963887682,-0.9873873852,1.0,0.0,0.0,0.0,1.0,0.0,0.0,0.0,1.0,0.168744251132,0.0942969545722,0.0989932864904,1.21846967915e-07,0.0,0.0,0.0,1.21846967915e-07,0.0,0.0,0.0,1.21846967915e-07,0.42168595,0.2745862,7.24711435,9e-08,0.0,0.0,0.0,9e-08,0.0,0.0,0.0,9e-08
1532133299197238320,1148,1532133299195595216,base_link,0.0358750126104,-0.0024070488377,0.0867890300661,-0.995577648326,1.0,0.0,0.0,0.0,1.0,0.0,0.0,0.0,1.0,0.308467179537,0.0698163509369,0.216657534242,1.21846967915e-07,0.0,0.0,0.0,1.21846967915e-07,0.0,0.0,0.0,1.21846967915e-07,0.50013915,0.3726527,7.38440745,9e-08,0.0,0.0,0.0,9e-08,0.0,0.0,0.0,9e-08
1532133299639983600,1149,1532133299636095728,base_link,0.0105618333957,-0.0138674051116,0.0524106575153,-0.998473467714,1.0,0.0,0.0,0.0,1.0,0.0,0.0,0.0,1.0,-0.0554339326918,0.0573548004031,0.12898722291,1.21846967915e-07,0.0,0.0,0.0,1.21846967915e-07,0.0,0.0,0.0,1.21846967915e-07,1.1571847,0.34323275,9.87529655,9e-08,0.0,0.0,0.0,9e-08,0.0,0.0,0.0,9e-08
1532133300052941520,1150,1532133300051328240,base_link,0.0367379672357,-0.022039144198,0.0376537677118,-0.998372070755,1.0,0.0,0.0,0.0,1.0,0.0,0.0,0.0,1.0,0.104069113731,0.0704425871372,-0.00424600671977,1.21846967915e-07,0.0,0.0,0.0,1.21846967915e-07,0.0,0.0,0.0,1.21846967915e-07,0.6276256,0.7453054,9.8458766,9e-08,0.0,0.0,0.0,9e-08,0.0,0.0,0.0,9e-08
1532133300507870544,1151,1532133300507507152,base_link,-0.0164093883706,-0.0234138920846,0.0637370818052,-0.997557069061,1.0,0.0,0.0,0.0,1.0,0.0,0.0,0.0,1.0,0.213440045714,-0.0369111858308,-0.147890076041,1.21846967915e-07,0.0,0.0,0.0,1.21846967915e-07,0.0,0.0,0.0,1.21846967915e-07,0.12748645,0.5099458,7.8060934,9e-08,0.0,0.0,0.0,9e-08,0.0,0.0,0.0,9e-08
1532133300852053360,1152,1532133300850769136,base_link,-0.0399884880541,-0.0102783462687,0.0874913667409,-0.995309267096,1.0,0.0,0.0,0.0,1.0,0.0,0.0,0.0,1.0,0.157738387585,-0.0526490211487,-0.10278301686,1.21846967915e-07,0.0,0.0,0.0,1.21846967915e-07,0.0,0.0,0.0,1.21846967915e-07,0.2549729,0.20593965,10.40485565,9e-08,0.0,0.0,0.0,9e-08,0.0,0.0,0.0,9e-08
1532133301278623824,1153,1532133301276242384,base_link,-0.0659324656557,0.00852579495359,0.0930370886203,-0.993440647917,1.0,0.0,0.0,0.0,1.0,0.0,0.0,0.0,1.0,0.050842769444,-0.0700584426522,0.0036076803226,1.21846967915e-07,0.0,0.0,0.0,1.21846967915e-07,0.0,0.0,0.0,1.21846967915e-07,0.0196133,0.22555295,9.1397978,9e-08,0.0,0.0,0.0,9e-08,0.0,0.0,0.0,9e-08
1532133301668494992,1154,1532133301668167344,base_link,-0.0381008633502,0.0201485843709,0.0942759068434,-0.994612694544,1.0,0.0,0.0,0.0,1.0,0.0,0.0,0.0,1.0,-0.199974969029,-0.0514289066195,-0.0648925080895,1.21846967915e-07,0.0,0.0,0.0,1.21846967915e-07,0.0,0.0,0.0,1.21846967915e-07,0.3530394,0.6668522,10.79712165,9e-08,0.0,0.0,0.0,9e-08,0.0,0.0,0.0,9e-08
1532133302051802384,1155,1532133302051250512,base_link,-0.0330526737968,0.0237600977767,0.108093235668,-0.993307017448,1.0,0.0,0.0,0.0,1.0,0.0,0.0,0.0,1.0,0.00934812892228,-0.0295948199928,-0.0452155210078,1.21846967915e-07,0.0,0.0,0.0,1.21846967915e-07,0.0,0.0,0.0,1.21846967915e-07,0.3530394,0.4314926,10.46369555,9e-08,0.0,0.0,0.0,9e-08,0.0,0.0,0.0,9e-08
1532133302384370960,1156,1532133302383669360,base_link,-0.0375984082953,0.0326273103587,0.109216329478,-0.992770674269,1.0,0.0,0.0,0.0,1.0,0.0,0.0,0.0,1.0,0.0567032136023,-0.0538711361587,0.042177837342,1.21846967915e-07,0.0,0.0,0.0,1.21846967915e-07,0.0,0.0,0.0,1.21846967915e-07,0.5099458,0.1176798,12.17005265,9e-08,0.0,0.0,0.0,9e-08,0.0,0.0,0.0,9e-08
1532133302722330608,1157,1532133302721630832,base_link,-0.0286888228772,0.0385526513578,0.0928640220759,-0.994518435183,1.0,0.0,0.0,0.0,1.0,0.0,0.0,0.0,1.0,-0.0607762485743,-0.00519755948335,0.106037385762,1.21846967915e-07,0.0,0.0,0.0,1.21846967915e-07,0.0,0.0,0.0,1.21846967915e-07,0.50013915,0.3334261,10.5715687,9e-08,0.0,0.0,0.0,9e-08,0.0,0.0,0.0,9e-08
1532133303211672752,1158,1532133303211070128,base_link,-0.017275739437,0.0269532585578,0.0990365434233,-0.994568667185,1.0,0.0,0.0,0.0,1.0,0.0,0.0,0.0,1.0,-0.273267686367,0.0547358617187,-0.111748062074,1.21846967915e-07,0.0,0.0,0.0,1.21846967915e-07,0.0,0.0,0.0,1.21846967915e-07,0.2157463,0.50013915,7.32556755,9e-08,0.0,0.0,0.0,9e-08,0.0,0.0,0.0,9e-08
1532133303597625840,1159,1532133303594428464,base_link,0.0406352399494,0.0155403925098,0.110201038766,-0.992956698215,1.0,0.0,0.0,0.0,1.0,0.0,0.0,0.0,1.0,-0.222168236971,0.0148262698203,0.0323298312724,1.21846967915e-07,0.0,0.0,0.0,1.21846967915e-07,0.0,0.0,0.0,1.21846967915e-07,0.69627215,-0.00980665,9.95374975,9e-08,0.0,0.0,0.0,9e-08,0.0,0.0,0.0,9e-08
1532133303878198480,1160,1532133303876175856,base_link,0.04054497722,0.0127702507455,0.0980210720507,-0.994276065765,1.0,0.0,0.0,0.0,1.0,0.0,0.0,0.0,1.0,0.109482705593,-0.00248309969902,0.103349812329,1.21846967915e-07,0.0,0.0,0.0,1.21846967915e-07,0.0,0.0,0.0,1.21846967915e-07,0.81395195,0.2549729,10.11065615,9e-08,0.0,0.0,0.0,9e-08,0.0,0.0,0.0,9e-08
1532133304236731216,1161,1532133304236481968,base_link,0.0250363111683,0.0106897744683,0.0806103288287,-0.996373868952,1.0,0.0,0.0,0.0,1.0,0.0,0.0,0.0,1.0,0.283420115709,0.0109074013308,0.122446477413,1.21846967915e-07,0.0,0.0,0.0,1.21846967915e-07,0.0,0.0,0.0,1.21846967915e-07,0.63743225,0.0392266,9.87529655,9e-08,0.0,0.0,0.0,9e-08,0.0,0.0,0.0,9e-08
1532133304728820720,1162,1532133304728478032,base_link,-0.0284872004993,0.00565017355025,0.0662979119965,-0.997377131185,1.0,0.0,0.0,0.0,1.0,0.0,0.0,0.0,1.0,0.237451612949,0.078164935112,-0.0943248048425,1.21846967915e-07,0.0,0.0,0.0,1.21846967915e-07,0.0,0.0,0.0,1.21846967915e-07,0.38245935,0.79433865,9.1201845,9e-08,0.0,0.0,0.0,9e-08,0.0,0.0,0.0,9e-08
1532133305196308176,1163,1532133305195980944,base_link,-0.09859749751,-0.0023702800699,0.113725749816,-0.988604758782,1.0,0.0,0.0,0.0,1.0,0.0,0.0,0.0,1.0,0.397608399391,0.00092407502234,-0.14430642128,1.21846967915e-07,0.0,0.0,0.0,1.21846967915e-07,0.0,0.0,0.0,1.21846967915e-07,0.61781895,-0.0588399,12.62115855,9e-08,0.0,0.0,0.0,9e-08,0.0,0.0,0.0,9e-08
1532133305644010192,1164,1532133305643803024,base_link,-0.0734828249506,-0.0105144319105,0.118374369588,-0.990190501764,1.0,0.0,0.0,0.0,1.0,0.0,0.0,0.0,1.0,-0.335276573896,0.0836589932442,-0.12156123668,1.21846967915e-07,0.0,0.0,0.0,1.21846967915e-07,0.0,0.0,0.0,1.21846967915e-07,0.3334261,0.91201845,8.0806796,9e-08,0.0,0.0,0.0,9e-08,0.0,0.0,0.0,9e-08
1532133306095924560,1165,1532133306095551600,base_link,-0.0673865102899,-0.0217192244108,0.156264774731,-0.985174428058,1.0,0.0,0.0,0.0,1.0,0.0,0.0,0.0,1.0,-0.0253353230655,-0.00839546974748,-0.125802397728,1.21846967915e-07,0.0,0.0,0.0,1.21846967915e-07,0.0,0.0,0.0,1.21846967915e-07,0.4707192,0.26477955,8.0806796,9e-08,0.0,0.0,0.0,9e-08,0.0,0.0,0.0,9e-08
1532133306580165456,1166,1532133306577398320,base_link,-0.0420458413507,-0.013713535656,0.164757591888,-0.985342083786,1.0,0.0,0.0,0.0,1.0,0.0,0.0,0.0,1.0,-0.251128166914,-0.0428702011704,0.0178965032101,1.21846967915e-07,0.0,0.0,0.0,1.21846967915e-07,0.0,0.0,0.0,1.21846967915e-07,1.06892485,0.392266,10.0812362,9e-08,0.0,0.0,0.0,9e-08,0.0,0.0,0.0,9e-08
1532133307104318768,1167,1532133307103730608,base_link,-0.0434141482325,0.00246939636173,0.160040769597,-0.986152151487,1.0,0.0,0.0,0.0,1.0,0.0,0.0,0.0,1.0,0.0714407488704,-0.0744486376643,0.0052791852504,1.21846967915e-07,0.0,0.0,0.0,1.21846967915e-07,0.0,0.0,0.0,1.21846967915e-07,0.63743225,0.48052585,9.38496405,9e-08,0.0,0.0,0.0,9e-08,0.0,0.0,0.0,9e-08
1532133307479541232,1168,1532133307478608144,base_link,-0.0122311653135,0.0116548737805,0.157657439852,-0.987349327326,1.0,0.0,0.0,0.0,1.0,0.0,0.0,0.0,1.0,-0.204505160451,-0.0569460019469,-0.021813839674,1.21846967915e-07,0.0,0.0,0.0,1.21846967915e-07,0.0,0.0,0.0,1.21846967915e-07,0.93163175,0.57859235,11.2776475,9e-08,0.0,0.0,0.0,9e-08,0.0,0.0,0.0,9e-08
1532133307878354512,1169,1532133307877634768,base_link,0.0156022022973,0.023122259098,0.157623022633,-0.987105321206,1.0,0.0,0.0,0.0,1.0,0.0,0.0,0.0,1.0,-0.14754140377,-0.10819388926,0.00525427889079,1.21846967915e-07,0.0,0.0,0.0,1.21846967915e-07,0.0,0.0,0.0,1.21846967915e-07,0.97085835,0.26477955,11.5914603,9e-08,0.0,0.0,0.0,9e-08,0.0,0.0,0.0,9e-08
1532133308335707920,1170,1532133308335495536,base_link,0.0481785705102,0.0314361804356,0.151120180889,-0.986840049264,1.0,0.0,0.0,0.0,1.0,0.0,0.0,0.0,1.0,-0.0692588314414,-0.0337500050664,0.0230128187686,1.21846967915e-07,0.0,0.0,0.0,1.21846967915e-07,0.0,0.0,0.0,1.21846967915e-07,0.81395195,0.14709975,9.7085835,9e-08,0.0,0.0,0.0,9e-08,0.0,0.0,0.0,9e-08
1532133308744966512,1171,1532133308744712560,base_link,0.0420560522343,0.0403491270657,0.138377450624,-0.988663197239,1.0,0.0,0.0,0.0,1.0,0.0,0.0,0.0,1.0,-0.111581109464,-0.036683395505,0.0968754515052,1.21846967915e-07,0.0,0.0,0.0,1.21846967915e-07,0.0,0.0,0.0,1.21846967915e-07,1.02969825,0.1569064,11.375714,9e-08,0.0,0.0,0.0,9e-08,0.0,0.0,0.0,9e-08
1532133309096080080,1172,1532133309095292624,base_link,0.0412897862767,0.0407378789927,0.114174339063,-0.991766000155,1.0,0.0,0.0,0.0,1.0,0.0,0.0,0.0,1.0,0.12213537097,0.0296955108643,0.14609734714,1.21846967915e-07,0.0,0.0,0.0,1.21846967915e-07,0.0,0.0,0.0,1.21846967915e-07,1.14737805,0.0980665,9.91452315,9e-08,0.0,0.0,0.0,9e-08,0.0,0.0,0.0,9e-08
1532133309375024144,1173,1532133309374753360,base_link,0.0238714776673,0.0428159201146,0.0952541152847,-0.994245242915,1.0,0.0,0.0,0.0,1.0,0.0,0.0,0.0,1.0,0.145227253437,0.000553584657609,0.058718342334,1.21846967915e-07,0.0,0.0,0.0,1.21846967915e-07,0.0,0.0,0.0,1.21846967915e-07,1.3337044,0.4314926,11.6110736,9e-08,0.0,0.0,0.0,9e-08,0.0,0.0,0.0,9e-08
1532133309858817808,1174,1532133309857946576,base_link,-0.0486927587459,0.0399311426583,0.0900842037849,-0.993941323882,1.0,0.0,0.0,0.0,1.0,0.0,0.0,0.0,1.0,0.0870871096849,0.0456679984927,-0.0184165090322,1.21846967915e-07,0.0,0.0,0.0,1.21846967915e-07,0.0,0.0,0.0,1.21846967915e-07,0.97085835,0.38245935,8.4729456,9e-08,0.0,0.0,0.0,9e-08,0.0,0.0,0.0,9e-08
1532133310240858864,1175,1532133310240063984,base_link,-0.0702686234726,0.0308925425416,0.0954935959196,-0.992466092372,1.0,0.0,0.0,0.0,1.0,0.0,0.0,0.0,1.0,0.188158065081,0.0896780192852,-0.0442773960531,1.21846967915e-07,0.0,0.0,0.0,1.21846967915e-07,0.0,0.0,0.0,1.21846967915e-07,0.9610517,0.196133,7.1784678,9e-08,0.0,0.0,0.0,9e-08,0.0,0.0,0.0,9e-08
1532133310596730096,1176,1532133310596148304,base_link,-0.0794440914621,0.0208341742252,0.100786522418,-0.991512304722,1.0,0.0,0.0,0.0,1.0,0.0,0.0,0.0,1.0,-0.0597582124174,0.0721770748496,-0.0248564556241,1.21846967915e-07,0.0,0.0,0.0,1.21846967915e-07,0.0,0.0,0.0,1.21846967915e-07,1.34351105,0.4511059,8.79656505,9e-08,0.0,0.0,0.0,9e-08,0.0,0.0,0.0,9e-08
1532133311080540432,1177,1532133311080024976,base_link,-0.101573070451,0.0151405816786,0.11729830432,-0.987772636769,1.0,0.0,0.0,0.0,1.0,0.0,0.0,0.0,1.0,0.102524034679,-0.0500310435891,-0.0941769182682,1.21846967915e-07,0.0,0.0,0.0,1.21846967915e-07,0.0,0.0,0.0,1.21846967915e-07,0.95124505,0.8433719,10.1400761,9e-08,0.0,0.0,0.0,9e-08,0.0,0.0,0.0,9e-08
1532133311390950256,1178,1532133311390640592,base_link,-0.0962073030517,0.0202183074568,0.125199877751,-0.98724888731,1.0,0.0,0.0,0.0,1.0,0.0,0.0,0.0,1.0,0.0155190099031,-0.0731530189514,0.00879056751728,1.21846967915e-07,0.0,0.0,0.0,1.21846967915e-07,0.0,0.0,0.0,1.21846967915e-07,0.6668522,0.30400615,9.8262633,9e-08,0.0,0.0,0.0,9e-08,0.0,0.0,0.0,9e-08
1532133311835591952,1179,1532133311835365520,base_link,-0.0717024170389,0.0347231873698,0.127835158715,-0.988590529919,1.0,0.0,0.0,0.0,1.0,0.0,0.0,0.0,1.0,-0.257146447897,-0.0826660841703,-0.0137835107744,1.21846967915e-07,0.0,0.0,0.0,1.21846967915e-07,0.0,0.0,0.0,1.21846967915e-07,0.9022118,0.392266,11.20900095,9e-08,0.0,0.0,0.0,9e-08,0.0,0.0,0.0,9e-08
1532133312303800144,1180,1532133312303225616,base_link,-0.00815366883153,0.0324783717525,0.141621903244,-0.989354289208,1.0,0.0,0.0,0.0,1.0,0.0,0.0,0.0,1.0,-0.286550581455,-0.0136038279161,-0.03392553702,1.21846967915e-07,0.0,0.0,0.0,1.21846967915e-07,0.0,0.0,0.0,1.21846967915e-07,0.30400615,0.36284605,10.6107953,9e-08,0.0,0.0,0.0,9e-08,0.0,0.0,0.0,9e-08
1532133312677443728,1181,1532133312677114480,base_link,0.0386711237935,0.0297847893402,0.133404469674,-0.989858908117,1.0,0.0,0.0,0.0,1.0,0.0,0.0,0.0,1.0,-0.0472647622228,-0.0242795087397,0.0920520424843,1.21846967915e-07,0.0,0.0,0.0,1.21846967915e-07,0.0,0.0,0.0,1.21846967915e-07,0.75511205,0.04903325,9.414384,9e-08,0.0,0.0,0.0,9e-08,0.0,0.0,0.0,9e-08
1532133313059805072,1182,1532133313059235536,base_link,0.0381149420118,0.0333543963322,0.116849165939,-0.991857352577,1.0,0.0,0.0,0.0,1.0,0.0,0.0,0.0,1.0,0.122233301401,-0.0450535900891,0.0814592763782,1.21846967915e-07,0.0,0.0,0.0,1.21846967915e-07,0.0,0.0,0.0,1.21846967915e-07,0.7256921,0.46091255,10.34601575,9e-08,0.0,0.0,0.0,9e-08,0.0,0.0,0.0,9e-08
1532133313386358512,1183,1532133313385953968,base_link,0.0063085634265,0.0430833672675,0.0982341441108,-0.994210278776,1.0,0.0,0.0,0.0,1.0,0.0,0.0,0.0,1.0,0.132265999913,-0.00173990800977,0.148210898042,1.21846967915e-07,0.0,0.0,0.0,1.21846967915e-07,0.0,0.0,0.0,1.21846967915e-07,0.9414384,0.38245935,11.1011278,9e-08,0.0,0.0,0.0,9e-08,0.0,0.0,0.0,9e-08
1532133313791858352,1184,1532133313791391472,base_link,0.00635683759574,0.0439378829203,0.0803174122107,-0.995780179736,1.0,0.0,0.0,0.0,1.0,0.0,0.0,0.0,1.0,0.0141930766404,-0.0128361070529,0.0424123629928,1.21846967915e-07,0.0,0.0,0.0,1.21846967915e-07,0.0,0.0,0.0,1.21846967915e-07,0.8433719,0.71588545,11.03248125,9e-08,0.0,0.0,0.0,9e-08,0.0,0.0,0.0,9e-08
1532133314125979024,1185,1532133314121893616,base_link,0.00868628731411,0.0384995063614,0.0852742194872,-0.995575534007,1.0,0.0,0.0,0.0,1.0,0.0,0.0,0.0,1.0,0.147310897708,0.059780061245,-0.100108683109,1.21846967915e-07,0.0,0.0,0.0,1.21846967915e-07,0.0,0.0,0.0,1.21846967915e-07,0.69627215,0.3530394,9.83606995,9e-08,0.0,0.0,0.0,9e-08,0.0,0.0,0.0,9e-08
1532133314546565616,1186,1532133314544218800,base_link,-0.0280614103767,0.0348021359005,0.101339437759,-0.993846913231,1.0,0.0,0.0,0.0,1.0,0.0,0.0,0.0,1.0,0.141006574035,0.0293918028474,-0.04180053249,1.21846967915e-07,0.0,0.0,0.0,1.21846967915e-07,0.0,0.0,0.0,1.21846967915e-07,0.3334261,0.28439285,8.9436648,9e-08,0.0,0.0,0.0,9e-08,0.0,0.0,0.0,9e-08
1532133314900050096,1187,1532133314896662352,base_link,-0.0453465586858,0.0264314723388,0.0982820458394,-0.993773468327,1.0,0.0,0.0,0.0,1.0,0.0,0.0,0.0,1.0,0.212982937694,0.0457838587463,0.0684096962214,1.21846967915e-07,0.0,0.0,0.0,1.21846967915e-07,0.0,0.0,0.0,1.21846967915e-07,0.3334261,0.08825985,7.24711435,9e-08,0.0,0.0,0.0,9e-08,0.0,0.0,0.0,9e-08
1532133315215279568,1188,1532133315213154128,base_link,-0.0419170306574,0.0161281889874,0.0902238461501,-0.994908288058,1.0,0.0,0.0,0.0,1.0,0.0,0.0,0.0,1.0,-0.0484194494784,0.105848632753,-0.00212693540379,1.21846967915e-07,0.0,0.0,0.0,1.21846967915e-07,0.0,0.0,0.0,1.21846967915e-07,0.83356525,0.3726527,7.9629998,9e-08,0.0,0.0,0.0,9e-08,0.0,0.0,0.0,9e-08
1532133315614530992,1189,1532133315614172048,base_link,-0.028955714994,-0.0020904577348,0.0989210146318,-0.994671719423,1.0,0.0,0.0,0.0,1.0,0.0,0.0,0.0,1.0,0.00723924813792,0.0513994432986,-0.0509498156607,1.21846967915e-07,0.0,0.0,0.0,1.21846967915e-07,0.0,0.0,0.0,1.21846967915e-07,0.4707192,0.50013915,9.12999115,9e-08,0.0,0.0,0.0,9e-08,0.0,0.0,0.0,9e-08
1532133315887823280,1190,1532133315887436784,base_link,-0.0306070101904,-0.00473435449994,0.107407451563,-0.993732577791,1.0,0.0,0.0,0.0,1.0,0.0,0.0,0.0,1.0,0.00265784282237,-0.0311319231987,-0.0405476912856,1.21846967915e-07,0.0,0.0,0.0,1.21846967915e-07,0.0,0.0,0.0,1.21846967915e-07,0.65704555,0.0196133,9.7085835,9e-08,0.0,0.0,0.0,9e-08,0.0,0.0,0.0,9e-08
1532133316287247952,1191,1532133316286920144,base_link,-0.0385909236484,0.00405968293641,0.112507473545,-0.992892908618,1.0,0.0,0.0,0.0,1.0,0.0,0.0,0.0,1.0,-0.0670478269458,-0.0486966222525,-0.0262541864067,1.21846967915e-07,0.0,0.0,0.0,1.21846967915e-07,0.0,0.0,0.0,1.21846967915e-07,-0.02941995,0.55897905,9.87529655,9e-08,0.0,0.0,0.0,9e-08,0.0,0.0,0.0,9e-08
1532133316696870832,1192,1532133316696561936,base_link,-0.0662450090303,0.023236315294,0.12264128516,-0.989965043628,1.0,0.0,0.0,0.0,1.0,0.0,0.0,0.0,1.0,0.141383498907,-0.0973389297724,-0.0280796904117,1.21846967915e-07,0.0,0.0,0.0,1.21846967915e-07,0.0,0.0,0.0,1.21846967915e-07,0.3334261,0.30400615,12.28773245,9e-08,0.0,0.0,0.0,9e-08,0.0,0.0,0.0,9e-08
1532133316989449456,1193,1532133316989096880,base_link,-0.0901397838769,0.0361019696979,0.125710082242,-0.98730362218,1.0,0.0,0.0,0.0,1.0,0.0,0.0,0.0,1.0,0.183068186045,-0.0653406903148,-0.0143829071894,1.21846967915e-07,0.0,0.0,0.0,1.21846967915e-07,0.0,0.0,0.0,1.21846967915e-07,-0.0784532,0.2941995,10.6696352,9e-08,0.0,0.0,0.0,9e-08,0.0,0.0,0.0,9e-08
1532133317335500144,1194,1532133317335125296,base_link,-0.127579554645,0.0481289046416,0.128907162137,-0.982237246964,1.0,0.0,0.0,0.0,1.0,0.0,0.0,0.0,1.0,0.183087795973,-0.0356598906219,-0.0601910464466,1.21846967915e-07,0.0,0.0,0.0,1.21846967915e-07,0.0,0.0,0.0,1.21846967915e-07,0.0980665,0.5687857,9.8458766,9e-08,0.0,0.0,0.0,9e-08,0.0,0.0,0.0,9e-08
1532133317776615280,1195,1532133317776236272,base_link,-0.169433971714,0.0534299667066,0.155422944518,-0.971741259906,1.0,0.0,0.0,0.0,1.0,0.0,0.0,0.0,1.0,0.17880256474,0.0216670203954,-0.172483712435,1.21846967915e-07,0.0,0.0,0.0,1.21846967915e-07,0.0,0.0,0.0,1.21846967915e-07,0.2941995,0.6080123,9.8262633,9e-08,0.0,0.0,0.0,9e-08,0.0,0.0,0.0,9e-08
1532133318164724240,1196,1532133318163787952,base_link,-0.202532600892,0.0473970449472,0.198596674128,-0.957754366595,1.0,0.0,0.0,0.0,1.0,0.0,0.0,0.0,1.0,0.122958362103,-0.0208801105618,-0.285674124956,1.21846967915e-07,0.0,0.0,0.0,1.21846967915e-07,0.0,0.0,0.0,1.21846967915e-07,0.16671305,0.69627215,7.7276402,9e-08,0.0,0.0,0.0,9e-08,0.0,0.0,0.0,9e-08
1532133318613461904,1197,1532133318612771216,base_link,-0.211852477951,0.0493617404606,0.25776816129,-0.941401891431,1.0,0.0,0.0,0.0,1.0,0.0,0.0,0.0,1.0,0.114936098456,-0.103954903781,-0.239978209138,1.21846967915e-07,0.0,0.0,0.0,1.21846967915e-07,0.0,0.0,0.0,1.21846967915e-07,0.3726527,0.55897905,10.34601575,9e-08,0.0,0.0,0.0,9e-08,0.0,0.0,0.0,9e-08
1532133319042058192,1198,1532133319040428400,base_link,-0.241603759402,0.0775113840221,0.316171379001,-0.914141820447,1.0,0.0,0.0,0.0,1.0,0.0,0.0,0.0,1.0,0.187597945333,-0.157132893801,-0.230867862701,1.21846967915e-07,0.0,0.0,0.0,1.21846967915e-07,0.0,0.0,0.0,1.21846967915e-07,0.67665885,0.4314926,12.18966595,9e-08,0.0,0.0,0.0,9e-08,0.0,0.0,0.0,9e-08
1532133319388919856,1199,1532133319388603536,base_link,-0.238885721529,0.0943154877611,0.357552596078,-0.897883256251,1.0,0.0,0.0,0.0,1.0,0.0,0.0,0.0,1.0,-0.0359786525369,-0.135153517127,-0.240594103932,1.21846967915e-07,0.0,0.0,0.0,1.21846967915e-07,0.0,0.0,0.0,1.21846967915e-07,0.2941995,0.75511205,11.7483667,9e-08,0.0,0.0,0.0,9e-08,0.0,0.0,0.0,9e-08
1532133319793270128,1200,1532133319791357232,base_link,-0.23361620179,0.112002136346,0.410797702707,-0.874142001717,1.0,0.0,0.0,0.0,1.0,0.0,0.0,0.0,1.0,-0.0686151459813,-0.138212680817,-0.237827479839,1.21846967915e-07,0.0,0.0,0.0,1.21846967915e-07,0.0,0.0,0.0,1.21846967915e-07,0.1569064,0.7256921,11.11093445,9e-08,0.0,0.0,0.0,9e-08,0.0,0.0,0.0,9e-08
1532133320088276144,1201,1532133320087231280,base_link,-0.205492066463,0.109332597176,0.448959746538,-0.862701883505,1.0,0.0,0.0,0.0,1.0,0.0,0.0,0.0,1.0,-0.263980656862,-0.13922816515,-0.225191533566,1.21846967915e-07,0.0,0.0,0.0,1.21846967915e-07,0.0,0.0,0.0,1.21846967915e-07,0.04903325,0.83356525,10.95402805,9e-08,0.0,0.0,0.0,9e-08,0.0,0.0,0.0,9e-08
1532133320403422480,1202,1532133320402839696,base_link,-0.168432494162,0.100207072322,0.490500729799,-0.849116053101,1.0,0.0,0.0,0.0,1.0,0.0,0.0,0.0,1.0,-0.125253900886,-0.150161266327,-0.239670932293,1.21846967915e-07,0.0,0.0,0.0,1.21846967915e-07,0.0,0.0,0.0,1.21846967915e-07,0.1569064,0.50013915,11.1011278,9e-08,0.0,0.0,0.0,9e-08,0.0,0.0,0.0,9e-08
1532133320831479856,1203,1532133320830775440,base_link,-0.159773826071,0.109082776511,0.530800672557,-0.825120547789,1.0,0.0,0.0,0.0,1.0,0.0,0.0,0.0,1.0,0.0338877774775,-0.0912698432803,-0.166672214866,1.21846967915e-07,0.0,0.0,0.0,1.21846967915e-07,0.0,0.0,0.0,1.21846967915e-07,0.0392266,0.4118793,9.610517,9e-08,0.0,0.0,0.0,9e-08,0.0,0.0,0.0,9e-08
1532133321155087536,1204,1532133321154780400,base_link,-0.14826762217,0.115969545313,0.551446475634,-0.812695860262,1.0,0.0,0.0,0.0,1.0,0.0,0.0,0.0,1.0,-0.0787487626076,-0.110298611224,-0.128917887807,1.21846967915e-07,0.0,0.0,0.0,1.21846967915e-07,0.0,0.0,0.0,1.21846967915e-07,0.16671305,0.44129925,10.14988275,9e-08,0.0,0.0,0.0,9e-08,0.0,0.0,0.0,9e-08
1532133321393440720,1205,1532133321393090512,base_link,-0.135033475623,0.1156583573,0.56962927378,-0.802441022943,1.0,0.0,0.0,0.0,1.0,0.0,0.0,0.0,1.0,-0.201395988464,-0.0919050499797,-0.167452260852,1.21846967915e-07,0.0,0.0,0.0,1.21846967915e-07,0.0,0.0,0.0,1.21846967915e-07,0.0784532,0.69627215,10.13026945,9e-08,0.0,0.0,0.0,9e-08,0.0,0.0,0.0,9e-08
1532133321749810992,1206,1532133321748907760,base_link,-0.111051761468,0.0947399895773,0.606945620366,-0.781222666446,1.0,0.0,0.0,0.0,1.0,0.0,0.0,0.0,1.0,-0.234206482768,0.0214215926826,-0.293165802956,1.21846967915e-07,0.0,0.0,0.0,1.21846967915e-07,0.0,0.0,0.0,1.21846967915e-07,0.0,0.71588545,8.8848249,9e-08,0.0,0.0,0.0,9e-08,0.0,0.0,0.0,9e-08
1532133322187823984,1207,1532133322187510832,base_link,-0.101877167987,0.0829914560417,0.652503386146,-0.746306098016,1.0,0.0,0.0,0.0,1.0,0.0,0.0,0.0,1.0,-0.0191083140671,-0.0801852345467,-0.155109897256,1.21846967915e-07,0.0,0.0,0.0,1.21846967915e-07,0.0,0.0,0.0,1.21846967915e-07,0.20593965,0.1176798,10.73828175,9e-08,0.0,0.0,0.0,9e-08,0.0,0.0,0.0,9e-08
1532133322478127056,1208,1532133322477745264,base_link,-0.0915242417391,0.0876985693975,0.662264028382,-0.738470467121,1.0,0.0,0.0,0.0,1.0,0.0,0.0,0.0,1.0,-0.0207493212074,-0.0767657905817,-0.0811818242073,1.21846967915e-07,0.0,0.0,0.0,1.21846967915e-07,0.0,0.0,0.0,1.21846967915e-07,-0.14709975,0.63743225,10.22833595,9e-08,0.0,0.0,0.0,9e-08,0.0,0.0,0.0,9e-08
1532133322882540144,1209,1532133322882081648,base_link,-0.0226168020012,0.036682720391,0.677737595278,-0.734039924145,1.0,0.0,0.0,0.0,1.0,0.0,0.0,0.0,1.0,-0.422718048096,0.00410478981212,-0.0411568284035,1.21846967915e-07,0.0,0.0,0.0,1.21846967915e-07,0.0,0.0,0.0,1.21846967915e-07,-0.6864655,0.5687857,9.14960445,9e-08,0.0,0.0,0.0,9e-08,0.0,0.0,0.0,9e-08
1532133323330937104,1210,1532133323330321040,base_link,0.00429050430152,0.000899545778836,0.685154393353,-0.728384678353,1.0,0.0,0.0,0.0,1.0,0.0,0.0,0.0,1.0,-0.360076606274,0.0633514672518,-0.0172060374171,1.21846967915e-07,0.0,0.0,0.0,1.21846967915e-07,0.0,0.0,0.0,1.21846967915e-07,-0.6276256,0.2941995,9.5909037,9e-08,0.0,0.0,0.0,9e-08,0.0,0.0,0.0,9e-08
1532133323747193296,1211,1532133323746792720,base_link,0.0465653906702,-0.0625970652066,0.68546327776,-0.723915303514,1.0,0.0,0.0,0.0,1.0,0.0,0.0,0.0,1.0,-0.190310269594,0.123365141451,-0.010311412625,1.21846967915e-07,0.0,0.0,0.0,1.21846967915e-07,0.0,0.0,0.0,1.21846967915e-07,-0.5099458,-0.2549729,9.022118,9e-08,0.0,0.0,0.0,9e-08,0.0,0.0,0.0,9e-08
1532133324138815696,1212,1532133324138527376,base_link,0.0286146790995,-0.0795554659986,0.678882067961,-0.729363603267,1.0,0.0,0.0,0.0,1.0,0.0,0.0,0.0,1.0,0.022312367335,0.128311082721,0.0823063850403,1.21846967915e-07,0.0,0.0,0.0,1.21846967915e-07,0.0,0.0,0.0,1.21846967915e-07,-0.6864655,1.08447433272e-15,8.85540495,9e-08,0.0,0.0,0.0,9e-08,0.0,0.0,0.0,9e-08
1532133324601604912,1213,1532133324601315632,base_link,-0.0114734081449,-0.0807010784579,0.670287100107,-0.737611618856,1.0,0.0,0.0,0.0,1.0,0.0,0.0,0.0,1.0,0.296289980412,0.125700891018,0.0413062050939,1.21846967915e-07,0.0,0.0,0.0,1.21846967915e-07,0.0,0.0,0.0,1.21846967915e-07,-0.6864655,-0.04903325,8.01203305,9e-08,0.0,0.0,0.0,9e-08,0.0,0.0,0.0,9e-08
1532133324923587024,1214,1532133324923198224,base_link,-0.0373602671308,-0.084804890366,0.663635238753,-0.742294153887,1.0,0.0,0.0,0.0,1.0,0.0,0.0,0.0,1.0,-0.147515013814,0.0921177268028,0.0725343450904,1.21846967915e-07,0.0,0.0,0.0,1.21846967915e-07,0.0,0.0,0.0,1.21846967915e-07,-0.69627215,0.34323275,7.649187,9e-08,0.0,0.0,0.0,9e-08,0.0,0.0,0.0,9e-08
1532133325324102064,1215,1532133325323895728,base_link,-0.0188252728882,-0.120055187188,0.654440926083,-0.746283749922,1.0,0.0,0.0,0.0,1.0,0.0,0.0,0.0,1.0,0.00182313192636,0.0208000428975,0.00224523013458,1.21846967915e-07,0.0,0.0,0.0,1.21846967915e-07,0.0,0.0,0.0,1.21846967915e-07,-0.89240515,-0.26477955,8.1199062,9e-08,0.0,0.0,0.0,9e-08,0.0,0.0,0.0,9e-08
1532133325731577392,1216,1532133325730665552,base_link,-0.0624648680188,-0.0768234351051,0.653301528489,-0.750595372325,1.0,0.0,0.0,0.0,1.0,0.0,0.0,0.0,1.0,0.62436157465,-0.0540299341083,0.0890012234449,1.21846967915e-07,0.0,0.0,0.0,1.21846967915e-07,0.0,0.0,0.0,1.21846967915e-07,-0.48052585,-0.0980665,10.5323421,9e-08,0.0,0.0,0.0,9e-08,0.0,0.0,0.0,9e-08
1532133326035614000,1217,1532133326034949456,base_link,-0.0825202189966,-0.0480726353367,0.641037864438,-0.761544412064,1.0,0.0,0.0,0.0,1.0,0.0,0.0,0.0,1.0,-0.250874012709,-0.066360168159,0.105727761984,1.21846967915e-07,0.0,0.0,0.0,1.21846967915e-07,0.0,0.0,0.0,1.21846967915e-07,-0.42168595,0.51975245,10.91480145,9e-08,0.0,0.0,0.0,9e-08,0.0,0.0,0.0,9e-08
1532133326523930544,1218,1532133326523522896,base_link,-0.0392868590981,-0.0779945419542,0.646336393252,-0.758038693528,1.0,0.0,0.0,0.0,1.0,0.0,0.0,0.0,1.0,-0.0573432072997,-0.0186688769609,-0.135218322277,1.21846967915e-07,0.0,0.0,0.0,1.21846967915e-07,0.0,0.0,0.0,1.21846967915e-07,-0.77472535,1.19136050726e-15,9.7281968,9e-08,0.0,0.0,0.0,9e-08,0.0,0.0,0.0,9e-08
1532133326891285872,1219,1532133326890879440,base_link,-0.0515800921942,-0.0558231851536,0.655639222264,-0.751239293646,1.0,0.0,0.0,0.0,1.0,0.0,0.0,0.0,1.0,0.15365383029,-0.065545514226,0.0391707345843,1.21846967915e-07,0.0,0.0,0.0,1.21846967915e-07,0.0,0.0,0.0,1.21846967915e-07,-0.75511205,-0.1765197,9.7870367,9e-08,0.0,0.0,0.0,9e-08,0.0,0.0,0.0,9e-08
1532133327327990064,1220,1532133327326520944,base_link,-0.0393720047324,-0.0529617424404,0.639731529469,-0.765760059864,1.0,0.0,0.0,0.0,1.0,0.0,0.0,0.0,1.0,-0.148973554373,-0.0481369644403,0.130645141006,1.21846967915e-07,0.0,0.0,0.0,1.21846967915e-07,0.0,0.0,0.0,1.21846967915e-07,-0.9414384,0.26477955,11.32668075,9e-08,0.0,0.0,0.0,9e-08,0.0,0.0,0.0,9e-08
1532133327795012784,1221,1532133327794241360,base_link,-0.00400907170198,-0.0703836124366,0.621020272496,-0.780617637255,1.0,0.0,0.0,0.0,1.0,0.0,0.0,0.0,1.0,0.125764787197,-0.0600828416646,-0.00985265802592,1.21846967915e-07,0.0,0.0,0.0,1.21846967915e-07,0.0,0.0,0.0,1.21846967915e-07,-0.85317855,0.42168595,10.03220295,9e-08,0.0,0.0,0.0,9e-08,0.0,0.0,0.0,9e-08
1532133328077732816,1222,1532133328077429552,base_link,-0.0155887370801,-0.0563925948749,0.627778929765,-0.776189720276,1.0,0.0,0.0,0.0,1.0,0.0,0.0,0.0,1.0,0.12250392884,0.0111063485965,-0.0523357540369,1.21846967915e-07,0.0,0.0,0.0,1.21846967915e-07,0.0,0.0,0.0,1.21846967915e-07,-0.95124505,0.2353596,8.69849855,9e-08,0.0,0.0,0.0,9e-08,0.0,0.0,0.0,9e-08
1532133328441517712,1223,1532133328441250000,base_link,-0.0198523663239,-0.0502205695667,0.63186804353,-0.773192442739,1.0,0.0,0.0,0.0,1.0,0.0,0.0,0.0,1.0,-0.0035413634032,-0.00256710220128,-0.0206023324281,1.21846967915e-07,0.0,0.0,0.0,1.21846967915e-07,0.0,0.0,0.0,1.21846967915e-07,-0.91201845,-0.04903325,10.26756255,9e-08,0.0,0.0,0.0,9e-08,0.0,0.0,0.0,9e-08
1532133328884164944,1224,1532133328883576240,base_link,-0.0463758900838,-0.0286941070855,0.630354274199,-0.774389704242,1.0,0.0,0.0,0.0,1.0,0.0,0.0,0.0,1.0,0.277356594801,0.0256624761969,0.0594733469188,1.21846967915e-07,0.0,0.0,0.0,1.21846967915e-07,0.0,0.0,0.0,1.21846967915e-07,-0.8629852,0.2157463,8.7867584,9e-08,0.0,0.0,0.0,9e-08,0.0,0.0,0.0,9e-08
1532133329245338288,1225,1532133329245035888,base_link,-0.0718401192497,-0.0110355425516,0.621928590175,-0.779693556976,1.0,0.0,0.0,0.0,1.0,0.0,0.0,0.0,1.0,0.0644494891167,0.03677771613,0.0530685149133,1.21846967915e-07,0.0,0.0,0.0,1.21846967915e-07,0.0,0.0,0.0,1.21846967915e-07,-0.8433719,0.2549729,9.34573745,9e-08,0.0,0.0,0.0,9e-08,0.0,0.0,0.0,9e-08
1532133329730524112,1226,1532133329728468528,base_link,-0.07244567822,-0.0273746302455,0.624652143508,-0.777053378435,1.0,0.0,0.0,0.0,1.0,0.0,0.0,0.0,1.0,0.00976860709488,0.0569869019091,-0.108764186502,1.21846967915e-07,0.0,0.0,0.0,1.21846967915e-07,0.0,0.0,0.0,1.21846967915e-07,-1.0591182,0.0392266,9.24767095,9e-08,0.0,0.0,0.0,9e-08,0.0,0.0,0.0,9e-08
1532133330051614288,1227,1532133330051369680,base_link,-0.0776809856068,-0.031731995005,0.635036242037,-0.767911268486,1.0,0.0,0.0,0.0,1.0,0.0,0.0,0.0,1.0,0.0305243544281,0.0191045999527,-0.0975621342659,1.21846967915e-07,0.0,0.0,0.0,1.21846967915e-07,0.0,0.0,0.0,1.21846967915e-07,-0.91201845,0.5099458,8.5906254,9e-08,0.0,0.0,0.0,9e-08,0.0,0.0,0.0,9e-08
1532133330508656944,1228,1532133330507556016,base_link,-0.0807155488703,-0.0284009768351,0.653851018184,-0.751769399952,1.0,0.0,0.0,0.0,1.0,0.0,0.0,0.0,1.0,0.0154812354594,-0.0183297228068,-0.061359744519,1.21846967915e-07,0.0,0.0,0.0,1.21846967915e-07,0.0,0.0,0.0,1.21846967915e-07,-0.99047165,-0.04903325,10.03220295,9e-08,0.0,0.0,0.0,9e-08,0.0,0.0,0.0,9e-08
1532133330847174864,1229,1532133330846421232,base_link,-0.0713386421823,-0.0354091957229,0.65726343571,-0.749440967034,1.0,0.0,0.0,0.0,1.0,0.0,0.0,0.0,1.0,0.0193777829409,-0.0190236493945,-0.0493032671511,1.21846967915e-07,0.0,0.0,0.0,1.21846967915e-07,0.0,0.0,0.0,1.21846967915e-07,-1.2356379,1.04364141211e-15,8.52197885,9e-08,0.0,0.0,0.0,9e-08,0.0,0.0,0.0,9e-08
