%time,field.header.seq,field.header.stamp,field.header.frame_id,field.orientation.x,field.orientation.y,field.orientation.z,field.orientation.w,field.orientation_covariance0,field.orientation_covariance1,field.orientation_covariance2,field.orientation_covariance3,field.orientation_covariance4,field.orientation_covariance5,field.orientation_covariance6,field.orientation_covariance7,field.orientation_covariance8,field.angular_velocity.x,field.angular_velocity.y,field.angular_velocity.z,field.angular_velocity_covariance0,field.angular_velocity_covariance1,field.angular_velocity_covariance2,field.angular_velocity_covariance3,field.angular_velocity_covariance4,field.angular_velocity_covariance5,field.angular_velocity_covariance6,field.angular_velocity_covariance7,field.angular_velocity_covariance8,field.linear_acceleration.x,field.linear_acceleration.y,field.linear_acceleration.z,field.linear_acceleration_covariance0,field.linear_acceleration_covariance1,field.linear_acceleration_covariance2,field.linear_acceleration_covariance3,field.linear_acceleration_covariance4,field.linear_acceleration_covariance5,field.linear_acceleration_covariance6,field.linear_acceleration_covariance7,field.linear_acceleration_covariance8
1539875216878673896,451,1539875216876771240,base_link,-0.00434817526056,-0.170218845396,-0.985142921879,0.0223620552561,1.0,0.0,0.0,0.0,1.0,0.0,0.0,0.0,1.0,0.588184475899,-0.0345278643072,-0.0637229457498,1.21846967915e-07,0.0,0.0,0.0,1.21846967915e-07,0.0,0.0,0.0,1.21846967915e-07,0.16671305,0.5099458,9.99297635,9e-08,0.0,0.0,0.0,9e-08,0.0,0.0,0.0,9e-08
1539875217276517544,452,1539875217276233864,base_link,0.00568666702204,-0.297324769943,-0.95465419283,-0.0141779797221,1.0,0.0,0.0,0.0,1.0,0.0,0.0,0.0,1.0,0.3792707026,0.0286193992943,-0.289453685284,1.21846967915e-07,0.0,0.0,0.0,1.21846967915e-07,0.0,0.0,0.0,1.21846967915e-07,-0.5295591,1.67693715,7.7864801,9e-08,0.0,0.0,0.0,9e-08,0.0,0.0,0.0,9e-08
1539875217694344648,453,1539875217694068008,base_link,0.0289922713739,-0.347744974801,-0.931485914493,-0.102795290762,1.0,0.0,0.0,0.0,1.0,0.0,0.0,0.0,1.0,0.299249649048,-0.114112861454,-0.456451296806,1.21846967915e-07,0.0,0.0,0.0,1.21846967915e-07,0.0,0.0,0.0,1.21846967915e-07,-0.6668522,0.77472535,8.73772515,9e-08,0.0,0.0,0.0,9e-08,0.0,0.0,0.0,9e-08
1539875218179656680,454,1539875218179283720,base_link,0.0169265777671,-0.398457541198,-0.898173195594,-0.185013484762,1.0,0.0,0.0,0.0,1.0,0.0,0.0,0.0,1.0,-0.0280947964638,-0.204827964306,-0.234413191676,1.21846967915e-07,0.0,0.0,0.0,1.21846967915e-07,0.0,0.0,0.0,1.21846967915e-07,-0.89240515,0.53936575,10.4931155,9e-08,0.0,0.0,0.0,9e-08,0.0,0.0,0.0,9e-08
1539875218487919112,455,1539875218487643048,base_link,0.00871129291001,-0.362187468921,-0.904172636264,-0.226309952419,1.0,0.0,0.0,0.0,1.0,0.0,0.0,0.0,1.0,-0.515266180038,-0.106847092509,-0.216308116913,1.21846967915e-07,0.0,0.0,0.0,1.21846967915e-07,0.0,0.0,0.0,1.21846967915e-07,-1.2356379,0.4903325,9.9047165,9e-08,0.0,0.0,0.0,9e-08,0.0,0.0,0.0,9e-08
1539875218797336680,456,1539875218797110216,base_link,0.0335558324604,-0.275278493207,-0.926537840535,-0.254211304512,1.0,0.0,0.0,0.0,1.0,0.0,0.0,0.0,1.0,-1.13401150703,0.0441907756031,-0.235982865095,1.21846967915e-07,0.0,0.0,0.0,1.21846967915e-07,0.0,0.0,0.0,1.21846967915e-07,-1.372931,1.44157755,8.6690786,9e-08,0.0,0.0,0.0,9e-08,0.0,0.0,0.0,9e-08
1539875219178123656,457,1539875219176838024,base_link,0.0684665715097,-0.172695145334,-0.938818461488,-0.290014847437,1.0,0.0,0.0,0.0,1.0,0.0,0.0,0.0,1.0,-0.255908787251,-0.010692124255,-0.162194013596,1.21846967915e-07,0.0,0.0,0.0,1.21846967915e-07,0.0,0.0,0.0,1.21846967915e-07,-1.2944778,0.7256921,11.48358715,9e-08,0.0,0.0,0.0,9e-08,0.0,0.0,0.0,9e-08
1539875219532396424,458,1539875219532068904,base_link,0.0700775885133,-0.163972209093,-0.933236973267,-0.311882987611,1.0,0.0,0.0,0.0,1.0,0.0,0.0,0.0,1.0,-0.0699069947004,-0.114774227142,-0.135065987706,1.21846967915e-07,0.0,0.0,0.0,1.21846967915e-07,0.0,0.0,0.0,1.21846967915e-07,-1.48080415,0.7060788,9.2378643,9e-08,0.0,0.0,0.0,9e-08,0.0,0.0,0.0,9e-08
1539875219794707880,459,1539875219794447016,base_link,0.0465505103117,-0.151408890125,-0.931763768481,-0.326687431236,1.0,0.0,0.0,0.0,1.0,0.0,0.0,0.0,1.0,0.0336592383683,-0.201151147485,-0.0664119645953,1.21846967915e-07,0.0,0.0,0.0,1.21846967915e-07,0.0,0.0,0.0,1.21846967915e-07,-0.83356525,0.5295591,12.6309652,9e-08,0.0,0.0,0.0,9e-08,0.0,0.0,0.0,9e-08
1539875220121530280,460,1539875220121038696,base_link,0.010176362449,-0.146948417942,-0.927821662036,-0.342709158863,1.0,0.0,0.0,0.0,1.0,0.0,0.0,0.0,1.0,0.0452222079039,-0.249081417918,-0.0583001114428,1.21846967915e-07,0.0,0.0,0.0,1.21846967915e-07,0.0,0.0,0.0,1.21846967915e-07,-0.2157463,0.55897905,13.7685366,9e-08,0.0,0.0,0.0,9e-08,0.0,0.0,0.0,9e-08
1539875220514870504,461,1539875220514576744,base_link,-0.0232357914012,-0.109183591965,-0.927130805357,-0.357725468763,1.0,0.0,0.0,0.0,1.0,0.0,0.0,0.0,1.0,-0.19753319025,-0.239402085543,-0.0455515570939,1.21846967915e-07,0.0,0.0,0.0,1.21846967915e-07,0.0,0.0,0.0,1.21846967915e-07,0.2549729,0.91201845,13.9450563,9e-08,0.0,0.0,0.0,9e-08,0.0,0.0,0.0,9e-08
1539875220809110120,462,1539875220808874888,base_link,-0.0458018407029,-0.0790500791582,-0.924772147301,-0.36939105559,1.0,0.0,0.0,0.0,1.0,0.0,0.0,0.0,1.0,-0.103358432651,-0.184638395905,-0.0634417012334,1.21846967915e-07,0.0,0.0,0.0,1.21846967915e-07,0.0,0.0,0.0,1.21846967915e-07,0.30400615,0.4707192,13.89602305,9e-08,0.0,0.0,0.0,9e-08,0.0,0.0,0.0,9e-08
1539875221305255016,463,1539875221303472872,base_link,-0.0579542530087,-0.0132871297142,-0.926113139407,-0.372530817196,1.0,0.0,0.0,0.0,1.0,0.0,0.0,0.0,1.0,-0.213706359267,-0.0791975036263,0.0401735194027,1.21846967915e-07,0.0,0.0,0.0,1.21846967915e-07,0.0,0.0,0.0,1.21846967915e-07,0.6472389,0.6472389,11.0815145,9e-08,0.0,0.0,0.0,9e-08,0.0,0.0,0.0,9e-08
1539875221700848872,464,1539875221700115432,base_link,-0.0620476840598,0.0132006335163,-0.929960383703,-0.362145706753,1.0,0.0,0.0,0.0,1.0,0.0,0.0,0.0,1.0,0.0251182280481,0.00906420685351,0.0438642837107,1.21846967915e-07,0.0,0.0,0.0,1.21846967915e-07,0.0,0.0,0.0,1.21846967915e-07,0.4511059,0.91201845,9.40457735,9e-08,0.0,0.0,0.0,9e-08,0.0,0.0,0.0,9e-08
1539875222076311112,465,1539875222075975336,base_link,-0.0649197395992,0.0188661049725,-0.929281186442,-0.363133548462,1.0,0.0,0.0,0.0,1.0,0.0,0.0,0.0,1.0,-0.0653755813837,-0.0227387752384,-0.00733207119629,1.21846967915e-07,0.0,0.0,0.0,1.21846967915e-07,0.0,0.0,0.0,1.21846967915e-07,0.65704555,0.5099458,11.40513395,9e-08,0.0,0.0,0.0,9e-08,0.0,0.0,0.0,9e-08
1539875222500813128,466,1539875222500545544,base_link,-0.0641848600639,0.0124378440753,-0.9301250777,-0.361376456906,1.0,0.0,0.0,0.0,1.0,0.0,0.0,0.0,1.0,-0.00907026510686,0.0911589190364,-0.0325822420418,1.21846967915e-07,0.0,0.0,0.0,1.21846967915e-07,0.0,0.0,0.0,1.21846967915e-07,0.79433865,0.5491724,10.0420096,9e-08,0.0,0.0,0.0,9e-08,0.0,0.0,0.0,9e-08
1539875222984517128,467,1539875222984180808,base_link,-0.0730822329906,-0.0541476193592,-0.925752678568,-0.367027247848,1.0,0.0,0.0,0.0,1.0,0.0,0.0,0.0,1.0,0.386846601963,0.072251111269,0.0242031123489,1.21846967915e-07,0.0,0.0,0.0,1.21846967915e-07,0.0,0.0,0.0,1.21846967915e-07,0.392266,0.14709975,8.3160392,9e-08,0.0,0.0,0.0,9e-08,0.0,0.0,0.0,9e-08
1539875223357649608,468,1539875223357232648,base_link,-0.0889954081565,-0.109052792208,-0.924649260151,-0.353851736665,1.0,0.0,0.0,0.0,1.0,0.0,0.0,0.0,1.0,0.0952160134912,0.0083521399647,0.0978995338082,1.21846967915e-07,0.0,0.0,0.0,1.21846967915e-07,0.0,0.0,0.0,1.21846967915e-07,0.81395195,0.2157463,8.93385815,9e-08,0.0,0.0,0.0,9e-08,0.0,0.0,0.0,9e-08
1539875223647421128,469,1539875223646880904,base_link,-0.0707971904737,-0.060995866497,-0.933460605484,-0.346292593194,1.0,0.0,0.0,0.0,1.0,0.0,0.0,0.0,1.0,-0.444302231073,0.0185233950615,0.0085314931348,1.21846967915e-07,0.0,0.0,0.0,1.21846967915e-07,0.0,0.0,0.0,1.21846967915e-07,0.67665885,1.50041745,9.5320638,9e-08,0.0,0.0,0.0,9e-08,0.0,0.0,0.0,9e-08
1539875224140566408,470,1539875224139984424,base_link,-0.0386730023258,-0.0262372537574,-0.931041651091,-0.361908067526,1.0,0.0,0.0,0.0,1.0,0.0,0.0,0.0,1.0,-0.104677036405,0.0416138730943,-0.0548924207687,1.21846967915e-07,0.0,0.0,0.0,1.21846967915e-07,0.0,0.0,0.0,1.21846967915e-07,0.980665,0.71588545,8.5121722,9e-08,0.0,0.0,0.0,9e-08,0.0,0.0,0.0,9e-08
1539875224436266568,471,1539875224435467496,base_link,-0.0318314319543,-0.0203009794729,-0.929547231267,-0.366765013347,1.0,0.0,0.0,0.0,1.0,0.0,0.0,0.0,1.0,-0.0593215227127,0.00565979303792,-0.00195170007646,1.21846967915e-07,0.0,0.0,0.0,1.21846967915e-07,0.0,0.0,0.0,1.21846967915e-07,1.02969825,0.89240515,10.14988275,9e-08,0.0,0.0,0.0,9e-08,0.0,0.0,0.0,9e-08
1539875224727177512,472,1539875224726622664,base_link,-0.0244867431012,-0.0107579850574,-0.930627016815,-0.36499043925,1.0,0.0,0.0,0.0,1.0,0.0,0.0,0.0,1.0,-0.105391129851,0.000413710164139,0.036543738097,1.21846967915e-07,0.0,0.0,0.0,1.21846967915e-07,0.0,0.0,0.0,1.21846967915e-07,1.0198916,0.28439285,8.5317855,9e-08,0.0,0.0,0.0,9e-08,0.0,0.0,0.0,9e-08
1539875225296879528,473,1539875225296140264,base_link,-0.0235242061195,-0.00260633440181,-0.933987400902,-0.356521182687,1.0,0.0,0.0,0.0,1.0,0.0,0.0,0.0,1.0,0.127594292164,-0.00351333850995,-0.0240823421627,1.21846967915e-07,0.0,0.0,0.0,1.21846967915e-07,0.0,0.0,0.0,1.21846967915e-07,1.26505785,0.36284605,10.87557485,9e-08,0.0,0.0,0.0,9e-08,0.0,0.0,0.0,9e-08
1539875225518507752,474,1539875225518001896,base_link,-0.0236941134779,0.00466889776599,-0.934925858137,-0.354020381006,1.0,0.0,0.0,0.0,1.0,0.0,0.0,0.0,1.0,-0.194131597877,-0.0389606282115,0.0310674980283,1.21846967915e-07,0.0,0.0,0.0,1.21846967915e-07,0.0,0.0,0.0,1.21846967915e-07,1.22583125,1.08853815,11.375714,9e-08,0.0,0.0,0.0,9e-08,0.0,0.0,0.0,9e-08
1539875225821077224,475,1539875225820724840,base_link,-0.0274745734417,0.00756075499114,-0.93461260588,-0.354523990343,1.0,0.0,0.0,0.0,1.0,0.0,0.0,0.0,1.0,-0.0229842588305,-0.0384636260569,0.0121861640364,1.21846967915e-07,0.0,0.0,0.0,1.21846967915e-07,0.0,0.0,0.0,1.21846967915e-07,0.9414384,0.588399,10.48330885,9e-08,0.0,0.0,0.0,9e-08,0.0,0.0,0.0,9e-08
1539875226114420840,476,1539875226114102504,base_link,-0.033876653714,0.00395581668024,-0.937041250254,-0.347549160796,1.0,0.0,0.0,0.0,1.0,0.0,0.0,0.0,1.0,0.0437966063619,-0.0270448159426,0.0989866927266,1.21846967915e-07,0.0,0.0,0.0,1.21846967915e-07,0.0,0.0,0.0,1.21846967915e-07,0.75511205,0.32361945,11.24822755,9e-08,0.0,0.0,0.0,9e-08,0.0,0.0,0.0,9e-08
1539875226465320200,477,1539875226464938952,base_link,-0.0288366476236,0.00981811149234,-0.939666390847,-0.34073321874,1.0,0.0,0.0,0.0,1.0,0.0,0.0,0.0,1.0,-0.0256276745349,0.0587193481624,-0.0601781867445,1.21846967915e-07,0.0,0.0,0.0,1.21846967915e-07,0.0,0.0,0.0,1.21846967915e-07,0.5099458,1.569064,9.2574776,9e-08,0.0,0.0,0.0,9e-08,0.0,0.0,0.0,9e-08
1539875226889167720,478,1539875226887514312,base_link,-0.024915082809,-0.0157084411472,-0.928276540559,-0.370722467316,1.0,0.0,0.0,0.0,1.0,0.0,0.0,0.0,1.0,0.186651825905,0.00553615530953,-0.10064804554,1.21846967915e-07,0.0,0.0,0.0,1.21846967915e-07,0.0,0.0,0.0,1.21846967915e-07,0.5295591,-0.2549729,9.4732239,9e-08,0.0,0.0,0.0,9e-08,0.0,0.0,0.0,9e-08
1539875227306163400,479,1539875227305677768,base_link,-0.0540090007991,-0.0503308461504,-0.936169732047,-0.343709276217,1.0,0.0,0.0,0.0,1.0,0.0,0.0,0.0,1.0,-0.0800965577364,-0.123466439545,0.190682560205,1.21846967915e-07,0.0,0.0,0.0,1.21846967915e-07,0.0,0.0,0.0,1.21846967915e-07,0.6668522,0.91201845,12.356379,9e-08,0.0,0.0,0.0,9e-08,0.0,0.0,0.0,9e-08
1539875227593992360,480,1539875227593497608,base_link,-0.055540733243,-0.0585465144053,-0.939167133496,-0.333845215576,1.0,0.0,0.0,0.0,1.0,0.0,0.0,0.0,1.0,-0.0579349398613,0.0730782151222,-0.0344045981765,1.21846967915e-07,0.0,0.0,0.0,1.21846967915e-07,0.0,0.0,0.0,1.21846967915e-07,0.57859235,1.2552512,7.65899365,9e-08,0.0,0.0,0.0,9e-08,0.0,0.0,0.0,9e-08
1539875227997503816,481,1539875227996066056,base_link,-0.0379291297282,-0.0580578057436,-0.929872261114,-0.361286936273,1.0,0.0,0.0,0.0,1.0,0.0,0.0,0.0,1.0,0.0725465416908,0.00333114666864,-0.13229458034,1.21846967915e-07,0.0,0.0,0.0,1.21846967915e-07,0.0,0.0,0.0,1.21846967915e-07,0.3138128,0.3334261,10.05181625,9e-08,0.0,0.0,0.0,9e-08,0.0,0.0,0.0,9e-08
1539875228322671880,482,1539875228322099496,base_link,-0.0369921458718,-0.0420277532071,-0.93056197673,-0.361828214168,1.0,0.0,0.0,0.0,1.0,0.0,0.0,0.0,1.0,-0.11868429929,-0.0437662526965,0.124582707882,1.21846967915e-07,0.0,0.0,0.0,1.21846967915e-07,0.0,0.0,0.0,1.21846967915e-07,0.6668522,0.2157463,11.3561007,9e-08,0.0,0.0,0.0,9e-08,0.0,0.0,0.0,9e-08
1539875228761258984,483,1539875228760267144,base_link,-0.0345144521102,-0.0176882529829,-0.937011388564,-0.347139073,1.0,0.0,0.0,0.0,1.0,0.0,0.0,0.0,1.0,0.0943280160427,-0.0349202826619,0.0650210604072,1.21846967915e-07,0.0,0.0,0.0,1.21846967915e-07,0.0,0.0,0.0,1.21846967915e-07,0.48052585,-0.3530394,9.03192465,9e-08,0.0,0.0,0.0,9e-08,0.0,0.0,0.0,9e-08
1539875229150807112,484,1539875229149940936,base_link,-0.0417559252481,-0.0160097724111,-0.945629828721,-0.322155796046,1.0,0.0,0.0,0.0,1.0,0.0,0.0,0.0,1.0,0.0163394529372,0.0224588718265,0.0718560665846,1.21846967915e-07,0.0,0.0,0.0,1.21846967915e-07,0.0,0.0,0.0,1.21846967915e-07,0.51975245,1.06892485,13.79795655,9e-08,0.0,0.0,0.0,9e-08,0.0,0.0,0.0,9e-08
1539875229446749288,485,1539875229445170824,base_link,-0.0370073535139,-0.0168544956297,-0.946165480444,-0.321118771452,1.0,0.0,0.0,0.0,1.0,0.0,0.0,0.0,1.0,-0.124273717403,0.0721246451139,-0.02028401196,1.21846967915e-07,0.0,0.0,0.0,1.21846967915e-07,0.0,0.0,0.0,1.21846967915e-07,0.5099458,0.89240515,10.5127288,9e-08,0.0,0.0,0.0,9e-08,0.0,0.0,0.0,9e-08
1539875229715996552,486,1539875229715618664,base_link,-0.0270473532417,-0.0205594422151,-0.944607654314,-0.326438553834,1.0,0.0,0.0,0.0,1.0,0.0,0.0,0.0,1.0,0.0803140476346,0.0579832345247,-0.0250289142132,1.21846967915e-07,0.0,0.0,0.0,1.21846967915e-07,0.0,0.0,0.0,1.21846967915e-07,0.0980665,0.6668522,9.5516771,9e-08,0.0,0.0,0.0,9e-08,0.0,0.0,0.0,9e-08
1539875230136898120,487,1539875230136562696,base_link,-0.0108780928115,-0.0136160659408,-0.944952141417,-0.326744120492,1.0,0.0,0.0,0.0,1.0,0.0,0.0,0.0,1.0,0.00963372457772,0.0576709620655,0.00789270270616,1.21846967915e-07,0.0,0.0,0.0,1.21846967915e-07,0.0,0.0,0.0,1.21846967915e-07,0.14709975,0.3530394,9.6693569,9e-08,0.0,0.0,0.0,9e-08,0.0,0.0,0.0,9e-08
1539875230591155560,488,1539875230590776840,base_link,-0.00122573309369,-0.0105770510944,-0.947399275631,-0.319876907736,1.0,0.0,0.0,0.0,1.0,0.0,0.0,0.0,1.0,0.0918923765421,0.0419467538595,0.037111453712,1.21846967915e-07,0.0,0.0,0.0,1.21846967915e-07,0.0,0.0,0.0,1.21846967915e-07,0.32361945,0.196133,9.1594111,9e-08,0.0,0.0,0.0,9e-08,0.0,0.0,0.0,9e-08
1539875231082343016,489,1539875231081597032,base_link,0.00883020932729,-0.0100227591889,-0.950267954351,-0.311146889163,1.0,0.0,0.0,0.0,1.0,0.0,0.0,0.0,1.0,-0.0342707261443,0.0341410338879,0.0268465895206,1.21846967915e-07,0.0,0.0,0.0,1.21846967915e-07,0.0,0.0,0.0,1.21846967915e-07,0.12748645,0.4118793,8.32584585,9e-08,0.0,0.0,0.0,9e-08,0.0,0.0,0.0,9e-08
1539875231443807112,490,1539875231443402184,base_link,0.0112891602499,-0.0210630664737,-0.95004203813,-0.311205764531,1.0,0.0,0.0,0.0,1.0,0.0,0.0,0.0,1.0,0.154461413622,0.0177639275789,0.00417989306152,1.21846967915e-07,0.0,0.0,0.0,1.21846967915e-07,0.0,0.0,0.0,1.21846967915e-07,0.18632635,0.5687857,9.6693569,9e-08,0.0,0.0,0.0,9e-08,0.0,0.0,0.0,9e-08
1539875231887316616,491,1539875231885519752,base_link,0.00843173716743,-0.0248276919547,-0.951133084209,-0.307665967639,1.0,0.0,0.0,0.0,1.0,0.0,0.0,0.0,1.0,-0.19844058156,0.013993226923,-0.00198978371918,1.21846967915e-07,0.0,0.0,0.0,1.21846967915e-07,0.0,0.0,0.0,1.21846967915e-07,0.12748645,0.4903325,9.1986377,9e-08,0.0,0.0,0.0,9e-08,0.0,0.0,0.0,9e-08
1539875232217697352,492,1539875232217307368,base_link,0.0210314426037,0.00518551468954,-0.950891697977,-0.308764906649,1.0,0.0,0.0,0.0,1.0,0.0,0.0,0.0,1.0,0.30203807354,-0.0323780290782,0.00673135882244,1.21846967915e-07,0.0,0.0,0.0,1.21846967915e-07,0.0,0.0,0.0,1.21846967915e-07,0.1372931,0.0980665,6.54103555,9e-08,0.0,0.0,0.0,9e-08,0.0,0.0,0.0,9e-08
1539875232764150248,493,1539875232763785352,base_link,-0.00490582269369,-0.0644374816243,-0.949725660572,-0.306341171762,1.0,0.0,0.0,0.0,1.0,0.0,0.0,0.0,1.0,0.403531312943,0.0146169280633,0.0473296232522,1.21846967915e-07,0.0,0.0,0.0,1.21846967915e-07,0.0,0.0,0.0,1.21846967915e-07,0.44129925,0.69627215,11.1011278,9e-08,0.0,0.0,0.0,9e-08,0.0,0.0,0.0,9e-08
1539875233115531272,494,1539875233115147240,base_link,-0.0178400118196,-0.117602778407,-0.947532556942,-0.296704186057,1.0,0.0,0.0,0.0,1.0,0.0,0.0,0.0,1.0,0.363215893507,0.00975445937365,0.00781996920705,1.21846967915e-07,0.0,0.0,0.0,1.21846967915e-07,0.0,0.0,0.0,1.21846967915e-07,0.6472389,1.0787315,8.42391235,9e-08,0.0,0.0,0.0,9e-08,0.0,0.0,0.0,9e-08
1539875233522077672,495,1539875233521264776,base_link,-0.0181964122082,-0.136182860617,-0.939882174823,-0.312641354442,1.0,0.0,0.0,0.0,1.0,0.0,0.0,0.0,1.0,-0.184566631913,0.0341460518539,-0.130888015032,1.21846967915e-07,0.0,0.0,0.0,1.21846967915e-07,0.0,0.0,0.0,1.21846967915e-07,0.5295591,1.16699135,9.89490985,9e-08,0.0,0.0,0.0,9e-08,0.0,0.0,0.0,9e-08
1539875234019610504,496,1539875234019101960,base_link,-0.0668976259325,-0.263256076084,-0.898237928441,-0.345527958288,1.0,0.0,0.0,0.0,1.0,0.0,0.0,0.0,1.0,0.939268231392,-0.143513068557,-0.200923129916,1.21846967915e-07,0.0,0.0,0.0,1.21846967915e-07,0.0,0.0,0.0,1.21846967915e-07,0.30400615,0.3138128,9.11037785,9e-08,0.0,0.0,0.0,9e-08,0.0,0.0,0.0,9e-08
1539875234435968072,497,1539875234435733128,base_link,-0.127356888057,-0.322823641016,-0.858699666361,-0.377094156487,1.0,0.0,0.0,0.0,1.0,0.0,0.0,0.0,1.0,0.168022230268,-0.232909798622,-0.175879716873,1.21846967915e-07,0.0,0.0,0.0,1.21846967915e-07,0.0,0.0,0.0,1.21846967915e-07,0.69627215,1.4513842,11.3561007,9e-08,0.0,0.0,0.0,9e-08,0.0,0.0,0.0,9e-08
1539875234802995496,498,1539875234802684328,base_link,-0.152906190366,-0.330011073032,-0.826562857783,-0.429541884754,1.0,0.0,0.0,0.0,1.0,0.0,0.0,0.0,1.0,-0.23496517539,-0.258921861649,-0.354317843914,1.21846967915e-07,0.0,0.0,0.0,1.21846967915e-07,0.0,0.0,0.0,1.21846967915e-07,1.4906108,1.6279039,14.75900825,9e-08,0.0,0.0,0.0,9e-08,0.0,0.0,0.0,9e-08
1539875235191753288,499,1539875235191356904,base_link,-0.145203430316,-0.320282868731,-0.777361746953,-0.521577954093,1.0,0.0,0.0,0.0,1.0,0.0,0.0,0.0,1.0,0.341680169106,-0.21514724195,-0.603548109531,1.21846967915e-07,0.0,0.0,0.0,1.21846967915e-07,0.0,0.0,0.0,1.21846967915e-07,1.10815145,0.85317855,11.87585315,9e-08,0.0,0.0,0.0,9e-08,0.0,0.0,0.0,9e-08
1539875235481564488,500,1539875235481284360,base_link,-0.186637749413,-0.338632900139,-0.710596080219,-0.587832731494,1.0,0.0,0.0,0.0,1.0,0.0,0.0,0.0,1.0,-0.0246141664684,-0.474366635084,-0.390315622091,1.21846967915e-07,0.0,0.0,0.0,1.21846967915e-07,0.0,0.0,0.0,1.21846967915e-07,1.0002783,1.22583125,13.97447625,9e-08,0.0,0.0,0.0,9e-08,0.0,0.0,0.0,9e-08
1539875235856162952,501,1539875235855001992,base_link,-0.224758269014,-0.290798489315,-0.665420742856,-0.649719319475,1.0,0.0,0.0,0.0,1.0,0.0,0.0,0.0,1.0,0.0475988797843,-0.513503730297,-0.272011578083,1.21846967915e-07,0.0,0.0,0.0,1.21846967915e-07,0.0,0.0,0.0,1.21846967915e-07,0.9218251,1.48080415,17.34796385,9e-08,0.0,0.0,0.0,9e-08,0.0,0.0,0.0,9e-08
1539875236177771912,502,1539875236176587528,base_link,-0.273311105134,-0.247953410002,-0.615241458265,-0.696633400226,1.0,0.0,0.0,0.0,1.0,0.0,0.0,0.0,1.0,-0.0105497948825,-0.457202702761,-0.226340129972,1.21846967915e-07,0.0,0.0,0.0,1.21846967915e-07,0.0,0.0,0.0,1.21846967915e-07,0.83356525,1.372931,16.07309935,9e-08,0.0,0.0,0.0,9e-08,0.0,0.0,0.0,9e-08
1539875236562951912,503,1539875236562386248,base_link,-0.284547260506,-0.18000287717,-0.56840180295,-0.75070048032,1.0,0.0,0.0,0.0,1.0,0.0,0.0,0.0,1.0,-0.725377619267,-0.400025576353,-0.176093026996,1.21846967915e-07,0.0,0.0,0.0,1.21846967915e-07,0.0,0.0,0.0,1.21846967915e-07,0.9218251,1.9221034,18.2599823,9e-08,0.0,0.0,0.0,9e-08,0.0,0.0,0.0,9e-08
1539875237025970728,504,1539875237025725544,base_link,-0.318178211735,-0.141217747437,-0.509023166004,-0.787220166064,1.0,0.0,0.0,0.0,1.0,0.0,0.0,0.0,1.0,0.00508676329628,-0.221440553665,-0.220125973225,1.21846967915e-07,0.0,0.0,0.0,1.21846967915e-07,0.0,0.0,0.0,1.21846967915e-07,0.32361945,1.3925443,13.18994425,9e-08,0.0,0.0,0.0,9e-08,0.0,0.0,0.0,9e-08
1539875237365709384,505,1539875237365304392,base_link,-0.307553037114,-0.120828309943,-0.465101785826,-0.821274605537,1.0,0.0,0.0,0.0,1.0,0.0,0.0,0.0,1.0,-0.334488987923,-0.119471184909,-0.292080044746,1.21846967915e-07,0.0,0.0,0.0,1.21846967915e-07,0.0,0.0,0.0,1.21846967915e-07,0.16671305,0.7060788,10.91480145,9e-08,0.0,0.0,0.0,9e-08,0.0,0.0,0.0,9e-08
1539875237827864168,506,1539875237827523944,base_link,-0.297661576474,-0.111641697554,-0.393659281666,-0.862534687544,1.0,0.0,0.0,0.0,1.0,0.0,0.0,0.0,1.0,0.133244991302,-0.127689778805,-0.341783076525,1.21846967915e-07,0.0,0.0,0.0,1.21846967915e-07,0.0,0.0,0.0,1.21846967915e-07,-0.3138128,0.83356525,8.63965865,9e-08,0.0,0.0,0.0,9e-08,0.0,0.0,0.0,9e-08
1539875238169710952,507,1539875238169273448,base_link,-0.332254956612,-0.12146877634,-0.339733715966,-0.871454521141,1.0,0.0,0.0,0.0,1.0,0.0,0.0,0.0,1.0,0.251268297434,-0.107579894364,-0.276863723993,1.21846967915e-07,0.0,0.0,0.0,1.21846967915e-07,0.0,0.0,0.0,1.21846967915e-07,-0.588399,0.73549875,8.3552658,9e-08,0.0,0.0,0.0,9e-08,0.0,0.0,0.0,9e-08
1539875238519946696,508,1539875238519705064,base_link,-0.356836291741,-0.121268307332,-0.290125695829,-0.879652737819,1.0,0.0,0.0,0.0,1.0,0.0,0.0,0.0,1.0,0.102274879813,-0.152134925127,-0.212134674191,1.21846967915e-07,0.0,0.0,0.0,1.21846967915e-07,0.0,0.0,0.0,1.21846967915e-07,-0.3138128,0.6080123,10.85596155,9e-08,0.0,0.0,0.0,9e-08,0.0,0.0,0.0,9e-08
1539875238933350344,509,1539875238933105320,base_link,-0.337809593786,-0.101067478195,-0.237006085949,-0.905261375748,1.0,0.0,0.0,0.0,1.0,0.0,0.0,0.0,1.0,-0.16356664896,-0.131448805332,-0.284074634314,1.21846967915e-07,0.0,0.0,0.0,1.21846967915e-07,0.0,0.0,0.0,1.21846967915e-07,-0.14709975,1.4709975,14.0627361,9e-08,0.0,0.0,0.0,9e-08,0.0,0.0,0.0,9e-08
1539875239265552584,510,1539875239265164776,base_link,-0.358449116368,-0.102894401818,-0.173490704851,-0.911497640359,1.0,0.0,0.0,0.0,1.0,0.0,0.0,0.0,1.0,0.266205400229,-0.169935286045,-0.365925252438,1.21846967915e-07,0.0,0.0,0.0,1.21846967915e-07,0.0,0.0,0.0,1.21846967915e-07,-0.04903325,0.79433865,12.24850585,9e-08,0.0,0.0,0.0,9e-08,0.0,0.0,0.0,9e-08
1539875239680340808,511,1539875239679911240,base_link,-0.379546107462,-0.0824378959521,-0.101495407405,-0.915886143523,1.0,0.0,0.0,0.0,1.0,0.0,0.0,0.0,1.0,0.0837505236268,-0.270230323076,-0.253404200077,1.21846967915e-07,0.0,0.0,0.0,1.21846967915e-07,0.0,0.0,0.0,1.21846967915e-07,-0.28439285,1.57887065,13.925443,9e-08,0.0,0.0,0.0,9e-08,0.0,0.0,0.0,9e-08
1539875240026051304,512,1539875240025751496,base_link,-0.339801005318,-0.0533626535973,-0.050942603242,-0.937599357487,1.0,0.0,0.0,0.0,1.0,0.0,0.0,0.0,1.0,-0.251786649227,-0.242675736547,-0.200094163418,1.21846967915e-07,0.0,0.0,0.0,1.21846967915e-07,0.0,0.0,0.0,1.21846967915e-07,-0.0784532,0.6276256,13.77834325,9e-08,0.0,0.0,0.0,9e-08,0.0,0.0,0.0,9e-08
1539875240334504488,513,1539875240333662632,base_link,-0.271053598772,-0.034987466076,-0.0286422560879,-0.961501661453,1.0,0.0,0.0,0.0,1.0,0.0,0.0,0.0,1.0,-0.39249137044,-0.0543809495866,-0.130231827497,1.21846967915e-07,0.0,0.0,0.0,1.21846967915e-07,0.0,0.0,0.0,1.21846967915e-07,-0.5491724,0.93163175,9.28689755,9e-08,0.0,0.0,0.0,9e-08,0.0,0.0,0.0,9e-08
1539875240824245160,514,1539875240823660104,base_link,-0.142493166938,-0.0362512341103,0.00696233234995,-0.989107209219,1.0,0.0,0.0,0.0,1.0,0.0,0.0,0.0,1.0,-0.464827626944,0.030887985602,-0.16286700964,1.21846967915e-07,0.0,0.0,0.0,1.21846967915e-07,0.0,0.0,0.0,1.21846967915e-07,-0.79433865,0.93163175,8.77695175,9e-08,0.0,0.0,0.0,9e-08,0.0,0.0,0.0,9e-08
1539875241226231208,515,1539875241225690696,base_link,-0.0537488765421,-0.0422966858749,0.026308619665,-0.997311338132,1.0,0.0,0.0,0.0,1.0,0.0,0.0,0.0,1.0,-0.352551281452,-0.00664660986513,-0.058096203953,1.21846967915e-07,0.0,0.0,0.0,1.21846967915e-07,0.0,0.0,0.0,1.21846967915e-07,-0.75511205,0.63743225,9.414384,9e-08,0.0,0.0,0.0,9e-08,0.0,0.0,0.0,9e-08
1539875241615622376,516,1539875241615223496,base_link,0.00788803757574,-0.045751124634,0.0279287601161,-0.998531220251,1.0,0.0,0.0,0.0,1.0,0.0,0.0,0.0,1.0,-0.369329720736,0.0019604312256,0.042346637696,1.21846967915e-07,0.0,0.0,0.0,1.21846967915e-07,0.0,0.0,0.0,1.21846967915e-07,-0.55897905,0.7060788,10.4342756,9e-08,0.0,0.0,0.0,9e-08,0.0,0.0,0.0,9e-08
1539875242107994440,517,1539875242107642280,base_link,0.0614969233813,-0.0521128928752,0.0162581698916,-0.996613288454,1.0,0.0,0.0,0.0,1.0,0.0,0.0,0.0,1.0,-0.0597616396844,-0.00994415860623,0.0399711579084,1.21846967915e-07,0.0,0.0,0.0,1.21846967915e-07,0.0,0.0,0.0,1.21846967915e-07,-0.7060788,0.59820565,8.3748791,9e-08,0.0,0.0,0.0,9e-08,0.0,0.0,0.0,9e-08
1539875242399231912,518,1539875242397377384,base_link,0.0560889654999,-0.0517842271266,0.0135250854374,-0.996990217522,1.0,0.0,0.0,0.0,1.0,0.0,0.0,0.0,1.0,0.116183824837,0.00128074444365,0.00646522827446,1.21846967915e-07,0.0,0.0,0.0,1.21846967915e-07,0.0,0.0,0.0,1.21846967915e-07,-0.42168595,0.3334261,8.36507245,9e-08,0.0,0.0,0.0,9e-08,0.0,0.0,0.0,9e-08
1539875242773307880,519,1539875242772824840,base_link,0.0386022196859,-0.0385606180724,0.007206517084,-0.998484358155,1.0,0.0,0.0,0.0,1.0,0.0,0.0,0.0,1.0,0.106868870556,-0.0833740010858,0.105678349733,1.21846967915e-07,0.0,0.0,0.0,1.21846967915e-07,0.0,0.0,0.0,1.21846967915e-07,-0.30400615,0.24516625,11.87585315,9e-08,0.0,0.0,0.0,9e-08,0.0,0.0,0.0,9e-08
1539875243138624936,520,1539875243138196296,base_link,0.0155302093314,-0.0227128938565,-0.0180492711085,-0.999458433785,1.0,0.0,0.0,0.0,1.0,0.0,0.0,0.0,1.0,0.0749619305134,-0.117414064705,0.137226969004,1.21846967915e-07,0.0,0.0,0.0,1.21846967915e-07,0.0,0.0,0.0,1.21846967915e-07,0.06864655,0.4314926,11.67972015,9e-08,0.0,0.0,0.0,9e-08,0.0,0.0,0.0,9e-08
1539875243484369992,521,1539875243482740840,base_link,0.0104131296222,-0.00932921923246,-0.0398048221611,-0.999109657912,1.0,0.0,0.0,0.0,1.0,0.0,0.0,0.0,1.0,0.012540849857,-0.0763145834208,0.0598920881748,1.21846967915e-07,0.0,0.0,0.0,1.21846967915e-07,0.0,0.0,0.0,1.21846967915e-07,0.0196133,0.89240515,10.91480145,9e-08,0.0,0.0,0.0,9e-08,0.0,0.0,0.0,9e-08
1539875243915417800,522,1539875243914963400,base_link,-0.0412278238659,0.00783121686788,-0.0409648775066,-0.998278927651,1.0,0.0,0.0,0.0,1.0,0.0,0.0,0.0,1.0,0.23570305109,-0.088159121573,0.0092258406803,1.21846967915e-07,0.0,0.0,0.0,1.21846967915e-07,0.0,0.0,0.0,1.21846967915e-07,0.28439285,0.3726527,13.83718315,9e-08,0.0,0.0,0.0,9e-08,0.0,0.0,0.0,9e-08
1539875244479150408,523,1539875244478866280,base_link,-0.0380527887478,0.00990657848437,-0.0497187345187,-0.997988923991,1.0,0.0,0.0,0.0,1.0,0.0,0.0,0.0,1.0,-0.110803432763,0.0448174588382,0.00317288329825,1.21846967915e-07,0.0,0.0,0.0,1.21846967915e-07,0.0,0.0,0.0,1.21846967915e-07,-0.18632635,1.06892485,8.2571993,9e-08,0.0,0.0,0.0,9e-08,0.0,0.0,0.0,9e-08
1539875244839878504,524,1539875244839583368,base_link,-0.0416494854051,0.00211767368114,-0.0377992351062,-0.998414770348,1.0,0.0,0.0,0.0,1.0,0.0,0.0,0.0,1.0,0.168825313449,0.0506368465722,-0.0992577373981,1.21846967915e-07,0.0,0.0,0.0,1.21846967915e-07,0.0,0.0,0.0,1.21846967915e-07,0.02941995,0.3138128,8.67888525,9e-08,0.0,0.0,0.0,9e-08,0.0,0.0,0.0,9e-08
1539875245065949576,525,1539875245065644296,base_link,-0.0639136977743,-0.000369427435255,-0.0325991366559,-0.997422778489,1.0,0.0,0.0,0.0,1.0,0.0,0.0,0.0,1.0,0.0711084678769,0.0263545811176,0.0160188004375,1.21846967915e-07,0.0,0.0,0.0,1.21846967915e-07,0.0,0.0,0.0,1.21846967915e-07,-0.00980665,0.40207265,9.16921775,9e-08,0.0,0.0,0.0,9e-08,0.0,0.0,0.0,9e-08
1539875245438363048,526,1539875245437514664,base_link,-0.0854152452434,-0.00597005358435,-0.0312182381559,-0.995838348301,1.0,0.0,0.0,0.0,1.0,0.0,0.0,0.0,1.0,0.148235604167,0.0315591357648,-0.0280896034092,1.21846967915e-07,0.0,0.0,0.0,1.21846967915e-07,0.0,0.0,0.0,1.21846967915e-07,-0.1569064,0.42168595,8.7279185,9e-08,0.0,0.0,0.0,9e-08,0.0,0.0,0.0,9e-08
1539875245748738152,527,1539875245748150440,base_link,-0.116378470263,-0.0112788017499,-0.02812478489,-0.992742583334,1.0,0.0,0.0,0.0,1.0,0.0,0.0,0.0,1.0,0.174397945404,0.0243544597179,-0.0046932483092,1.21846967915e-07,0.0,0.0,0.0,1.21846967915e-07,0.0,0.0,0.0,1.21846967915e-07,0.02941995,0.2157463,7.8845466,9e-08,0.0,0.0,0.0,9e-08,0.0,0.0,0.0,9e-08
1539875246247368328,528,1539875246246479304,base_link,-0.138798196955,-0.0234664664743,-0.015893866522,-0.98991503195,1.0,0.0,0.0,0.0,1.0,0.0,0.0,0.0,1.0,0.147750988603,0.0764419659972,-0.156156495214,1.21846967915e-07,0.0,0.0,0.0,1.21846967915e-07,0.0,0.0,0.0,1.21846967915e-07,-0.06864655,1.4906108,8.38468575,9e-08,0.0,0.0,0.0,9e-08,0.0,0.0,0.0,9e-08
1539875246576387880,529,1539875246575874184,base_link,-0.164427011314,-0.0349174687584,0.0219958882489,-0.985525600492,1.0,0.0,0.0,0.0,1.0,0.0,0.0,0.0,1.0,0.0731112062931,-0.0151522075757,-0.232683241367,1.21846967915e-07,0.0,0.0,0.0,1.21846967915e-07,0.0,0.0,0.0,1.21846967915e-07,0.2549729,0.9022118,6.8450417,9e-08,0.0,0.0,0.0,9e-08,0.0,0.0,0.0,9e-08
1539875246934758344,530,1539875246934433928,base_link,-0.226333912753,-0.0227980468437,0.0627755857076,-0.971757395051,1.0,0.0,0.0,0.0,1.0,0.0,0.0,0.0,1.0,0.498051941395,-0.158888310194,-0.164203613997,1.21846967915e-07,0.0,0.0,0.0,1.21846967915e-07,0.0,0.0,0.0,1.21846967915e-07,0.7256921,0.6472389,10.62060195,9e-08,0.0,0.0,0.0,9e-08,0.0,0.0,0.0,9e-08
1539875247266822376,531,1539875247266467496,base_link,-0.280040966026,0.00575736230698,0.0997517269492,-0.954774058664,1.0,0.0,0.0,0.0,1.0,0.0,0.0,0.0,1.0,0.245752766728,-0.193540424109,-0.191764742136,1.21846967915e-07,0.0,0.0,0.0,1.21846967915e-07,0.0,0.0,0.0,1.21846967915e-07,0.784532,1.2552512,12.01314625,9e-08,0.0,0.0,0.0,9e-08,0.0,0.0,0.0,9e-08
1539875247566169704,532,1539875247565843912,base_link,-0.304822612016,0.0292959940051,0.14082119744,-0.941485162013,1.0,0.0,0.0,0.0,1.0,0.0,0.0,0.0,1.0,0.18608635664,-0.244112074375,-0.265491962433,1.21846967915e-07,0.0,0.0,0.0,1.21846967915e-07,0.0,0.0,0.0,1.21846967915e-07,1.30428445,0.784532,12.7094184,9e-08,0.0,0.0,0.0,9e-08,0.0,0.0,0.0,9e-08
1539875248005254888,533,1539875248003247080,base_link,-0.331302332653,0.0776702250729,0.199914418344,-0.918825514368,1.0,0.0,0.0,0.0,1.0,0.0,0.0,0.0,1.0,0.043711733073,-0.281309247017,-0.170568957925,1.21846967915e-07,0.0,0.0,0.0,1.21846967915e-07,0.0,0.0,0.0,1.21846967915e-07,1.5886773,1.38273765,12.64077185,9e-08,0.0,0.0,0.0,9e-08,0.0,0.0,0.0,9e-08
1539875248424491304,534,1539875248423596104,base_link,-0.323499531421,0.116776425904,0.264940459187,-0.900842867879,1.0,0.0,0.0,0.0,1.0,0.0,0.0,0.0,1.0,-0.00489262677729,-0.216558203101,-0.262981176376,1.21846967915e-07,0.0,0.0,0.0,1.21846967915e-07,0.0,0.0,0.0,1.21846967915e-07,1.63771055,1.8632635,14.7492016,9e-08,0.0,0.0,0.0,9e-08,0.0,0.0,0.0,9e-08
1539875248846845800,535,1539875248843691912,base_link,-0.314087537482,0.142262819982,0.347402691941,-0.872021604366,1.0,0.0,0.0,0.0,1.0,0.0,0.0,0.0,1.0,0.0237001478672,-0.245069622993,-0.316443383694,1.21846967915e-07,0.0,0.0,0.0,1.21846967915e-07,0.0,0.0,0.0,1.21846967915e-07,1.46119085,1.34351105,12.03275955,9e-08,0.0,0.0,0.0,9e-08,0.0,0.0,0.0,9e-08
1539875249230174536,536,1539875249229834632,base_link,-0.306072074952,0.182983692344,0.410276468081,-0.839350983206,1.0,0.0,0.0,0.0,1.0,0.0,0.0,0.0,1.0,-0.0888825803995,-0.354789346457,-0.245335444808,1.21846967915e-07,0.0,0.0,0.0,1.21846967915e-07,0.0,0.0,0.0,1.21846967915e-07,1.9024901,1.2160246,14.3961622,9e-08,0.0,0.0,0.0,9e-08,0.0,0.0,0.0,9e-08
1539875249631675240,537,1539875249631369960,base_link,-0.284702240422,0.231589560007,0.468414253042,-0.803678416745,1.0,0.0,0.0,0.0,1.0,0.0,0.0,0.0,1.0,0.0122039075941,-0.364264398813,-0.184946060181,1.21846967915e-07,0.0,0.0,0.0,1.21846967915e-07,0.0,0.0,0.0,1.21846967915e-07,1.83384355,1.53964405,14.09215605,9e-08,0.0,0.0,0.0,9e-08,0.0,0.0,0.0,9e-08
1539875250013740040,538,1539875250013135880,base_link,-0.274956102235,0.285784831822,0.511130264711,-0.76254312943,1.0,0.0,0.0,0.0,1.0,0.0,0.0,0.0,1.0,-0.0923532918096,-0.32543617487,-0.217838853598,1.21846967915e-07,0.0,0.0,0.0,1.21846967915e-07,0.0,0.0,0.0,1.21846967915e-07,2.1182364,1.9024901,14.5530686,9e-08,0.0,0.0,0.0,9e-08,0.0,0.0,0.0,9e-08
1539875250427204232,539,1539875250426908424,base_link,-0.212934245713,0.277590956962,0.584957878009,-0.731728466421,1.0,0.0,0.0,0.0,1.0,0.0,0.0,0.0,1.0,-0.298238605261,-0.217571914196,-0.284077435732,1.21846967915e-07,0.0,0.0,0.0,1.21846967915e-07,0.0,0.0,0.0,1.21846967915e-07,2.28494945,2.0593965,14.8472681,9e-08,0.0,0.0,0.0,9e-08,0.0,0.0,0.0,9e-08
1539875250661062536,540,1539875250660814664,base_link,-0.179248495208,0.260266774316,0.628160259578,-0.711017490249,1.0,0.0,0.0,0.0,1.0,0.0,0.0,0.0,1.0,-0.471647769213,-0.150958716869,-0.328620940447,1.21846967915e-07,0.0,0.0,0.0,1.21846967915e-07,0.0,0.0,0.0,1.21846967915e-07,1.44157755,1.91229675,13.48414375,9e-08,0.0,0.0,0.0,9e-08,0.0,0.0,0.0,9e-08
1539875251163664712,541,1539875251163471592,base_link,0.125189001333,-0.220417603687,-0.704867600342,0.662499403712,1.0,0.0,0.0,0.0,1.0,0.0,0.0,0.0,1.0,-0.199293464422,-0.1227440238,-0.235381618142,1.21846967915e-07,0.0,0.0,0.0,1.21846967915e-07,0.0,0.0,0.0,1.21846967915e-07,0.46091255,0.97085835,11.375714,9e-08,0.0,0.0,0.0,9e-08,0.0,0.0,0.0,9e-08
1539875251574835176,542,1539875251574568168,base_link,0.0923646051955,-0.195282219974,-0.73874932297,0.638422330499,1.0,0.0,0.0,0.0,1.0,0.0,0.0,0.0,1.0,-0.330908805132,-0.0316170975566,-0.137609004974,1.21846967915e-07,0.0,0.0,0.0,1.21846967915e-07,0.0,0.0,0.0,1.21846967915e-07,0.2157463,1.24544455,9.1201845,9e-08,0.0,0.0,0.0,9e-08,0.0,0.0,0.0,9e-08
1539875251908292840,543,1539875251907827912,base_link,0.0555034291027,-0.140187823988,-0.765378921088,0.625669122234,1.0,0.0,0.0,0.0,1.0,0.0,0.0,0.0,1.0,-0.420814871788,0.0671513900161,-0.167179271579,1.21846967915e-07,0.0,0.0,0.0,1.21846967915e-07,0.0,0.0,0.0,1.21846967915e-07,-0.2157463,1.2552512,9.0417313,9e-08,0.0,0.0,0.0,9e-08,0.0,0.0,0.0,9e-08
1539875252312972424,544,1539875252312156392,base_link,0.0342375309592,-0.0862368735275,-0.78856063481,0.607917032453,1.0,0.0,0.0,0.0,1.0,0.0,0.0,0.0,1.0,-0.11474481225,0.0579440072179,-0.063352830708,1.21846967915e-07,0.0,0.0,0.0,1.21846967915e-07,0.0,0.0,0.0,1.21846967915e-07,-0.3138128,0.20593965,9.4732239,9e-08,0.0,0.0,0.0,9e-08,0.0,0.0,0.0,9e-08
1539875252889647048,545,1539875252888947880,base_link,0.0184961753581,-0.0289752555524,-0.778016119412,0.627303151592,1.0,0.0,0.0,0.0,1.0,0.0,0.0,0.0,1.0,-0.092999458313,0.133795961738,0.073741145432,1.21846967915e-07,0.0,0.0,0.0,1.21846967915e-07,0.0,0.0,0.0,1.21846967915e-07,-0.42168595,0.588399,8.8455983,9e-08,0.0,0.0,0.0,9e-08,0.0,0.0,0.0,9e-08
1539875253271499944,546,1539875253271262248,base_link,0.0289208567424,-0.00212334087662,-0.775176329741,0.631079023006,1.0,0.0,0.0,0.0,1.0,0.0,0.0,0.0,1.0,-0.084512270987,0.104126676917,0.0269810389727,1.21846967915e-07,0.0,0.0,0.0,1.21846967915e-07,0.0,0.0,0.0,1.21846967915e-07,-0.6668522,0.4903325,8.58081875,9e-08,0.0,0.0,0.0,9e-08,0.0,0.0,0.0,9e-08
1539875253719708744,547,1539875253719468808,base_link,0.0545183867094,0.0124852173937,-0.764410753282,0.642299046492,1.0,0.0,0.0,0.0,1.0,0.0,0.0,0.0,1.0,-0.0275159440935,0.144123733044,0.0619508773088,1.21846967915e-07,0.0,0.0,0.0,1.21846967915e-07,0.0,0.0,0.0,1.21846967915e-07,-0.67665885,0.5099458,7.9826131,9e-08,0.0,0.0,0.0,9e-08,0.0,0.0,0.0,9e-08
1539875254067652648,548,1539875254067279464,base_link,0.0640061142838,0.0332440646253,-0.758532994323,0.647630871736,1.0,0.0,0.0,0.0,1.0,0.0,0.0,0.0,1.0,-0.0320259705186,0.12526011467,0.0187280736864,1.21846967915e-07,0.0,0.0,0.0,1.21846967915e-07,0.0,0.0,0.0,1.21846967915e-07,-0.784532,0.42168595,7.0804013,9e-08,0.0,0.0,0.0,9e-08,0.0,0.0,0.0,9e-08
1539875254514479880,549,1539875254514224456,base_link,0.0973064814629,0.023337504986,-0.76221146101,0.639547103997,1.0,0.0,0.0,0.0,1.0,0.0,0.0,0.0,1.0,0.250627666712,0.0680496022105,-0.034252371639,1.21846967915e-07,0.0,0.0,0.0,1.21846967915e-07,0.0,0.0,0.0,1.21846967915e-07,-0.75511205,0.28439285,5.81534345,9e-08,0.0,0.0,0.0,9e-08,0.0,0.0,0.0,9e-08
1539875254819481032,550,1539875254818531784,base_link,0.103845244855,0.0219657283239,-0.76496645234,0.635263723736,1.0,0.0,0.0,0.0,1.0,0.0,0.0,0.0,1.0,-0.189911350608,-0.0111341364682,-0.035658121109,1.21846967915e-07,0.0,0.0,0.0,1.21846967915e-07,0.0,0.0,0.0,1.21846967915e-07,-0.6472389,0.81395195,7.48247395,9e-08,0.0,0.0,0.0,9e-08,0.0,0.0,0.0,9e-08
1539875255185878600,551,1539875255185642344,base_link,0.0943486912476,0.0267902066321,-0.770958749454,0.62928786412,1.0,0.0,0.0,0.0,1.0,0.0,0.0,0.0,1.0,0.0549156926572,-0.0451014526188,-0.0476321876049,1.21846967915e-07,0.0,0.0,0.0,1.21846967915e-07,0.0,0.0,0.0,1.21846967915e-07,-0.32361945,0.4903325,9.7478101,9e-08,0.0,0.0,0.0,9e-08,0.0,0.0,0.0,9e-08
1539875255469382056,552,1539875255468965576,base_link,0.0892517260094,0.0149269989309,-0.774701734185,0.625818294043,1.0,0.0,0.0,0.0,1.0,0.0,0.0,0.0,1.0,0.0579278580844,-0.119402378798,-0.00524412700906,1.21846967915e-07,0.0,0.0,0.0,1.21846967915e-07,0.0,0.0,0.0,1.21846967915e-07,-0.2549729,0.69627215,11.42474725,9e-08,0.0,0.0,0.0,9e-08,0.0,0.0,0.0,9e-08
1539875255824748360,553,1539875255824483560,base_link,0.0655729638281,0.00498295268562,-0.772194431421,0.631973984179,1.0,0.0,0.0,0.0,1.0,0.0,0.0,0.0,1.0,0.0868867784739,-0.0710847228765,0.00409308448434,1.21846967915e-07,0.0,0.0,0.0,1.21846967915e-07,0.0,0.0,0.0,1.21846967915e-07,0.4314926,0.89240515,14.1608026,9e-08,0.0,0.0,0.0,9e-08,0.0,0.0,0.0,9e-08
1539875256315093704,554,1539875256312883912,base_link,0.041304319971,-0.00346704790682,-0.774601923025,0.631089370514,1.0,0.0,0.0,0.0,1.0,0.0,0.0,0.0,1.0,0.0357731580734,-0.0295080412179,-0.0633109882474,1.21846967915e-07,0.0,0.0,0.0,1.21846967915e-07,0.0,0.0,0.0,1.21846967915e-07,0.0980665,1.22583125,10.1008495,9e-08,0.0,0.0,0.0,9e-08,0.0,0.0,0.0,9e-08
1539875256711990280,555,1539875256711614632,base_link,0.0343444567185,-0.0194993741457,-0.789445971659,0.612548194457,1.0,0.0,0.0,0.0,1.0,0.0,0.0,0.0,1.0,0.143668234348,-0.0794855803251,-0.117805846035,1.21846967915e-07,0.0,0.0,0.0,1.21846967915e-07,0.0,0.0,0.0,1.21846967915e-07,0.30400615,0.71588545,13.13110435,9e-08,0.0,0.0,0.0,9e-08,0.0,0.0,0.0,9e-08
1539875257150800392,556,1539875257140020072,base_link,0.0643649792997,-0.0930642142476,-0.797469344861,0.592654068975,1.0,0.0,0.0,0.0,1.0,0.0,0.0,0.0,1.0,0.131810501218,-0.111676469445,0.0395615845919,1.21846967915e-07,0.0,0.0,0.0,1.21846967915e-07,0.0,0.0,0.0,1.21846967915e-07,0.7256921,0.5295591,15.40624715,9e-08,0.0,0.0,0.0,9e-08,0.0,0.0,0.0,9e-08
1539875257520984104,557,1539875257520516616,base_link,0.0695382864977,-0.125412814714,-0.789057297812,0.597348000236,1.0,0.0,0.0,0.0,1.0,0.0,0.0,0.0,1.0,0.0172498505563,0.0123625025153,-0.002994148992,1.21846967915e-07,0.0,0.0,0.0,1.21846967915e-07,0.0,0.0,0.0,1.21846967915e-07,0.38245935,1.22583125,8.7279185,9e-08,0.0,0.0,0.0,9e-08,0.0,0.0,0.0,9e-08
1539875257816073672,558,1539875257814762312,base_link,0.0687336247341,-0.115822043286,-0.798525096927,0.586701468123,1.0,0.0,0.0,0.0,1.0,0.0,0.0,0.0,1.0,-0.0602753907442,0.0301483143121,-0.185770109296,1.21846967915e-07,0.0,0.0,0.0,1.21846967915e-07,0.0,0.0,0.0,1.21846967915e-07,0.10787315,1.1375714,5.44269075,9e-08,0.0,0.0,0.0,9e-08,0.0,0.0,0.0,9e-08
1539875258251885128,559,1539875258251381480,base_link,0.106938038923,-0.1644339135,-0.815242302587,0.544890568825,1.0,0.0,0.0,0.0,1.0,0.0,0.0,0.0,1.0,0.177212059498,-0.112995751202,-0.0980331078172,1.21846967915e-07,0.0,0.0,0.0,1.21846967915e-07,0.0,0.0,0.0,1.21846967915e-07,0.0784532,0.1372931,7.7864801,9e-08,0.0,0.0,0.0,9e-08,0.0,0.0,0.0,9e-08
1539875258532767752,560,1539875258532502024,base_link,0.100557836128,-0.179302830729,-0.822837604227,0.529789480412,1.0,0.0,0.0,0.0,1.0,0.0,0.0,0.0,1.0,-0.0263588707894,-0.134722530842,-0.0970672443509,1.21846967915e-07,0.0,0.0,0.0,1.21846967915e-07,0.0,0.0,0.0,1.21846967915e-07,0.6472389,0.71588545,11.3168741,9e-08,0.0,0.0,0.0,9e-08,0.0,0.0,0.0,9e-08
1539875258904503176,561,1539875258904211304,base_link,0.085357521775,-0.185213070831,-0.839414303981,0.50377955312,1.0,0.0,0.0,0.0,1.0,0.0,0.0,0.0,1.0,0.00297959777527,-0.140153035522,-0.169178113341,1.21846967915e-07,0.0,0.0,0.0,1.21846967915e-07,0.0,0.0,0.0,1.21846967915e-07,0.5687857,0.8041453,11.42474725,9e-08,0.0,0.0,0.0,9e-08,0.0,0.0,0.0,9e-08
1539875259369187976,562,1539875259364446824,base_link,0.10210059142,-0.288683990744,-0.833753050507,0.459448444867,1.0,0.0,0.0,0.0,1.0,0.0,0.0,0.0,1.0,0.384039342403,-0.191607296467,-0.108548171818,1.21846967915e-07,0.0,0.0,0.0,1.21846967915e-07,0.0,0.0,0.0,1.21846967915e-07,0.9022118,1.5298374,14.40596885,9e-08,0.0,0.0,0.0,9e-08,0.0,0.0,0.0,9e-08
1539875259809212296,563,1539875259808998504,base_link,0.111746905997,-0.335930594329,-0.845318776979,0.400124268298,1.0,0.0,0.0,0.0,1.0,0.0,0.0,0.0,1.0,-0.0412595719099,-0.144445985556,-0.390648782253,1.21846967915e-07,0.0,0.0,0.0,1.21846967915e-07,0.0,0.0,0.0,1.21846967915e-07,0.77472535,2.12804305,6.63910205,9e-08,0.0,0.0,0.0,9e-08,0.0,0.0,0.0,9e-08
1539875260149283912,564,1539875260149048936,base_link,0.106590722078,-0.34220109891,-0.874827228497,0.325905118328,1.0,0.0,0.0,0.0,1.0,0.0,0.0,0.0,1.0,0.0767590850592,-0.199243992567,-0.353887796402,1.21846967915e-07,0.0,0.0,0.0,1.21846967915e-07,0.0,0.0,0.0,1.21846967915e-07,1.0198916,1.1375714,14.1019627,9e-08,0.0,0.0,0.0,9e-08,0.0,0.0,0.0,9e-08
1539875260575417320,565,1539875260575024680,base_link,0.0788115115454,-0.381333226009,-0.889961293889,0.237365986968,1.0,0.0,0.0,0.0,1.0,0.0,0.0,0.0,1.0,0.0780319198966,-0.38766515255,-0.196553528309,1.21846967915e-07,0.0,0.0,0.0,1.21846967915e-07,0.0,0.0,0.0,1.21846967915e-07,0.9022118,1.10815145,14.73939495,9e-08,0.0,0.0,0.0,9e-08,0.0,0.0,0.0,9e-08
1539875260918293896,566,1539875260917907400,base_link,0.0272177475163,-0.385076450873,-0.904537267168,0.181073613505,1.0,0.0,0.0,0.0,1.0,0.0,0.0,0.0,1.0,-0.149533644319,-0.339979052544,-0.262284934521,1.21846967915e-07,0.0,0.0,0.0,1.21846967915e-07,0.0,0.0,0.0,1.21846967915e-07,1.1179581,2.08881645,15.6710267,9e-08,0.0,0.0,0.0,9e-08,0.0,0.0,0.0,9e-08
1539875261347494120,567,1539875261347255176,base_link,-0.00698602859104,-0.350609814938,-0.931923044977,0.0924304674599,1.0,0.0,0.0,0.0,1.0,0.0,0.0,0.0,1.0,-0.317979007959,-0.292532175779,-0.316510379314,1.21846967915e-07,0.0,0.0,0.0,1.21846967915e-07,0.0,0.0,0.0,1.21846967915e-07,0.9022118,1.01008495,12.1014061,9e-08,0.0,0.0,0.0,9e-08,0.0,0.0,0.0,9e-08
1539875261747596552,568,1539875261747287944,base_link,-0.0464427564466,-0.306684347302,-0.95012319228,0.0324607606991,1.0,0.0,0.0,0.0,1.0,0.0,0.0,0.0,1.0,-0.299279868603,-0.193244367838,-0.160772278905,1.21846967915e-07,0.0,0.0,0.0,1.21846967915e-07,0.0,0.0,0.0,1.21846967915e-07,0.7060788,0.77472535,14.6903617,9e-08,0.0,0.0,0.0,9e-08,0.0,0.0,0.0,9e-08
1539875262198959176,569,1539875262198004072,base_link,-0.0555980713877,-0.180897796663,-0.981886674688,-0.00913234309363,1.0,0.0,0.0,0.0,1.0,0.0,0.0,0.0,1.0,-0.706314384937,0.0370170809329,-0.157394111156,1.21846967915e-07,0.0,0.0,0.0,1.21846967915e-07,0.0,0.0,0.0,1.21846967915e-07,0.14709975,1.06892485,10.69905515,9e-08,0.0,0.0,0.0,9e-08,0.0,0.0,0.0,9e-08
1539875262624194696,570,1539875262623974248,base_link,-0.0306834646917,-0.151479343911,-0.986833412446,-0.0476691665793,1.0,0.0,0.0,0.0,1.0,0.0,0.0,0.0,1.0,-0.04395102337,0.0585686899722,-0.125815585256,1.21846967915e-07,0.0,0.0,0.0,1.21846967915e-07,0.0,0.0,0.0,1.21846967915e-07,-0.5295591,0.71588545,8.2179727,9e-08,0.0,0.0,0.0,9e-08,0.0,0.0,0.0,9e-08
1539875262987277960,571,1539875262987012264,base_link,-0.0094327936977,-0.0923230937101,-0.993732139523,-0.0623209727941,1.0,0.0,0.0,0.0,1.0,0.0,0.0,0.0,1.0,-0.245541840792,0.0748720318079,-0.0892206802964,1.21846967915e-07,0.0,0.0,0.0,1.21846967915e-07,0.0,0.0,0.0,1.21846967915e-07,-0.3334261,0.5099458,8.433719,9e-08,0.0,0.0,0.0,9e-08,0.0,0.0,0.0,9e-08
1539875263424762696,572,1539875263424521928,base_link,0.0217570693267,-0.0205622563555,-0.99727132004,-0.0674813883507,1.0,0.0,0.0,0.0,1.0,0.0,0.0,0.0,1.0,-0.172853171825,0.165228322148,-0.0029478026554,1.21846967915e-07,0.0,0.0,0.0,1.21846967915e-07,0.0,0.0,0.0,1.21846967915e-07,-0.51975245,0.36284605,7.3942141,9e-08,0.0,0.0,0.0,9e-08,0.0,0.0,0.0,9e-08
1539875263772499816,573,1539875263772286920,base_link,0.0384297000522,-0.0144760276445,-0.997017849122,-0.065337671438,1.0,0.0,0.0,0.0,1.0,0.0,0.0,0.0,1.0,-0.14848895371,0.0637615323067,0.0498617812991,1.21846967915e-07,0.0,0.0,0.0,1.21846967915e-07,0.0,0.0,0.0,1.21846967915e-07,-0.4903325,0.1765197,7.65899365,9e-08,0.0,0.0,0.0,9e-08,0.0,0.0,0.0,9e-08
1539875264210581992,574,1539875264205166504,base_link,0.0485647598693,-0.0126283852177,-0.997742184617,-0.044637663716,1.0,0.0,0.0,0.0,1.0,0.0,0.0,0.0,1.0,-0.176219448447,0.0603161156178,0.0733567550778,1.21846967915e-07,0.0,0.0,0.0,1.21846967915e-07,0.0,0.0,0.0,1.21846967915e-07,-0.3334261,1.1179581,9.44380395,9e-08,0.0,0.0,0.0,9e-08,0.0,0.0,0.0,9e-08
1539875264608304648,575,1539875264607940552,base_link,0.0624232498442,0.0046082567541,-0.99674670427,-0.0507750861666,1.0,0.0,0.0,0.0,1.0,0.0,0.0,0.0,1.0,-0.0488973036408,0.0230355523527,-0.0806226953864,1.21846967915e-07,0.0,0.0,0.0,1.21846967915e-07,0.0,0.0,0.0,1.21846967915e-07,-0.1569064,0.57859235,10.3165958,9e-08,0.0,0.0,0.0,9e-08,0.0,0.0,0.0,9e-08
1539875265043585672,576,1539875265042885128,base_link,0.0595071086233,-0.012806007799,-0.997105770128,-0.0455520950631,1.0,0.0,0.0,0.0,1.0,0.0,0.0,0.0,1.0,0.165470451117,-0.012564512901,0.0872625187039,1.21846967915e-07,0.0,0.0,0.0,1.21846967915e-07,0.0,0.0,0.0,1.21846967915e-07,-0.4903325,0.48052585,6.87446165,9e-08,0.0,0.0,0.0,9e-08,0.0,0.0,0.0,9e-08
1539875265418368104,577,1539875265418134984,base_link,0.0466916452325,-0.0234740774706,-0.997894596524,-0.0384087513492,1.0,0.0,0.0,0.0,1.0,0.0,0.0,0.0,1.0,0.0808585062623,-0.0552548393607,0.0264219883829,1.21846967915e-07,0.0,0.0,0.0,1.21846967915e-07,0.0,0.0,0.0,1.21846967915e-07,0.0196133,0.77472535,11.30706745,9e-08,0.0,0.0,0.0,9e-08,0.0,0.0,0.0,9e-08
1539875265930777352,578,1539875265922865992,base_link,0.0297244275663,-0.00804009573218,-0.999021281613,-0.0317536478331,1.0,0.0,0.0,0.0,1.0,0.0,0.0,0.0,1.0,-0.000318605336361,-0.0651337951422,0.0474397428334,1.21846967915e-07,0.0,0.0,0.0,1.21846967915e-07,0.0,0.0,0.0,1.21846967915e-07,0.16671305,0.6864655,11.48358715,9e-08,0.0,0.0,0.0,9e-08,0.0,0.0,0.0,9e-08
1539875266297788424,579,1539875266297244520,base_link,0.0152264838947,-0.038823021034,-0.998904495733,-0.0212305353208,1.0,0.0,0.0,0.0,1.0,0.0,0.0,0.0,1.0,-0.0884946733713,-0.0435187518597,0.0814278274775,1.21846967915e-07,0.0,0.0,0.0,1.21846967915e-07,0.0,0.0,0.0,1.21846967915e-07,0.0392266,0.9218251,11.8072066,9e-08,0.0,0.0,0.0,9e-08,0.0,0.0,0.0,9e-08
1539875266721505544,580,1539875266721117992,base_link,0.0131548083999,-0.0119418577541,-0.999685153717,-0.0177182529402,1.0,0.0,0.0,0.0,1.0,0.0,0.0,0.0,1.0,-0.0650612711906,0.0325581170619,-0.0447406172752,1.21846967915e-07,0.0,0.0,0.0,1.21846967915e-07,0.0,0.0,0.0,1.21846967915e-07,-0.00980665,0.6864655,9.6889702,9e-08,0.0,0.0,0.0,9e-08,0.0,0.0,0.0,9e-08
1539875267080663528,581,1539875267080357832,base_link,0.0121053352152,-0.0455480007439,-0.998514018616,-0.0273604662758,1.0,0.0,0.0,0.0,1.0,0.0,0.0,0.0,1.0,0.374550223351,-0.00504956673831,-0.0329225361347,1.21846967915e-07,0.0,0.0,0.0,1.21846967915e-07,0.0,0.0,0.0,1.21846967915e-07,0.0980665,0.2157463,11.4149406,9e-08,0.0,0.0,0.0,9e-08,0.0,0.0,0.0,9e-08
1539875267466742600,582,1539875267466509608,base_link,0.0101193158873,-0.058594894798,-0.998130512685,-0.0141321405432,1.0,0.0,0.0,0.0,1.0,0.0,0.0,0.0,1.0,-0.0819926038384,0.00339365354739,0.0903752446175,1.21846967915e-07,0.0,0.0,0.0,1.21846967915e-07,0.0,0.0,0.0,1.21846967915e-07,0.0196133,0.6276256,10.54214875,9e-08,0.0,0.0,0.0,9e-08,0.0,0.0,0.0,9e-08
1539875267882949992,583,1539875267881974888,base_link,0.0282948637217,-0.0588811157237,-0.997670120664,-0.0196658392341,1.0,0.0,0.0,0.0,1.0,0.0,0.0,0.0,1.0,0.252745687962,0.0884713679552,-0.158065721393,1.21846967915e-07,0.0,0.0,0.0,1.21846967915e-07,0.0,0.0,0.0,1.21846967915e-07,-0.0392266,0.69627215,9.54187045,9e-08,0.0,0.0,0.0,9e-08,0.0,0.0,0.0,9e-08
1539875268120538184,584,1539875268120177384,base_link,0.0381927498126,-0.0589393927776,-0.99712639984,-0.028397263668,1.0,0.0,0.0,0.0,1.0,0.0,0.0,0.0,1.0,-0.214380159974,0.0949321240187,-0.0193551946431,1.21846967915e-07,0.0,0.0,0.0,1.21846967915e-07,0.0,0.0,0.0,1.21846967915e-07,-0.12748645,0.6668522,9.46341725,9e-08,0.0,0.0,0.0,9e-08,0.0,0.0,0.0,9e-08
1539875268578610856,585,1539875268578367176,base_link,0.0396630028096,-0.067146912225,-0.996621763324,-0.0257526553313,1.0,0.0,0.0,0.0,1.0,0.0,0.0,0.0,1.0,-0.1414077878,0.00351644936018,0.0311416778713,1.21846967915e-07,0.0,0.0,0.0,1.21846967915e-07,0.0,0.0,0.0,1.21846967915e-07,0.1372931,0.57859235,10.0616229,9e-08,0.0,0.0,0.0,9e-08,0.0,0.0,0.0,9e-08
1539875269031937352,586,1539875269031598952,base_link,0.0469550391263,-0.0263304604236,-0.998292023699,-0.0226928749589,1.0,0.0,0.0,0.0,1.0,0.0,0.0,0.0,1.0,0.14524166286,0.0283939037472,-0.0428913868964,1.21846967915e-07,0.0,0.0,0.0,1.21846967915e-07,0.0,0.0,0.0,1.21846967915e-07,-0.18632635,0.5491724,8.12971285,9e-08,0.0,0.0,0.0,9e-08,0.0,0.0,0.0,9e-08
1539875269421725640,587,1539875269421276872,base_link,0.0410395996652,-0.0508072041563,-0.997715239841,-0.017282345139,1.0,0.0,0.0,0.0,1.0,0.0,0.0,0.0,1.0,0.19002482295,-0.0267295669764,0.105713002384,1.21846967915e-07,0.0,0.0,0.0,1.21846967915e-07,0.0,0.0,0.0,1.21846967915e-07,0.04903325,0.16671305,11.6503002,9e-08,0.0,0.0,0.0,9e-08,0.0,0.0,0.0,9e-08
1539875269950616520,588,1539875269950203464,base_link,0.0331038762099,-0.0390225160566,-0.998679131651,0.00462262112221,1.0,0.0,0.0,0.0,1.0,0.0,0.0,0.0,1.0,-0.0351076088846,0.0352304242551,-0.0360608994961,1.21846967915e-07,0.0,0.0,0.0,1.21846967915e-07,0.0,0.0,0.0,1.21846967915e-07,0.0196133,1.176798,9.7281968,9e-08,0.0,0.0,0.0,9e-08,0.0,0.0,0.0,9e-08
1539875270280552680,589,1539875270279646536,base_link,0.0335506243946,-0.0370927870434,-0.9987246629,-0.00689408934806,1.0,0.0,0.0,0.0,1.0,0.0,0.0,0.0,1.0,-0.0413641855121,-0.0300772655755,-0.0259028654546,1.21846967915e-07,0.0,0.0,0.0,1.21846967915e-07,0.0,0.0,0.0,1.21846967915e-07,-0.0392266,0.6080123,10.58137535,9e-08,0.0,0.0,0.0,9e-08,0.0,0.0,0.0,9e-08
1539875270740494728,590,1539875270740242440,base_link,0.0185380703975,-0.0467944259232,-0.998655579948,0.0123957366313,1.0,0.0,0.0,0.0,1.0,0.0,0.0,0.0,1.0,-0.0186163317412,-0.0278395023197,0.204644307494,1.21846967915e-07,0.0,0.0,0.0,1.21846967915e-07,0.0,0.0,0.0,1.21846967915e-07,-0.40207265,0.40207265,10.8853815,9e-08,0.0,0.0,0.0,9e-08,0.0,0.0,0.0,9e-08
1539875271098506920,591,1539875271093992168,base_link,0.0156062784797,-0.0209220356583,-0.999151559467,0.0318570825756,1.0,0.0,0.0,0.0,1.0,0.0,0.0,0.0,1.0,-0.196045473218,0.0843918398023,0.00473796622828,1.21846967915e-07,0.0,0.0,0.0,1.21846967915e-07,0.0,0.0,0.0,1.21846967915e-07,-0.18632635,1.5494507,11.09132115,9e-08,0.0,0.0,0.0,9e-08,0.0,0.0,0.0,9e-08
1539875271470602536,592,1539875271470400584,base_link,0.0253542614794,0.00437259156268,-0.999641513036,0.00740859519728,1.0,0.0,0.0,0.0,1.0,0.0,0.0,0.0,1.0,-0.188284426928,0.0123522160575,-0.11720483005,1.21846967915e-07,0.0,0.0,0.0,1.21846967915e-07,0.0,0.0,0.0,1.21846967915e-07,-0.32361945,0.51975245,9.69877685,9e-08,0.0,0.0,0.0,9e-08,0.0,0.0,0.0,9e-08
1539875271948092776,593,1539875271947757416,base_link,0.0289997922301,-0.0626025802639,-0.997403153577,0.0206610316634,1.0,0.0,0.0,0.0,1.0,0.0,0.0,0.0,1.0,0.149692058563,0.0205344278365,0.366033554077,1.21846967915e-07,0.0,0.0,0.0,1.21846967915e-07,0.0,0.0,0.0,1.21846967915e-07,-0.3334261,-0.6276256,9.01231135,9e-08,0.0,0.0,0.0,9e-08,0.0,0.0,0.0,9e-08
1539875272448362504,594,1539875272448146312,base_link,0.0363844702486,-0.0592596578702,-0.995044024468,0.0710763859759,1.0,0.0,0.0,0.0,1.0,0.0,0.0,0.0,1.0,0.231159314513,0.114820256829,-0.102834507823,1.21846967915e-07,0.0,0.0,0.0,1.21846967915e-07,0.0,0.0,0.0,1.21846967915e-07,-0.3726527,1.26505785,7.3353742,9e-08,0.0,0.0,0.0,9e-08,0.0,0.0,0.0,9e-08
1539875272781161544,595,1539875272780825224,base_link,0.0505050767501,-0.110335532665,-0.991869491831,0.0383434300675,1.0,0.0,0.0,0.0,1.0,0.0,0.0,0.0,1.0,0.271350830793,0.0152340251952,-0.200301751494,1.21846967915e-07,0.0,0.0,0.0,1.21846967915e-07,0.0,0.0,0.0,1.21846967915e-07,-0.12748645,0.7256921,8.5906254,9e-08,0.0,0.0,0.0,9e-08,0.0,0.0,0.0,9e-08
1539875273220511144,596,1539875273220304488,base_link,0.0482178190549,-0.135740543344,-0.989563623539,-0.00365811247879,1.0,0.0,0.0,0.0,1.0,0.0,0.0,0.0,1.0,0.151382282376,-0.0883523747325,-0.135337933898,1.21846967915e-07,0.0,0.0,0.0,1.21846967915e-07,0.0,0.0,0.0,1.21846967915e-07,-0.10787315,0.89240515,10.75789505,9e-08,0.0,0.0,0.0,9e-08,0.0,0.0,0.0,9e-08
1539875273676403688,597,1539875273676128232,base_link,0.0329099257273,-0.136728733309,-0.989651325391,-0.0285034108035,1.0,0.0,0.0,0.0,1.0,0.0,0.0,0.0,1.0,-0.277983397245,-0.131897076964,-0.0541275888681,1.21846967915e-07,0.0,0.0,0.0,1.21846967915e-07,0.0,0.0,0.0,1.21846967915e-07,0.0,0.4511059,8.9240515,9e-08,0.0,0.0,0.0,9e-08,0.0,0.0,0.0,9e-08
1539875274105584360,598,1539875274105289320,base_link,0.00637207778036,-0.136854856675,-0.989332086842,-0.0495193575735,1.0,0.0,0.0,0.0,1.0,0.0,0.0,0.0,1.0,0.174934253097,-0.110947370529,-0.101923376322,1.21846967915e-07,0.0,0.0,0.0,1.21846967915e-07,0.0,0.0,0.0,1.21846967915e-07,0.3530394,1.2552512,11.69933345,9e-08,0.0,0.0,0.0,9e-08,0.0,0.0,0.0,9e-08
1539875274512095912,599,1539875274511827432,base_link,-0.00616160546245,-0.111907814613,-0.99053830733,-0.0791993520043,1.0,0.0,0.0,0.0,1.0,0.0,0.0,0.0,1.0,0.00832072738558,-0.00262364372611,-0.210312023759,1.21846967915e-07,0.0,0.0,0.0,1.21846967915e-07,0.0,0.0,0.0,1.21846967915e-07,0.30400615,0.3334261,10.7284751,9e-08,0.0,0.0,0.0,9e-08,0.0,0.0,0.0,9e-08
1539875274985054792,600,1539875274982317992,base_link,-0.0266484757638,-0.127087800671,-0.985313277916,-0.110888655972,1.0,0.0,0.0,0.0,1.0,0.0,0.0,0.0,1.0,-0.103929162025,-0.0882237255573,-0.0243975259364,1.21846967915e-07,0.0,0.0,0.0,1.21846967915e-07,0.0,0.0,0.0,1.21846967915e-07,0.48052585,0.99047165,13.0036179,9e-08,0.0,0.0,0.0,9e-08,0.0,0.0,0.0,9e-08
1539875275386099656,601,1539875275385744616,base_link,-0.0363040883948,-0.0755395502044,-0.988296159238,-0.127461724278,1.0,0.0,0.0,0.0,1.0,0.0,0.0,0.0,1.0,-0.374129235744,-0.112584985793,-0.00453874282539,1.21846967915e-07,0.0,0.0,0.0,1.21846967915e-07,0.0,0.0,0.0,1.21846967915e-07,-0.18632635,0.7453054,16.8478247,9e-08,0.0,0.0,0.0,9e-08,0.0,0.0,0.0,9e-08
1539875275748606760,602,1539875275747484008,base_link,-0.0334441962528,0.00589657327682,-0.991227475028,-0.127729436351,1.0,0.0,0.0,0.0,1.0,0.0,0.0,0.0,1.0,-0.248509153724,-0.0227047428489,0.0602282322943,1.21846967915e-07,0.0,0.0,0.0,1.21846967915e-07,0.0,0.0,0.0,1.21846967915e-07,-0.16671305,-0.08825985,7.9433865,9e-08,0.0,0.0,0.0,9e-08,0.0,0.0,0.0,9e-08
1539875276262474536,603,1539875276262134792,base_link,-0.026744036127,0.00819773402269,-0.993711782175,-0.10841793051,1.0,0.0,0.0,0.0,1.0,0.0,0.0,0.0,1.0,0.149481609464,0.0334010198712,0.0808084011078,1.21846967915e-07,0.0,0.0,0.0,1.21846967915e-07,0.0,0.0,0.0,1.21846967915e-07,-0.3726527,0.20593965,6.8058151,9e-08,0.0,0.0,0.0,9e-08,0.0,0.0,0.0,9e-08
1539875276706959784,604,1539875276706572328,base_link,-0.01075961691,0.0260822637284,-0.994710277821,-0.0987694758524,1.0,0.0,0.0,0.0,1.0,0.0,0.0,0.0,1.0,-0.193755969405,0.0769195705652,0.00472207274288,1.21846967915e-07,0.0,0.0,0.0,1.21846967915e-07,0.0,0.0,0.0,1.21846967915e-07,-0.32361945,0.32361945,8.28661925,9e-08,0.0,0.0,0.0,9e-08,0.0,0.0,0.0,9e-08
1539875277028066792,605,1539875277027791208,base_link,0.00232563010697,0.0213570383668,-0.994664198394,-0.100903918609,1.0,0.0,0.0,0.0,1.0,0.0,0.0,0.0,1.0,0.0144220367074,0.0953295081854,0.0449553020298,1.21846967915e-07,0.0,0.0,0.0,1.21846967915e-07,0.0,0.0,0.0,1.21846967915e-07,-0.1372931,-0.04903325,7.1588545,9e-08,0.0,0.0,0.0,9e-08,0.0,0.0,0.0,9e-08
1539875277346763528,606,1539875277346107048,base_link,0.00815772250591,-0.0237369505003,-0.995414468461,-0.0923040883287,1.0,0.0,0.0,0.0,1.0,0.0,0.0,0.0,1.0,0.316197514534,0.075174421072,0.114032946527,1.21846967915e-07,0.0,0.0,0.0,1.21846967915e-07,0.0,0.0,0.0,1.21846967915e-07,-0.20593965,0.1569064,9.1005712,9e-08,0.0,0.0,0.0,9e-08,0.0,0.0,0.0,9e-08
1539875277850706184,607,1539875277850485608,base_link,0.0123179369756,-0.070830636498,-0.994924757163,-0.0703989839891,1.0,0.0,0.0,0.0,1.0,0.0,0.0,0.0,1.0,0.229484766722,0.0503240972757,0.00417579384521,1.21846967915e-07,0.0,0.0,0.0,1.21846967915e-07,0.0,0.0,0.0,1.21846967915e-07,0.18632635,1.0002783,10.05181625,9e-08,0.0,0.0,0.0,9e-08,0.0,0.0,0.0,9e-08
1539875278149241224,608,1539875278147756424,base_link,0.0224270855467,-0.0753039177871,-0.993867502544,-0.0778057400619,1.0,0.0,0.0,0.0,1.0,0.0,0.0,0.0,1.0,-0.0532880909741,0.0638922378421,-0.122354410589,1.21846967915e-07,0.0,0.0,0.0,1.21846967915e-07,0.0,0.0,0.0,1.21846967915e-07,0.3530394,0.9610517,8.91424485,9e-08,0.0,0.0,0.0,9e-08,0.0,0.0,0.0,9e-08
1539875278606828712,609,1539875278606402216,base_link,0.0244185811073,-0.12024668924,-0.989374871672,-0.0779860880394,1.0,0.0,0.0,0.0,1.0,0.0,0.0,0.0,1.0,0.331437885761,-0.0336112305522,0.0220598243177,1.21846967915e-07,0.0,0.0,0.0,1.21846967915e-07,0.0,0.0,0.0,1.21846967915e-07,0.32361945,1.95152335,8.07087295,9e-08,0.0,0.0,0.0,9e-08,0.0,0.0,0.0,9e-08
1539875279138424776,610,1539875279138198120,base_link,0.0366911715057,-0.119401693114,-0.979942837108,-0.155270826674,1.0,0.0,0.0,0.0,1.0,0.0,0.0,0.0,1.0,-0.145815834403,-0.0520113259554,-0.277191191912,1.21846967915e-07,0.0,0.0,0.0,1.21846967915e-07,0.0,0.0,0.0,1.21846967915e-07,0.67665885,0.87279185,11.4933938,9e-08,0.0,0.0,0.0,9e-08,0.0,0.0,0.0,9e-08
1539875279566330696,611,1539875279565996520,base_link,0.00597798627449,-0.0889141093059,-0.98060005247,-0.174591185182,1.0,0.0,0.0,0.0,1.0,0.0,0.0,0.0,1.0,-0.109130658209,-0.219655871391,0.0552206896245,1.21846967915e-07,0.0,0.0,0.0,1.21846967915e-07,0.0,0.0,0.0,1.21846967915e-07,0.7060788,-0.00980665,11.69933345,9e-08,0.0,0.0,0.0,9e-08,0.0,0.0,0.0,9e-08
1539875279847663560,612,1539875279847465480,base_link,-0.0182289295648,-0.0681703459324,-0.984914221995,-0.158001535987,1.0,0.0,0.0,0.0,1.0,0.0,0.0,0.0,1.0,-0.163710147142,-0.160382136703,0.160578802228,1.21846967915e-07,0.0,0.0,0.0,1.21846967915e-07,0.0,0.0,0.0,1.21846967915e-07,0.7256921,0.6668522,12.87613145,9e-08,0.0,0.0,0.0,9e-08,0.0,0.0,0.0,9e-08
1539875280254933704,613,1539875280254574760,base_link,-0.0276428751351,0.00233271173337,-0.991003454872,-0.130929684726,1.0,0.0,0.0,0.0,1.0,0.0,0.0,0.0,1.0,-0.132594034076,-0.0630906075239,0.0982860699296,1.21846967915e-07,0.0,0.0,0.0,1.21846967915e-07,0.0,0.0,0.0,1.21846967915e-07,0.1372931,0.7649187,10.0420096,9e-08,0.0,0.0,0.0,9e-08,0.0,0.0,0.0,9e-08
1539875280775632776,614,1539875280775271304,base_link,-0.0307708253412,-0.0254834733888,-0.991695422403,-0.122245401048,1.0,0.0,0.0,0.0,1.0,0.0,0.0,0.0,1.0,-0.201811373234,0.036150611937,0.042082414031,1.21846967915e-07,0.0,0.0,0.0,1.21846967915e-07,0.0,0.0,0.0,1.21846967915e-07,0.196133,0.5491724,8.629852,9e-08,0.0,0.0,0.0,9e-08,0.0,0.0,0.0,9e-08
1539875281076497512,615,1539875281076283368,base_link,-0.0222045463047,-0.00470490829125,-0.991773632561,-0.125975726706,1.0,0.0,0.0,0.0,1.0,0.0,0.0,0.0,1.0,-0.407720774412,0.0692996531725,-0.0207005143166,1.21846967915e-07,0.0,0.0,0.0,1.21846967915e-07,0.0,0.0,0.0,1.21846967915e-07,-0.00980665,0.85317855,10.4538889,9e-08,0.0,0.0,0.0,9e-08,0.0,0.0,0.0,9e-08
1539875281461029704,616,1539875281460731272,base_link,-0.0016253195607,0.0498969317248,-0.987155856147,-0.151759580306,1.0,0.0,0.0,0.0,1.0,0.0,0.0,0.0,1.0,0.508955776691,-0.0128560159355,-0.123370595276,1.21846967915e-07,0.0,0.0,0.0,1.21846967915e-07,0.0,0.0,0.0,1.21846967915e-07,-0.0784532,-0.81395195,6.08992965,9e-08,0.0,0.0,0.0,9e-08,0.0,0.0,0.0,9e-08
1539875281931618536,617,1539875281931143080,base_link,-0.0193286948399,-0.0707382291801,-0.991734787641,-0.105283500468,1.0,0.0,0.0,0.0,1.0,0.0,0.0,0.0,1.0,0.173684462905,-0.0086914440617,0.310432255268,1.21846967915e-07,0.0,0.0,0.0,1.21846967915e-07,0.0,0.0,0.0,1.21846967915e-07,0.784532,0.61781895,11.91507975,9e-08,0.0,0.0,0.0,9e-08,0.0,0.0,0.0,9e-08
1539875282290586344,618,1539875282290242216,base_link,-0.0140840783207,-0.0876322095607,-0.992281069346,-0.0866055079279,1.0,0.0,0.0,0.0,1.0,0.0,0.0,0.0,1.0,0.137438848615,0.0693188011646,-0.0762493088841,1.21846967915e-07,0.0,0.0,0.0,1.21846967915e-07,0.0,0.0,0.0,1.21846967915e-07,0.4511059,1.42196425,8.6494653,9e-08,0.0,0.0,0.0,9e-08,0.0,0.0,0.0,9e-08
1539875282633543624,619,1539875282633252136,base_link,-0.0100960788947,-0.132116513568,-0.98462525935,-0.113826159929,1.0,0.0,0.0,0.0,1.0,0.0,0.0,0.0,1.0,0.395140230656,0.000608980888501,-0.198799699545,1.21846967915e-07,0.0,0.0,0.0,1.21846967915e-07,0.0,0.0,0.0,1.21846967915e-07,0.40207265,1.0395049,9.5516771,9e-08,0.0,0.0,0.0,9e-08,0.0,0.0,0.0,9e-08
1539875283170742472,620,1539875283170461928,base_link,-0.0329691278233,-0.223429906976,-0.960765193331,-0.161004212873,1.0,0.0,0.0,0.0,1.0,0.0,0.0,0.0,1.0,0.245549201965,-0.108229853213,-0.138018295169,1.21846967915e-07,0.0,0.0,0.0,1.21846967915e-07,0.0,0.0,0.0,1.21846967915e-07,0.8825985,0.44129925,10.22833595,9e-08,0.0,0.0,0.0,9e-08,0.0,0.0,0.0,9e-08
1539875283571808712,621,1539875283571584616,base_link,-0.0674781882196,-0.284490519732,-0.935488166374,-0.198428145362,1.0,0.0,0.0,0.0,1.0,0.0,0.0,0.0,1.0,0.245774656534,-0.211936235428,-0.175839856267,1.21846967915e-07,0.0,0.0,0.0,1.21846967915e-07,0.0,0.0,0.0,1.21846967915e-07,1.20621795,0.69627215,11.03248125,9e-08,0.0,0.0,0.0,9e-08,0.0,0.0,0.0,9e-08
1539875283855825448,622,1539875283855327080,base_link,-0.0880178709634,-0.287395753829,-0.923957076104,-0.236558357682,1.0,0.0,0.0,0.0,1.0,0.0,0.0,0.0,1.0,0.0703711435199,-0.128416270018,-0.328957259655,1.21846967915e-07,0.0,0.0,0.0,1.21846967915e-07,0.0,0.0,0.0,1.21846967915e-07,1.6475172,1.8240369,11.7483667,9e-08,0.0,0.0,0.0,9e-08,0.0,0.0,0.0,9e-08
1539875284179051432,623,1539875284178404488,base_link,-0.106212927129,-0.321819218069,-0.892689487005,-0.297080266566,1.0,0.0,0.0,0.0,1.0,0.0,0.0,0.0,1.0,0.265099495649,-0.258744716644,-0.375206917524,1.21846967915e-07,0.0,0.0,0.0,1.21846967915e-07,0.0,0.0,0.0,1.21846967915e-07,1.55925735,1.32389775,13.0232312,9e-08,0.0,0.0,0.0,9e-08,0.0,0.0,0.0,9e-08
1539875284578029512,624,1539875284577807880,base_link,-0.149900836787,-0.335997835559,-0.855256817174,-0.364925979217,1.0,0.0,0.0,0.0,1.0,0.0,0.0,0.0,1.0,0.291124284267,-0.37803837657,-0.229736223817,1.21846967915e-07,0.0,0.0,0.0,1.21846967915e-07,0.0,0.0,0.0,1.21846967915e-07,1.9809433,0.67665885,14.68055505,9e-08,0.0,0.0,0.0,9e-08,0.0,0.0,0.0,9e-08
1539875284994616776,625,1539875284993187560,base_link,-0.206506540005,-0.328210689407,-0.823981323605,-0.413143523058,1.0,0.0,0.0,0.0,1.0,0.0,0.0,0.0,1.0,0.111695058644,-0.325887829065,-0.195903792977,1.21846967915e-07,0.0,0.0,0.0,1.21846967915e-07,0.0,0.0,0.0,1.21846967915e-07,2.5889556,1.2748645,14.3765489,9e-08,0.0,0.0,0.0,9e-08,0.0,0.0,0.0,9e-08
1539875285319820424,626,1539875285319019688,base_link,-0.236427150169,-0.311931435317,-0.799440335855,-0.455736910654,1.0,0.0,0.0,0.0,1.0,0.0,0.0,0.0,1.0,-0.0642181187868,-0.295143485069,-0.20175768435,1.21846967915e-07,0.0,0.0,0.0,1.21846967915e-07,0.0,0.0,0.0,1.21846967915e-07,2.5105024,2.06920315,14.44519545,9e-08,0.0,0.0,0.0,9e-08,0.0,0.0,0.0,9e-08
1539875285774803272,627,1539875285774569672,base_link,-0.231137213368,-0.279457532903,-0.752661173095,-0.549527282685,1.0,0.0,0.0,0.0,1.0,0.0,0.0,0.0,1.0,-0.10392908752,-0.223399683833,-0.401836752892,1.21846967915e-07,0.0,0.0,0.0,1.21846967915e-07,0.0,0.0,0.0,1.21846967915e-07,1.2944778,1.176798,12.7094184,9e-08,0.0,0.0,0.0,9e-08,0.0,0.0,0.0,9e-08
1539875286178191464,628,1539875286177938152,base_link,-0.267753462976,-0.260711513693,-0.700907289628,-0.607508486392,1.0,0.0,0.0,0.0,1.0,0.0,0.0,0.0,1.0,0.176351338625,-0.413960278034,-0.180266708136,1.21846967915e-07,0.0,0.0,0.0,1.21846967915e-07,0.0,0.0,0.0,1.21846967915e-07,1.4709975,0.1176798,16.0044528,9e-08,0.0,0.0,0.0,9e-08,0.0,0.0,0.0,9e-08
1539875286525093128,629,1539875286524669768,base_link,-0.30262974546,-0.20991556483,-0.674559635599,-0.639781205434,1.0,0.0,0.0,0.0,1.0,0.0,0.0,0.0,1.0,-0.845156788826,-0.352478057146,-0.0585556849837,1.21846967915e-07,0.0,0.0,0.0,1.21846967915e-07,0.0,0.0,0.0,1.21846967915e-07,1.67693715,1.8240369,16.7889848,9e-08,0.0,0.0,0.0,9e-08,0.0,0.0,0.0,9e-08
1539875286927083880,630,1539875286924075528,base_link,-0.219317985213,-0.105538338461,-0.667049877031,-0.704134747069,1.0,0.0,0.0,0.0,1.0,0.0,0.0,0.0,1.0,-0.616274535656,-0.0370238088071,-0.282190829515,1.21846967915e-07,0.0,0.0,0.0,1.21846967915e-07,0.0,0.0,0.0,1.21846967915e-07,0.44129925,1.48080415,9.77723005,9e-08,0.0,0.0,0.0,9e-08,0.0,0.0,0.0,9e-08
1539875287325758344,631,1539875287325219144,base_link,-0.135073210092,-0.0268091302441,-0.633610102073,-0.761298060553,1.0,0.0,0.0,0.0,1.0,0.0,0.0,0.0,1.0,-0.364968895912,-0.0984892621636,-0.146955266595,1.21846967915e-07,0.0,0.0,0.0,1.21846967915e-07,0.0,0.0,0.0,1.21846967915e-07,0.0,0.40207265,12.97419795,9e-08,0.0,0.0,0.0,9e-08,0.0,0.0,0.0,9e-08
1539875287777728328,632,1539875287777223560,base_link,-0.102336333404,0.000311703099353,-0.62048999252,-0.777508422391,1.0,0.0,0.0,0.0,1.0,0.0,0.0,0.0,1.0,-0.022086629644,0.0624709539115,-0.0569629333913,1.21846967915e-07,0.0,0.0,0.0,1.21846967915e-07,0.0,0.0,0.0,1.21846967915e-07,-0.30400615,0.8433719,6.3547092,9e-08,0.0,0.0,0.0,9e-08,0.0,0.0,0.0,9e-08
1539875288126270664,633,1539875288126059624,base_link,-0.0516446559393,0.0225524693912,-0.610976578962,-0.789640320397,1.0,0.0,0.0,0.0,1.0,0.0,0.0,0.0,1.0,-0.371549099684,0.111535012722,-0.0802799984813,1.21846967915e-07,0.0,0.0,0.0,1.21846967915e-07,0.0,0.0,0.0,1.21846967915e-07,-0.38245935,0.89240515,8.56120545,9e-08,0.0,0.0,0.0,9e-08,0.0,0.0,0.0,9e-08
1539875288578875464,634,1539875288578571688,base_link,-0.0116289163132,0.0194518217471,-0.606185094771,-0.795000645166,1.0,0.0,0.0,0.0,1.0,0.0,0.0,0.0,1.0,-0.107508562505,0.118706323206,0.0424660593271,1.21846967915e-07,0.0,0.0,0.0,1.21846967915e-07,0.0,0.0,0.0,1.21846967915e-07,-0.3726527,0.16671305,7.79628675,9e-08,0.0,0.0,0.0,9e-08,0.0,0.0,0.0,9e-08
1539875288917550760,635,1539875288917254184,base_link,0.0282775054199,0.0253352940245,-0.623211966308,-0.781130815302,1.0,0.0,0.0,0.0,1.0,0.0,0.0,0.0,1.0,-0.241547316313,0.139632433653,0.147986397147,1.21846967915e-07,0.0,0.0,0.0,1.21846967915e-07,0.0,0.0,0.0,1.21846967915e-07,-0.36284605,0.36284605,7.83551335,9e-08,0.0,0.0,0.0,9e-08,0.0,0.0,0.0,9e-08
1539875289301521000,636,1539875289300975432,base_link,0.0737131794866,0.0413433658191,-0.640768778203,-0.763067799185,1.0,0.0,0.0,0.0,1.0,0.0,0.0,0.0,1.0,-0.13778847456,0.0651013478637,0.124243199825,1.21846967915e-07,0.0,0.0,0.0,1.21846967915e-07,0.0,0.0,0.0,1.21846967915e-07,0.2745862,1.06892485,11.7287534,9e-08,0.0,0.0,0.0,9e-08,0.0,0.0,0.0,9e-08
1539875289556893928,637,1539875289556599528,base_link,0.093576704947,0.0261954450383,-0.644002855626,-0.758826410252,1.0,0.0,0.0,0.0,1.0,0.0,0.0,0.0,1.0,-0.0452572479844,0.154252335429,-0.0639503225684,1.21846967915e-07,0.0,0.0,0.0,1.21846967915e-07,0.0,0.0,0.0,1.21846967915e-07,-0.38245935,1.1571847,7.44324735,9e-08,0.0,0.0,0.0,9e-08,0.0,0.0,0.0,9e-08
1539875290016937032,638,1539875290016535208,base_link,0.0895744660744,0.0014096907857,-0.632261578372,-0.769558135759,1.0,0.0,0.0,0.0,1.0,0.0,0.0,0.0,1.0,0.266694545746,0.0567752309144,-0.0136282267049,1.21846967915e-07,0.0,0.0,0.0,1.21846967915e-07,0.0,0.0,0.0,1.21846967915e-07,-0.36284605,0.2353596,7.14904785,9e-08,0.0,0.0,0.0,9e-08,0.0,0.0,0.0,9e-08
1539875290339270760,639,1539875290338626280,base_link,0.0673462477975,-0.0162574529999,-0.644627984096,-0.761350734058,1.0,0.0,0.0,0.0,1.0,0.0,0.0,0.0,1.0,0.16915486753,-5.70270749449e-05,0.201297685504,1.21846967915e-07,0.0,0.0,0.0,1.21846967915e-07,0.0,0.0,0.0,1.21846967915e-07,0.2157463,0.1176798,12.18966595,9e-08,0.0,0.0,0.0,9e-08,0.0,0.0,0.0,9e-08
1539875290580787816,640,1539875290580434504,base_link,0.0638330625493,-0.0204025420567,-0.668784693175,-0.740429679698,1.0,0.0,0.0,0.0,1.0,0.0,0.0,0.0,1.0,-0.0589270479977,-0.0139459725469,0.250214636326,1.21846967915e-07,0.0,0.0,0.0,1.21846967915e-07,0.0,0.0,0.0,1.21846967915e-07,0.08825985,0.48052585,10.6696352,9e-08,0.0,0.0,0.0,9e-08,0.0,0.0,0.0,9e-08
1539875290996312040,641,1539875290995584136,base_link,0.0921855114785,0.0124629295723,-0.69879577414,-0.709246764465,1.0,0.0,0.0,0.0,1.0,0.0,0.0,0.0,1.0,-0.235251903534,-0.0812881439924,0.0996136590838,1.21846967915e-07,0.0,0.0,0.0,1.21846967915e-07,0.0,0.0,0.0,1.21846967915e-07,0.2157463,0.196133,14.2392558,9e-08,0.0,0.0,0.0,9e-08,0.0,0.0,0.0,9e-08
1539875291325188744,642,1539875291324199176,base_link,0.0735555696915,0.00760037713214,-0.719002145896,-0.691062751587,1.0,0.0,0.0,0.0,1.0,0.0,0.0,0.0,1.0,0.267688363791,-0.0834375172853,0.186905100942,1.21846967915e-07,0.0,0.0,0.0,1.21846967915e-07,0.0,0.0,0.0,1.21846967915e-07,-0.2353596,0.196133,10.6304086,9e-08,0.0,0.0,0.0,9e-08,0.0,0.0,0.0,9e-08
1539875291715713000,643,1539875291715431208,base_link,0.0341600941599,-0.0158479560494,-0.738200223847,-0.673529776452,1.0,0.0,0.0,0.0,1.0,0.0,0.0,0.0,1.0,0.138608917594,-0.0718546584249,0.0454692579806,1.21846967915e-07,0.0,0.0,0.0,1.21846967915e-07,0.0,0.0,0.0,1.21846967915e-07,-0.40207265,0.83356525,10.91480145,9e-08,0.0,0.0,0.0,9e-08,0.0,0.0,0.0,9e-08
1539875292151515304,644,1539875292151114664,base_link,0.00765380434768,-0.0185974487831,-0.739655803341,-0.672684804914,1.0,0.0,0.0,0.0,1.0,0.0,0.0,0.0,1.0,0.117624267936,-0.0628444850445,-0.0563448145986,1.21846967915e-07,0.0,0.0,0.0,1.21846967915e-07,0.0,0.0,0.0,1.21846967915e-07,-0.36284605,0.79433865,11.30706745,9e-08,0.0,0.0,0.0,9e-08,0.0,0.0,0.0,9e-08
1539875292490387432,645,1539875292489699912,base_link,-0.0373865677329,-0.0540838100269,-0.737637215567,-0.671988485211,1.0,0.0,0.0,0.0,1.0,0.0,0.0,0.0,1.0,0.576735854149,-0.043083190918,0.0414486825466,1.21846967915e-07,0.0,0.0,0.0,1.21846967915e-07,0.0,0.0,0.0,1.21846967915e-07,-0.1569064,0.20593965,11.0226746,9e-08,0.0,0.0,0.0,9e-08,0.0,0.0,0.0,9e-08
1539875292860651304,646,1539875292860305448,base_link,-0.114319390714,-0.125482557743,-0.735168389943,-0.656287012699,1.0,0.0,0.0,0.0,1.0,0.0,0.0,0.0,1.0,0.0241413135082,-0.0561114773154,0.0994435548782,1.21846967915e-07,0.0,0.0,0.0,1.21846967915e-07,0.0,0.0,0.0,1.21846967915e-07,0.0784532,0.57859235,11.56204035,9e-08,0.0,0.0,0.0,9e-08,0.0,0.0,0.0,9e-08
1539875293260753288,647,1539875293260464808,base_link,-0.0903586241439,-0.104426637368,-0.741959206677,-0.656069304326,1.0,0.0,0.0,0.0,1.0,0.0,0.0,0.0,1.0,-0.205676078796,0.0990418493748,-0.091602101922,1.21846967915e-07,0.0,0.0,0.0,1.21846967915e-07,0.0,0.0,0.0,1.21846967915e-07,-0.2353596,1.18660465,9.60071035,9e-08,0.0,0.0,0.0,9e-08,0.0,0.0,0.0,9e-08
1539875293636052680,648,1539875293635629512,base_link,-0.0654079557598,-0.102383184919,-0.726784104272,-0.676035759814,1.0,0.0,0.0,0.0,1.0,0.0,0.0,0.0,1.0,0.265350043774,0.0603352822363,-0.171682879329,1.21846967915e-07,0.0,0.0,0.0,1.21846967915e-07,0.0,0.0,0.0,1.21846967915e-07,-0.75511205,0.5687857,7.16866115,9e-08,0.0,0.0,0.0,9e-08,0.0,0.0,0.0,9e-08
1539875294096756424,649,1539875294096312328,base_link,-0.14996765156,-0.187938540428,-0.686120276836,-0.686605981784,1.0,0.0,0.0,0.0,1.0,0.0,0.0,0.0,1.0,0.538392305374,-0.080094024539,-0.070040859282,1.21846967915e-07,0.0,0.0,0.0,1.21846967915e-07,0.0,0.0,0.0,1.21846967915e-07,0.00980665,0.8825985,9.9635564,9e-08,0.0,0.0,0.0,9e-08,0.0,0.0,0.0,9e-08
1539875294443989896,650,1539875294443014696,base_link,-0.182038451849,-0.203380598138,-0.66560688784,-0.694597585087,1.0,0.0,0.0,0.0,1.0,0.0,0.0,0.0,1.0,0.0335197150707,-0.14414767921,-0.0888381004333,1.21846967915e-07,0.0,0.0,0.0,1.21846967915e-07,0.0,0.0,0.0,1.21846967915e-07,0.02941995,1.16699135,11.0619012,9e-08,0.0,0.0,0.0,9e-08,0.0,0.0,0.0,9e-08
1539875294895782856,651,1539875294895301096,base_link,-0.207062414104,-0.229068329489,-0.61327571412,-0.727011523678,1.0,0.0,0.0,0.0,1.0,0.0,0.0,0.0,1.0,0.209954172373,-0.0815312191844,-0.369477212429,1.21846967915e-07,0.0,0.0,0.0,1.21846967915e-07,0.0,0.0,0.0,1.21846967915e-07,-0.20593965,1.63771055,8.3748791,9e-08,0.0,0.0,0.0,9e-08,0.0,0.0,0.0,9e-08
1539875295368492776,652,1539875295368082760,base_link,-0.277512943213,-0.262654907343,-0.505981273355,-0.773292905057,1.0,0.0,0.0,0.0,1.0,0.0,0.0,0.0,1.0,0.286262094975,-0.314950764179,-0.295492470264,1.21846967915e-07,0.0,0.0,0.0,1.21846967915e-07,0.0,0.0,0.0,1.21846967915e-07,0.2353596,0.7649187,12.356379,9e-08,0.0,0.0,0.0,9e-08,0.0,0.0,0.0,9e-08
1539875295765366216,653,1539875295764850984,base_link,-0.278716429594,-0.220583450543,-0.447830158929,-0.820431741204,1.0,0.0,0.0,0.0,1.0,0.0,0.0,0.0,1.0,-0.187482774258,-0.27891433239,-0.309185743332,1.21846967915e-07,0.0,0.0,0.0,1.21846967915e-07,0.0,0.0,0.0,1.21846967915e-07,0.392266,1.08853815,10.11065615,9e-08,0.0,0.0,0.0,9e-08,0.0,0.0,0.0,9e-08
1539875296057007304,654,1539875296056751336,base_link,-0.278802691002,-0.18881171563,-0.401029010619,-0.851935988307,1.0,0.0,0.0,0.0,1.0,0.0,0.0,0.0,1.0,-0.313427984715,-0.347808629274,-0.274053007364,1.21846967915e-07,0.0,0.0,0.0,1.21846967915e-07,0.0,0.0,0.0,1.21846967915e-07,0.5099458,1.02969825,12.748645,9e-08,0.0,0.0,0.0,9e-08,0.0,0.0,0.0,9e-08
1539875296508678120,655,1539875296508120776,base_link,-0.316641697478,-0.140312635249,-0.340204637594,-0.874248937298,1.0,0.0,0.0,0.0,1.0,0.0,0.0,0.0,1.0,0.135451167822,-0.340421169996,-0.117278650403,1.21846967915e-07,0.0,0.0,0.0,1.21846967915e-07,0.0,0.0,0.0,1.21846967915e-07,0.53936575,0.9610517,14.5726819,9e-08,0.0,0.0,0.0,9e-08,0.0,0.0,0.0,9e-08
1539875296913828360,656,1539875296913575624,base_link,-0.337791235901,-0.0930014622006,-0.2844515649,-0.892376106921,1.0,0.0,0.0,0.0,1.0,0.0,0.0,0.0,1.0,0.0523503944278,-0.327471315861,-0.234104156494,1.21846967915e-07,0.0,0.0,0.0,1.21846967915e-07,0.0,0.0,0.0,1.21846967915e-07,0.59820565,1.176798,14.26867575,9e-08,0.0,0.0,0.0,9e-08,0.0,0.0,0.0,9e-08
1539875297324974664,657,1539875297324621736,base_link,-0.352655472955,-0.0521335712678,-0.223862407675,-0.907084246678,1.0,0.0,0.0,0.0,1.0,0.0,0.0,0.0,1.0,-0.154882714152,-0.261767596006,-0.260877043009,1.21846967915e-07,0.0,0.0,0.0,1.21846967915e-07,0.0,0.0,0.0,1.21846967915e-07,0.8629852,1.87307015,14.9649479,9e-08,0.0,0.0,0.0,9e-08,0.0,0.0,0.0,9e-08
1539875297713456104,658,1539875297713074888,base_link,-0.334076499034,-0.0295770383934,-0.146272265986,-0.930657034463,1.0,0.0,0.0,0.0,1.0,0.0,0.0,0.0,1.0,-0.104234300554,-0.250719636679,-0.327789127827,1.21846967915e-07,0.0,0.0,0.0,1.21846967915e-07,0.0,0.0,0.0,1.21846967915e-07,0.48052585,0.980665,12.54270535,9e-08,0.0,0.0,0.0,9e-08,0.0,0.0,0.0,9e-08
1539875298038599016,659,1539875298038136424,base_link,-0.344679709918,-0.0155503055271,-0.08710474948,-0.934540982615,1.0,0.0,0.0,0.0,1.0,0.0,0.0,0.0,1.0,0.281412392855,-0.212661415339,-0.346878647804,1.21846967915e-07,0.0,0.0,0.0,1.21846967915e-07,0.0,0.0,0.0,1.21846967915e-07,0.08825985,1.0198916,11.4149406,9e-08,0.0,0.0,0.0,9e-08,0.0,0.0,0.0,9e-08
1539875298526446184,660,1539875298526057064,base_link,-0.343865790604,0.0175170794428,-0.00167603954142,-0.938853908162,1.0,0.0,0.0,0.0,1.0,0.0,0.0,0.0,1.0,-0.22037178278,-0.253934115171,-0.253189265728,1.21846967915e-07,0.0,0.0,0.0,1.21846967915e-07,0.0,0.0,0.0,1.21846967915e-07,0.48052585,1.1179581,14.317709,9e-08,0.0,0.0,0.0,9e-08,0.0,0.0,0.0,9e-08
1539875298878763464,661,1539875298878027048,base_link,-0.287732663485,0.0398306731085,0.0381028433424,-0.956123216522,1.0,0.0,0.0,0.0,1.0,0.0,0.0,0.0,1.0,-0.394466876984,-0.135432049632,-0.141352131963,1.21846967915e-07,0.0,0.0,0.0,1.21846967915e-07,0.0,0.0,0.0,1.21846967915e-07,0.20593965,0.8825985,12.4740588,9e-08,0.0,0.0,0.0,9e-08,0.0,0.0,0.0,9e-08
1539875299222516520,662,1539875299221791496,base_link,-0.19734759316,0.0394063880438,0.0710737767052,-0.976959355511,1.0,0.0,0.0,0.0,1.0,0.0,0.0,0.0,1.0,-0.737010955811,0.0263419263065,-0.221094414592,1.21846967915e-07,0.0,0.0,0.0,1.21846967915e-07,0.0,0.0,0.0,1.21846967915e-07,0.10787315,1.40235095,12.4740588,9e-08,0.0,0.0,0.0,9e-08,0.0,0.0,0.0,9e-08
1539875299599625224,663,1539875299599280296,base_link,-0.110461644578,0.0164208815415,0.111662714026,-0.987451273746,1.0,0.0,0.0,0.0,1.0,0.0,0.0,0.0,1.0,-0.29674744606,0.0208348110318,-0.18662917614,1.21846967915e-07,0.0,0.0,0.0,1.21846967915e-07,0.0,0.0,0.0,1.21846967915e-07,-0.4707192,0.8629852,9.8458766,9e-08,0.0,0.0,0.0,9e-08,0.0,0.0,0.0,9e-08
1539875300009862632,664,1539875300009270728,base_link,-0.058300150196,8.435104263e-05,0.132007939497,-0.989532712588,1.0,0.0,0.0,0.0,1.0,0.0,0.0,0.0,1.0,-0.283912181854,0.0636184811592,-0.05411375314,1.21846967915e-07,0.0,0.0,0.0,1.21846967915e-07,0.0,0.0,0.0,1.21846967915e-07,-0.5491724,0.7649187,10.6500219,9e-08,0.0,0.0,0.0,9e-08,0.0,0.0,0.0,9e-08
1539875300404423048,665,1539875300402942600,base_link,-0.0383937958437,-0.0178695105777,0.131843904795,-0.990365478902,1.0,0.0,0.0,0.0,1.0,0.0,0.0,0.0,1.0,0.0141086429358,0.127622157335,0.0348644964397,1.21846967915e-07,0.0,0.0,0.0,1.21846967915e-07,0.0,0.0,0.0,1.21846967915e-07,-0.7453054,0.06864655,8.87501825,9e-08,0.0,0.0,0.0,9e-08,0.0,0.0,0.0,9e-08
1539875300853743240,666,1539875300852697352,base_link,-0.0289326753206,-0.0454518286292,0.102392445553,-0.993283856039,1.0,0.0,0.0,0.0,1.0,0.0,0.0,0.0,1.0,-0.155901238322,0.111838370562,0.131606832147,1.21846967915e-07,0.0,0.0,0.0,1.21846967915e-07,0.0,0.0,0.0,1.21846967915e-07,-1.01008495,0.46091255,5.5309506,9e-08,0.0,0.0,0.0,9e-08,0.0,0.0,0.0,9e-08
1539875301335910952,667,1539875301335428232,base_link,-0.00342124694604,-0.078518043052,0.0858112375166,-0.993206747611,1.0,0.0,0.0,0.0,1.0,0.0,0.0,0.0,1.0,0.28245818615,0.0921765565872,-0.00326979998499,1.21846967915e-07,0.0,0.0,0.0,1.21846967915e-07,0.0,0.0,0.0,1.21846967915e-07,-1.14737805,0.6472389,7.3746008,9e-08,0.0,0.0,0.0,9e-08,0.0,0.0,0.0,9e-08
1539875301680536136,668,1539875301680186824,base_link,3.56800152732e-05,-0.0924546697458,0.0973199597935,-0.990949523535,1.0,0.0,0.0,0.0,1.0,0.0,0.0,0.0,1.0,-0.00675393315032,0.0461637936532,-0.0776560530066,1.21846967915e-07,0.0,0.0,0.0,1.21846967915e-07,0.0,0.0,0.0,1.21846967915e-07,-1.08853815,0.91201845,8.85540495,9e-08,0.0,0.0,0.0,9e-08,0.0,0.0,0.0,9e-08
1539875302078501480,669,1539875302078288968,base_link,0.00777075465115,-0.0985061981106,0.101824842225,-0.989882743466,1.0,0.0,0.0,0.0,1.0,0.0,0.0,0.0,1.0,-0.164174795151,0.0350306257606,-0.000716723618098,1.21846967915e-07,0.0,0.0,0.0,1.21846967915e-07,0.0,0.0,0.0,1.21846967915e-07,-1.0395049,0.4118793,8.67888525,9e-08,0.0,0.0,0.0,9e-08,0.0,0.0,0.0,9e-08
1539875302445965256,670,1539875302445336616,base_link,-0.027563628824,-0.0933692030648,0.094383007104,-0.990764495859,1.0,0.0,0.0,0.0,1.0,0.0,0.0,0.0,1.0,0.180358707905,-0.0308429021388,0.147352680564,1.21846967915e-07,0.0,0.0,0.0,1.21846967915e-07,0.0,0.0,0.0,1.21846967915e-07,-0.8433719,0.0980665,10.36562905,9e-08,0.0,0.0,0.0,9e-08,0.0,0.0,0.0,9e-08
1539875302898952808,671,1539875302898697704,base_link,-0.0366465231876,-0.0904248388839,0.0707594766411,-0.992710167832,1.0,0.0,0.0,0.0,1.0,0.0,0.0,0.0,1.0,0.0601774640381,-0.0128060216084,0.0220353063196,1.21846967915e-07,0.0,0.0,0.0,1.21846967915e-07,0.0,0.0,0.0,1.21846967915e-07,-0.99047165,0.83356525,7.54131385,9e-08,0.0,0.0,0.0,9e-08,0.0,0.0,0.0,9e-08
1539875303400756200,672,1539875303395330568,base_link,-0.0277145839231,-0.0813135902911,0.069604428198,-0.993868817021,1.0,0.0,0.0,0.0,1.0,0.0,0.0,0.0,1.0,0.024676611647,-0.0380709394813,-0.00264427391812,1.21846967915e-07,0.0,0.0,0.0,1.21846967915e-07,0.0,0.0,0.0,1.21846967915e-07,-0.95124505,0.1372931,6.77639515,9e-08,0.0,0.0,0.0,9e-08,0.0,0.0,0.0,9e-08
1539875303765048040,673,1539875303764753096,base_link,-0.0444169926911,-0.0661907083225,0.0579431895461,-0.995132407108,1.0,0.0,0.0,0.0,1.0,0.0,0.0,0.0,1.0,0.0304815806448,-0.0543056577444,0.12806583941,1.21846967915e-07,0.0,0.0,0.0,1.21846967915e-07,0.0,0.0,0.0,1.21846967915e-07,-0.8433719,0.91201845,8.7867584,9e-08,0.0,0.0,0.0,9e-08,0.0,0.0,0.0,9e-08
1539875304247208072,674,1539875304246449736,base_link,-0.0415422046906,-0.0503731091045,0.0503860471666,-0.996593217597,1.0,0.0,0.0,0.0,1.0,0.0,0.0,0.0,1.0,0.112710677087,-0.0745989903808,-0.00758380116895,1.21846967915e-07,0.0,0.0,0.0,1.21846967915e-07,0.0,0.0,0.0,1.21846967915e-07,-0.32361945,0.83356525,11.46397385,9e-08,0.0,0.0,0.0,9e-08,0.0,0.0,0.0,9e-08
1539875304684465128,675,1539875304683810152,base_link,-0.0450315640606,-0.0322421688486,0.0551762291631,-0.996939408651,1.0,0.0,0.0,0.0,1.0,0.0,0.0,0.0,1.0,0.0653954967856,-0.105267718434,-0.0662489160895,1.21846967915e-07,0.0,0.0,0.0,1.21846967915e-07,0.0,0.0,0.0,1.21846967915e-07,-0.36284605,1.10815145,11.8268199,9e-08,0.0,0.0,0.0,9e-08,0.0,0.0,0.0,9e-08
1539875305090106824,676,1539875305089729352,base_link,-0.0344278937829,-0.015961391766,0.0739819474153,-0.996537317695,1.0,0.0,0.0,0.0,1.0,0.0,0.0,0.0,1.0,-0.110906027257,-0.112053185701,-0.0718700811267,1.21846967915e-07,0.0,0.0,0.0,1.21846967915e-07,0.0,0.0,0.0,1.21846967915e-07,0.00980665,0.50013915,11.58165365,9e-08,0.0,0.0,0.0,9e-08,0.0,0.0,0.0,9e-08
1539875305531043336,677,1539875305530605096,base_link,-0.0449539345155,0.00598818576019,0.0776165711106,-0.995951280581,1.0,0.0,0.0,0.0,1.0,0.0,0.0,0.0,1.0,0.0268658734858,-0.049517352134,0.01179896947,1.21846967915e-07,0.0,0.0,0.0,1.21846967915e-07,0.0,0.0,0.0,1.21846967915e-07,-0.16671305,0.8041453,9.87529655,9e-08,0.0,0.0,0.0,9e-08,0.0,0.0,0.0,9e-08
1539875305847676264,678,1539875305847310248,base_link,-0.0231623768538,0.0148343505779,0.0765598582629,-0.996685524348,1.0,0.0,0.0,0.0,1.0,0.0,0.0,0.0,1.0,-0.0844002962112,0.0427657142282,-0.0406525209546,1.21846967915e-07,0.0,0.0,0.0,1.21846967915e-07,0.0,0.0,0.0,1.21846967915e-07,0.26477955,1.0395049,13.52337035,9e-08,0.0,0.0,0.0,9e-08,0.0,0.0,0.0,9e-08
1539875306249863432,679,1539875306249397800,base_link,-0.0641661060807,0.0292159144477,0.0519183524053,-0.99615943797,1.0,0.0,0.0,0.0,1.0,0.0,0.0,0.0,1.0,0.106389813125,-0.077012181282,0.332151085138,1.21846967915e-07,0.0,0.0,0.0,1.21846967915e-07,0.0,0.0,0.0,1.21846967915e-07,0.38245935,-0.4314926,12.4152189,9e-08,0.0,0.0,0.0,9e-08,0.0,0.0,0.0,9e-08
1539875306657060648,680,1539875306656725576,base_link,-0.022189443833,0.0188142099007,0.0122114464211,-0.999502143402,1.0,0.0,0.0,0.0,1.0,0.0,0.0,0.0,1.0,-0.315428495407,0.151429474354,0.045979578048,1.21846967915e-07,0.0,0.0,0.0,1.21846967915e-07,0.0,0.0,0.0,1.21846967915e-07,-0.1765197,1.14737805,7.5903471,9e-08,0.0,0.0,0.0,9e-08,0.0,0.0,0.0,9e-08
1539875306934193704,681,1539875306933851624,base_link,-0.000963700175385,-0.000684353268157,0.0188223540285,-0.99982214515,1.0,0.0,0.0,0.0,1.0,0.0,0.0,0.0,1.0,0.00825394503772,0.120228298008,-0.0865911692381,1.21846967915e-07,0.0,0.0,0.0,1.21846967915e-07,0.0,0.0,0.0,1.21846967915e-07,-0.28439285,0.65704555,8.36507245,9e-08,0.0,0.0,0.0,9e-08,0.0,0.0,0.0,9e-08
1539875307367706504,682,1539875307367460520,base_link,-0.00800523045201,-0.0277001736378,0.0279947519308,-0.999192128937,1.0,0.0,0.0,0.0,1.0,0.0,0.0,0.0,1.0,0.179283797741,0.135710418224,0.00144129269756,1.21846967915e-07,0.0,0.0,0.0,1.21846967915e-07,0.0,0.0,0.0,1.21846967915e-07,-0.59820565,0.7649187,6.50180895,9e-08,0.0,0.0,0.0,9e-08,0.0,0.0,0.0,9e-08
1539875307722972904,683,1539875307722223112,base_link,-0.0169317213462,-0.0456521935943,0.0353057938932,-0.998189708898,1.0,0.0,0.0,0.0,1.0,0.0,0.0,0.0,1.0,-0.138457417488,0.0557382032275,-0.0527045913041,1.21846967915e-07,0.0,0.0,0.0,1.21846967915e-07,0.0,0.0,0.0,1.21846967915e-07,-0.46091255,0.65704555,7.5118939,9e-08,0.0,0.0,0.0,9e-08,0.0,0.0,0.0,9e-08
1539875308221261448,684,1539875308220984680,base_link,-0.061208836432,-0.0563629045546,0.0483624018019,-0.99535811617,1.0,0.0,0.0,0.0,1.0,0.0,0.0,0.0,1.0,0.31110149622,0.0100977681577,-0.0209252554923,1.21846967915e-07,0.0,0.0,0.0,1.21846967915e-07,0.0,0.0,0.0,1.21846967915e-07,-0.38245935,0.20593965,8.237586,9e-08,0.0,0.0,0.0,9e-08,0.0,0.0,0.0,9e-08
1539875308666935784,685,1539875308666453768,base_link,-0.0975949190532,-0.0507751127598,0.0442628726145,-0.9929440658,1.0,0.0,0.0,0.0,1.0,0.0,0.0,0.0,1.0,0.0270508527756,-0.0485274866223,0.0517615415156,1.21846967915e-07,0.0,0.0,0.0,1.21846967915e-07,0.0,0.0,0.0,1.21846967915e-07,-0.3530394,0.38245935,8.4141057,9e-08,0.0,0.0,0.0,9e-08,0.0,0.0,0.0,9e-08
1539875309093453384,686,1539875309093191528,base_link,-0.0543556051615,-0.0399271754708,0.038163520468,-0.996992895939,1.0,0.0,0.0,0.0,1.0,0.0,0.0,0.0,1.0,-0.254789143801,-0.0513979718089,-0.0309493150562,1.21846967915e-07,0.0,0.0,0.0,1.21846967915e-07,0.0,0.0,0.0,1.21846967915e-07,0.1569064,0.95124505,10.5715687,9e-08,0.0,0.0,0.0,9e-08,0.0,0.0,0.0,9e-08
1539875309504851944,687,1539875309504140520,base_link,-0.0318575009349,-0.0291282059635,0.0508189639103,-0.997774563796,1.0,0.0,0.0,0.0,1.0,0.0,0.0,0.0,1.0,0.00916330143809,-0.111827909946,-0.036679405719,1.21846967915e-07,0.0,0.0,0.0,1.21846967915e-07,0.0,0.0,0.0,1.21846967915e-07,0.1176798,0.8433719,11.6699135,9e-08,0.0,0.0,0.0,9e-08,0.0,0.0,0.0,9e-08
1539875309979026088,688,1539875309978802504,base_link,-0.0226990786475,0.000914629472239,0.0322024621337,-0.999223156614,1.0,0.0,0.0,0.0,1.0,0.0,0.0,0.0,1.0,-0.0950789153576,-0.136769413948,0.170910432935,1.21846967915e-07,0.0,0.0,0.0,1.21846967915e-07,0.0,0.0,0.0,1.21846967915e-07,0.34323275,0.5491724,11.99353295,9e-08,0.0,0.0,0.0,9e-08,0.0,0.0,0.0,9e-08
1539875310371129704,689,1539875310367870600,base_link,0.0190769155589,0.0173442033532,0.00761911807804,-0.999638534142,1.0,0.0,0.0,0.0,1.0,0.0,0.0,0.0,1.0,-0.310293227434,-0.0702322274446,0.0737358182669,1.21846967915e-07,0.0,0.0,0.0,1.21846967915e-07,0.0,0.0,0.0,1.21846967915e-07,0.44129925,0.69627215,11.71894675,9e-08,0.0,0.0,0.0,9e-08,0.0,0.0,0.0,9e-08
1539875310728197640,690,1539875310727980520,base_link,0.0178191382781,0.0242218934751,-0.0052068143721,-0.999534225163,1.0,0.0,0.0,0.0,1.0,0.0,0.0,0.0,1.0,0.355393052101,-0.0631781592965,0.0603270828724,1.21846967915e-07,0.0,0.0,0.0,1.21846967915e-07,0.0,0.0,0.0,1.21846967915e-07,0.26477955,0.1569064,9.218251,9e-08,0.0,0.0,0.0,9e-08,0.0,0.0,0.0,9e-08
1539875311095626344,691,1539875311095344200,base_link,-0.0356084629051,0.0274190781891,-0.0415571658068,-0.998124858668,1.0,0.0,0.0,0.0,1.0,0.0,0.0,0.0,1.0,-0.0404740273952,-0.0280945263803,0.240827426314,1.21846967915e-07,0.0,0.0,0.0,1.21846967915e-07,0.0,0.0,0.0,1.21846967915e-07,0.7649187,0.20593965,10.85596155,9e-08,0.0,0.0,0.0,9e-08,0.0,0.0,0.0,9e-08
1539875311574385512,692,1539875311569533768,base_link,-0.0194222245745,0.0296781031392,-0.0746043067507,-0.996582251899,1.0,0.0,0.0,0.0,1.0,0.0,0.0,0.0,1.0,-0.0447699651122,-0.0147948265076,0.0774943456054,1.21846967915e-07,0.0,0.0,0.0,1.21846967915e-07,0.0,0.0,0.0,1.21846967915e-07,0.6080123,0.87279185,12.6113519,9e-08,0.0,0.0,0.0,9e-08,0.0,0.0,0.0,9e-08
1539875311931818184,693,1539875311931357672,base_link,-0.04875020631,0.0155697653043,-0.0773657859343,-0.995688472847,1.0,0.0,0.0,0.0,1.0,0.0,0.0,0.0,1.0,0.369766950607,0.0136410100386,-0.0768944844604,1.21846967915e-07,0.0,0.0,0.0,1.21846967915e-07,0.0,0.0,0.0,1.21846967915e-07,0.18632635,1.16699135,7.56092715,9e-08,0.0,0.0,0.0,9e-08,0.0,0.0,0.0,9e-08
1539875312418324712,694,1539875312417818152,base_link,-0.0566235068749,-0.00168100219878,-0.0553408718433,-0.99685923811,1.0,0.0,0.0,0.0,1.0,0.0,0.0,0.0,1.0,-0.191801294684,0.0712787732482,-0.152261942625,1.21846967915e-07,0.0,0.0,0.0,1.21846967915e-07,0.0,0.0,0.0,1.21846967915e-07,-0.08825985,0.59820565,8.041453,9e-08,0.0,0.0,0.0,9e-08,0.0,0.0,0.0,9e-08
1539875312772156808,695,1539875312768423336,base_link,-0.0582064484252,-0.00172105241504,-0.0570172958289,-0.996673504873,1.0,0.0,0.0,0.0,1.0,0.0,0.0,0.0,1.0,0.148104101419,0.00749573018402,0.148585870862,1.21846967915e-07,0.0,0.0,0.0,1.21846967915e-07,0.0,0.0,0.0,1.21846967915e-07,0.0,-0.08825985,10.07142955,9e-08,0.0,0.0,0.0,9e-08,0.0,0.0,0.0,9e-08
1539875313238119496,696,1539875313236618856,base_link,-0.147321288159,-0.00477480216079,-0.0794905084168,-0.98587772994,1.0,0.0,0.0,0.0,1.0,0.0,0.0,0.0,1.0,0.463500112295,0.00771626085043,0.00400422234088,1.21846967915e-07,0.0,0.0,0.0,1.21846967915e-07,0.0,0.0,0.0,1.21846967915e-07,-0.08825985,1.0591182,11.60126695,9e-08,0.0,0.0,0.0,9e-08,0.0,0.0,0.0,9e-08
1539875313707751400,697,1539875313703301512,base_link,-0.230360584182,-0.0159497623916,-0.044361375725,-0.971962794905,1.0,0.0,0.0,0.0,1.0,0.0,0.0,0.0,1.0,0.456855595112,-0.00929995812476,-0.242445737123,1.21846967915e-07,0.0,0.0,0.0,1.21846967915e-07,0.0,0.0,0.0,1.21846967915e-07,0.1765197,0.8237586,8.8455983,9e-08,0.0,0.0,0.0,9e-08,0.0,0.0,0.0,9e-08
1539875314186773928,698,1539875314186434216,base_link,-0.231167834217,-0.0121920305442,0.0179459626723,-0.972671953558,1.0,0.0,0.0,0.0,1.0,0.0,0.0,0.0,1.0,0.14143691957,-0.10128416121,-0.216985359788,1.21846967915e-07,0.0,0.0,0.0,1.21846967915e-07,0.0,0.0,0.0,1.21846967915e-07,0.36284605,0.65704555,9.81645665,9e-08,0.0,0.0,0.0,9e-08,0.0,0.0,0.0,9e-08
1539875314582194184,699,1539875314580661192,base_link,-0.264998165817,-0.00192680342367,0.053704518095,-0.962750270983,1.0,0.0,0.0,0.0,1.0,0.0,0.0,0.0,1.0,0.197827294469,-0.110863178968,-0.168095335364,1.21846967915e-07,0.0,0.0,0.0,1.21846967915e-07,0.0,0.0,0.0,1.21846967915e-07,0.55897905,0.9022118,9.18883105,9e-08,0.0,0.0,0.0,9e-08,0.0,0.0,0.0,9e-08
1539875314968009352,700,1539875314967437288,base_link,-0.271834156539,0.0178604471239,0.0988540466825,-0.957086763685,1.0,0.0,0.0,0.0,1.0,0.0,0.0,0.0,1.0,0.00142698269337,-0.161916419864,-0.200825333595,1.21846967915e-07,0.0,0.0,0.0,1.21846967915e-07,0.0,0.0,0.0,1.21846967915e-07,0.9022118,1.28467115,10.9638347,9e-08,0.0,0.0,0.0,9e-08,0.0,0.0,0.0,9e-08
1539875315372568680,701,1539875315372191080,base_link,-0.301169789359,0.0401346364027,0.156963564251,-0.939706554428,1.0,0.0,0.0,0.0,1.0,0.0,0.0,0.0,1.0,-0.0172349028289,-0.244208738208,-0.246315285563,1.21846967915e-07,0.0,0.0,0.0,1.21846967915e-07,0.0,0.0,0.0,1.21846967915e-07,1.06892485,0.5687857,13.1212977,9e-08,0.0,0.0,0.0,9e-08,0.0,0.0,0.0,9e-08
1539875315891410024,702,1539875315891124584,base_link,-0.324649411212,0.0910754123885,0.217877634812,-0.915880650143,1.0,0.0,0.0,0.0,1.0,0.0,0.0,0.0,1.0,0.16479600966,-0.181719273329,-0.234545335174,1.21846967915e-07,0.0,0.0,0.0,1.21846967915e-07,0.0,0.0,0.0,1.21846967915e-07,0.9218251,1.4906108,11.36590735,9e-08,0.0,0.0,0.0,9e-08,0.0,0.0,0.0,9e-08
1539875316377173128,703,1539875316376046088,base_link,-0.379703813704,0.147394758548,0.294943130021,-0.86435429603,1.0,0.0,0.0,0.0,1.0,0.0,0.0,0.0,1.0,0.0485593490303,-0.353467524052,-0.165987104177,1.21846967915e-07,0.0,0.0,0.0,1.21846967915e-07,0.0,0.0,0.0,1.21846967915e-07,2.0986231,0.980665,13.337044,9e-08,0.0,0.0,0.0,9e-08,0.0,0.0,0.0,9e-08
1539875316694006344,704,1539875316693535336,base_link,-0.332077602903,0.167338748661,0.345526998392,-0.861587663694,1.0,0.0,0.0,0.0,1.0,0.0,0.0,0.0,1.0,-0.414004415274,-0.236108541489,-0.235862269998,1.21846967915e-07,0.0,0.0,0.0,1.21846967915e-07,0.0,0.0,0.0,1.21846967915e-07,2.16726965,2.10842975,15.32779395,9e-08,0.0,0.0,0.0,9e-08,0.0,0.0,0.0,9e-08
1539875317105131624,705,1539875317103389960,base_link,-0.296673092136,0.17329125729,0.427008568989,-0.836432243854,1.0,0.0,0.0,0.0,1.0,0.0,0.0,0.0,1.0,-0.0887938886881,-0.234180212021,-0.376985579729,1.21846967915e-07,0.0,0.0,0.0,1.21846967915e-07,0.0,0.0,0.0,1.21846967915e-07,1.02969825,1.7848103,13.83718315,9e-08,0.0,0.0,0.0,9e-08,0.0,0.0,0.0,9e-08
1539875317509540712,706,1539875317509116680,base_link,-0.284392575899,0.199441247018,0.497582569443,-0.794830572102,1.0,0.0,0.0,0.0,1.0,0.0,0.0,0.0,1.0,0.186669707298,-0.284354388714,-0.298375070095,1.21846967915e-07,0.0,0.0,0.0,1.21846967915e-07,0.0,0.0,0.0,1.21846967915e-07,0.5491724,1.0395049,12.5132854,9e-08,0.0,0.0,0.0,9e-08,0.0,0.0,0.0,9e-08
1539875317832507048,707,1539875317832194312,base_link,-0.271617177336,0.233785325551,0.545470147493,-0.75764823548,1.0,0.0,0.0,0.0,1.0,0.0,0.0,0.0,1.0,-0.0306873749942,-0.266274899244,-0.262805461884,1.21846967915e-07,0.0,0.0,0.0,1.21846967915e-07,0.0,0.0,0.0,1.21846967915e-07,0.93163175,1.6671305,14.2980957,9e-08,0.0,0.0,0.0,9e-08,0.0,0.0,0.0,9e-08
1539875318218541064,708,1539875318218264680,base_link,-0.24797657789,0.252224690129,0.60708169529,-0.711577218404,1.0,0.0,0.0,0.0,1.0,0.0,0.0,0.0,1.0,-0.0582783147693,-0.250607222319,-0.261788368225,1.21846967915e-07,0.0,0.0,0.0,1.21846967915e-07,0.0,0.0,0.0,1.21846967915e-07,-1.1571847,0.784532,11.8660465,9e-08,0.0,0.0,0.0,9e-08,0.0,0.0,0.0,9e-08
1539875318577125384,709,1539875318576823368,base_link,-0.16434746306,0.200499901509,0.657636975015,-0.70732122121,1.0,0.0,0.0,0.0,1.0,0.0,0.0,0.0,1.0,-0.845629096031,-0.00893288385123,-0.132810294628,1.21846967915e-07,0.0,0.0,0.0,1.21846967915e-07,0.0,0.0,0.0,1.21846967915e-07,-1.67693715,1.6475172,11.7483667,9e-08,0.0,0.0,0.0,9e-08,0.0,0.0,0.0,9e-08
1539875318858287240,710,1539875318858010600,base_link,-0.100085431048,0.103125972185,0.69665138611,-0.702868968289,1.0,0.0,0.0,0.0,1.0,0.0,0.0,0.0,1.0,-0.720243036747,0.242220953107,-0.270896136761,1.21846967915e-07,0.0,0.0,0.0,1.21846967915e-07,0.0,0.0,0.0,1.21846967915e-07,-1.6279039,1.30428445,7.89435325,9e-08,0.0,0.0,0.0,9e-08,0.0,0.0,0.0,9e-08
1539875319276946376,711,1539875319276720072,base_link,0.0476530667643,0.0449755179112,-0.737371979872,0.672301235545,1.0,0.0,0.0,0.0,1.0,0.0,0.0,0.0,1.0,-0.409285753965,0.26874306798,-0.18592107296,1.21846967915e-07,0.0,0.0,0.0,1.21846967915e-07,0.0,0.0,0.0,1.21846967915e-07,-1.6671305,0.196133,4.0011132,9e-08,0.0,0.0,0.0,9e-08,0.0,0.0,0.0,9e-08
1539875319730782184,712,1539875319730543432,base_link,0.063690968781,0.102048490204,-0.736625357973,0.665516827836,1.0,0.0,0.0,0.0,1.0,0.0,0.0,0.0,1.0,-0.145811125636,0.226467013359,0.0720068067312,1.21846967915e-07,0.0,0.0,0.0,1.21846967915e-07,0.0,0.0,0.0,1.21846967915e-07,-1.5102241,0.42168595,5.95263655,9e-08,0.0,0.0,0.0,9e-08,0.0,0.0,0.0,9e-08
1539875320017927752,713,1539875320017673544,base_link,0.0820956003456,0.131604890203,-0.72285801731,0.673362274032,1.0,0.0,0.0,0.0,1.0,0.0,0.0,0.0,1.0,-0.0480908863246,0.218804821372,0.131547063589,1.21846967915e-07,0.0,0.0,0.0,1.21846967915e-07,0.0,0.0,0.0,1.21846967915e-07,-1.6279039,0.1372931,4.3933792,9e-08,0.0,0.0,0.0,9e-08,0.0,0.0,0.0,9e-08
1539875320329568296,714,1539875320329321448,base_link,0.0839433435239,0.167189254752,-0.703763415608,0.685359995204,1.0,0.0,0.0,0.0,1.0,0.0,0.0,0.0,1.0,-0.12996968627,0.13960775733,0.0787647590041,1.21846967915e-07,0.0,0.0,0.0,1.21846967915e-07,0.0,0.0,0.0,1.21846967915e-07,-1.53964405,0.53936575,5.69766365,9e-08,0.0,0.0,0.0,9e-08,0.0,0.0,0.0,9e-08
1539875320636903144,715,1539875320636708296,base_link,0.104684427261,0.174573098365,-0.695698157554,0.688890033018,1.0,0.0,0.0,0.0,1.0,0.0,0.0,0.0,1.0,0.161674723029,0.113994181156,0.118803545833,1.21846967915e-07,0.0,0.0,0.0,1.21846967915e-07,0.0,0.0,0.0,1.21846967915e-07,-1.65732385,-0.00980665,9.1397978,9e-08,0.0,0.0,0.0,9e-08,0.0,0.0,0.0,9e-08
1539875321060410600,716,1539875321060173896,base_link,-0.108267139885,-0.190301296574,0.669043701159,-0.710242331097,1.0,0.0,0.0,0.0,1.0,0.0,0.0,0.0,1.0,-0.227545425296,0.0435569994152,0.189902320504,1.21846967915e-07,0.0,0.0,0.0,1.21846967915e-07,0.0,0.0,0.0,1.21846967915e-07,-1.9221034,0.3726527,10.9638347,9e-08,0.0,0.0,0.0,9e-08,0.0,0.0,0.0,9e-08
1539875321516510632,717,1539875321516008904,base_link,-0.103627725216,-0.200249960025,0.636603263625,-0.737494090023,1.0,0.0,0.0,0.0,1.0,0.0,0.0,0.0,1.0,-0.0451860502362,0.0163897555321,0.176643058658,1.21846967915e-07,0.0,0.0,0.0,1.21846967915e-07,0.0,0.0,0.0,1.21846967915e-07,-2.1182364,0.30400615,9.9831697,9e-08,0.0,0.0,0.0,9e-08,0.0,0.0,0.0,9e-08
1539875321974623336,718,1539875321973321096,base_link,-0.112651377863,-0.190693870347,0.624256744081,-0.749165557368,1.0,0.0,0.0,0.0,1.0,0.0,0.0,0.0,1.0,-0.01417608466,-0.023595130071,-0.0701845884323,1.21846967915e-07,0.0,0.0,0.0,1.21846967915e-07,0.0,0.0,0.0,1.21846967915e-07,-2.50069575,1.46119085,7.79628675,9e-08,0.0,0.0,0.0,9e-08,0.0,0.0,0.0,9e-08
1539875322393466440,719,1539875322391623624,base_link,-0.13003218374,-0.164347293471,0.645607808622,-0.734351520572,1.0,0.0,0.0,0.0,1.0,0.0,0.0,0.0,1.0,0.214978709817,-0.0631462559104,-0.0109560182318,1.21846967915e-07,0.0,0.0,0.0,1.21846967915e-07,0.0,0.0,0.0,1.21846967915e-07,-2.59876225,0.0392266,9.14960445,9e-08,0.0,0.0,0.0,9e-08,0.0,0.0,0.0,9e-08
1539875322735914472,720,1539875322735466696,base_link,-0.161011356146,-0.122747966846,0.641517397013,-0.739907905862,1.0,0.0,0.0,0.0,1.0,0.0,0.0,0.0,1.0,0.250937044621,-0.0905443280935,0.136151865125,1.21846967915e-07,0.0,0.0,0.0,1.21846967915e-07,0.0,0.0,0.0,1.21846967915e-07,-2.8439285,0.83356525,11.571847,9e-08,0.0,0.0,0.0,9e-08,0.0,0.0,0.0,9e-08
1539875323196626120,721,1539875323196118760,base_link,-0.135682805324,-0.111253742608,0.637454660621,-0.750242851847,1.0,0.0,0.0,0.0,1.0,0.0,0.0,0.0,1.0,-0.111295856535,-0.143009573221,-0.0650914758444,1.21846967915e-07,0.0,0.0,0.0,1.21846967915e-07,0.0,0.0,0.0,1.21846967915e-07,-2.9027684,-0.08825985,11.6306869,9e-08,0.0,0.0,0.0,9e-08,0.0,0.0,0.0,9e-08
1539875323617392040,722,1539875323617132264,base_link,-0.136364628867,-0.0871801872185,0.65050055502,-0.742060193562,1.0,0.0,0.0,0.0,1.0,0.0,0.0,0.0,1.0,0.135005384684,-0.0633280277252,-0.0329388864338,1.21846967915e-07,0.0,0.0,0.0,1.21846967915e-07,0.0,0.0,0.0,1.21846967915e-07,-2.9223817,1.176798,11.6503002,9e-08,0.0,0.0,0.0,9e-08,0.0,0.0,0.0,9e-08
1539875323985180776,723,1539875323982571016,base_link,-0.153220775187,-0.0564055634759,0.648433193213,-0.743556454077,1.0,0.0,0.0,0.0,1.0,0.0,0.0,0.0,1.0,0.23898473382,-0.00251696491614,0.137593880296,1.21846967915e-07,0.0,0.0,0.0,1.21846967915e-07,0.0,0.0,0.0,1.21846967915e-07,-2.99102825,-0.1569064,7.0215614,9e-08,0.0,0.0,0.0,9e-08,0.0,0.0,0.0,9e-08
1539875324388433160,724,1539875324385494824,base_link,-0.223115181457,0.0194542435098,0.646295435386,-0.729481568247,1.0,0.0,0.0,0.0,1.0,0.0,0.0,0.0,1.0,0.907295465469,-0.0622548870742,-0.0809739604592,1.21846967915e-07,0.0,0.0,0.0,1.21846967915e-07,0.0,0.0,0.0,1.21846967915e-07,-2.6085689,1.8044236,5.9820565,9e-08,0.0,0.0,0.0,9e-08,0.0,0.0,0.0,9e-08
1539875324859725544,725,1539875324859398216,base_link,-0.301182844093,0.100032781019,0.683281533367,-0.657577891436,1.0,0.0,0.0,0.0,1.0,0.0,0.0,0.0,1.0,0.590713143349,-0.109939478338,-0.302365034819,1.21846967915e-07,0.0,0.0,0.0,1.21846967915e-07,0.0,0.0,0.0,1.21846967915e-07,-2.50069575,0.95124505,8.1591328,9e-08,0.0,0.0,0.0,9e-08,0.0,0.0,0.0,9e-08
1539875325138307912,726,1539875325137874056,base_link,0.323773950618,-0.145553970093,-0.706884311599,0.611799837125,1.0,0.0,0.0,0.0,1.0,0.0,0.0,0.0,1.0,0.21500466764,-0.253786832094,-0.165433108807,1.21846967915e-07,0.0,0.0,0.0,1.21846967915e-07,0.0,0.0,0.0,1.21846967915e-07,-2.71644205,0.42168595,13.60182355,9e-08,0.0,0.0,0.0,9e-08,0.0,0.0,0.0,9e-08
1539875325611678696,727,1539875325611074440,base_link,0.323553061723,-0.213809005524,-0.728700061364,0.564442509007,1.0,0.0,0.0,0.0,1.0,0.0,0.0,0.0,1.0,-0.00996387284249,-0.251224040985,-0.125311717391,1.21846967915e-07,0.0,0.0,0.0,1.21846967915e-07,0.0,0.0,0.0,1.21846967915e-07,-2.46146915,1.12776475,12.2190859,9e-08,0.0,0.0,0.0,9e-08,0.0,0.0,0.0,9e-08
