%time,field.header.seq,field.header.stamp,field.header.frame_id,field.orientation.x,field.orientation.y,field.orientation.z,field.orientation.w,field.orientation_covariance0,field.orientation_covariance1,field.orientation_covariance2,field.orientation_covariance3,field.orientation_covariance4,field.orientation_covariance5,field.orientation_covariance6,field.orientation_covariance7,field.orientation_covariance8,field.angular_velocity.x,field.angular_velocity.y,field.angular_velocity.z,field.angular_velocity_covariance0,field.angular_velocity_covariance1,field.angular_velocity_covariance2,field.angular_velocity_covariance3,field.angular_velocity_covariance4,field.angular_velocity_covariance5,field.angular_velocity_covariance6,field.angular_velocity_covariance7,field.angular_velocity_covariance8,field.linear_acceleration.x,field.linear_acceleration.y,field.linear_acceleration.z,field.linear_acceleration_covariance0,field.linear_acceleration_covariance1,field.linear_acceleration_covariance2,field.linear_acceleration_covariance3,field.linear_acceleration_covariance4,field.linear_acceleration_covariance5,field.linear_acceleration_covariance6,field.linear_acceleration_covariance7,field.linear_acceleration_covariance8
1539875256511922568,723,1539875256511456200,base_link,-0.00117388628801,-0.00352500333573,-0.999483237789,0.0319288853641,1.0,0.0,0.0,0.0,1.0,0.0,0.0,0.0,1.0,-0.317158132792,-0.0272155050188,0.0329314917326,1.21846967915e-07,0.0,0.0,0.0,1.21846967915e-07,0.0,0.0,0.0,1.21846967915e-07,-0.0392266,0.89240515,12.46425215,9e-08,0.0,0.0,0.0,9e-08,0.0,0.0,0.0,9e-08
1539875256818309192,724,1539875256817794568,base_link,-0.00140058813934,-0.00943100584446,-0.99961295417,0.0261349638776,1.0,0.0,0.0,0.0,1.0,0.0,0.0,0.0,1.0,0.241722375154,0.0100612333044,-0.106356807053,1.21846967915e-07,0.0,0.0,0.0,1.21846967915e-07,0.0,0.0,0.0,1.21846967915e-07,0.1569064,0.83356525,11.16977435,9e-08,0.0,0.0,0.0,9e-08,0.0,0.0,0.0,9e-08
1539875257189003112,725,1539875257188660648,base_link,0.00208714574019,-0.103649294784,-0.994607404758,0.00292880751479,1.0,0.0,0.0,0.0,1.0,0.0,0.0,0.0,1.0,0.902060806751,0.0310279224068,-0.178293555975,1.21846967915e-07,0.0,0.0,0.0,1.21846967915e-07,0.0,0.0,0.0,1.21846967915e-07,-0.10787315,-0.00980665,11.2972608,9e-08,0.0,0.0,0.0,9e-08,0.0,0.0,0.0,9e-08
1539875257784715368,726,1539875257784333864,base_link,0.0457005885664,-0.261397644415,-0.963842473577,-0.0242984326373,1.0,0.0,0.0,0.0,1.0,0.0,0.0,0.0,1.0,0.0204647034407,0.177258387208,-0.323445647955,1.21846967915e-07,0.0,0.0,0.0,1.21846967915e-07,0.0,0.0,0.0,1.21846967915e-07,-1.2552512,0.67665885,5.88399,9e-08,0.0,0.0,0.0,9e-08,0.0,0.0,0.0,9e-08
1539875258166201416,727,1539875258165860680,base_link,0.0842072303668,-0.271898117216,-0.955422273877,-0.0784145062347,1.0,0.0,0.0,0.0,1.0,0.0,0.0,0.0,1.0,-0.072588570416,0.0459705777466,-0.278922796249,1.21846967915e-07,0.0,0.0,0.0,1.21846967915e-07,0.0,0.0,0.0,1.21846967915e-07,-1.5298374,0.32361945,4.67777205,9e-08,0.0,0.0,0.0,9e-08,0.0,0.0,0.0,9e-08
1539875258546426248,728,1539875258546101960,base_link,0.106583203416,-0.278076725586,-0.948302362525,-0.109708635327,1.0,0.0,0.0,0.0,1.0,0.0,0.0,0.0,1.0,-0.157882004976,-0.0351989679039,-0.0852422788739,1.21846967915e-07,0.0,0.0,0.0,1.21846967915e-07,0.0,0.0,0.0,1.21846967915e-07,-1.75539035,-0.50013915,-0.40207265,9e-08,0.0,0.0,0.0,9e-08,0.0,0.0,0.0,9e-08
1539875258935439464,729,1539875258934952936,base_link,0.114049809159,-0.248828970862,-0.953106360105,-0.129093185792,1.0,0.0,0.0,0.0,1.0,0.0,0.0,0.0,1.0,-0.203453212976,-0.013682698831,-0.17629301548,1.21846967915e-07,0.0,0.0,0.0,1.21846967915e-07,0.0,0.0,0.0,1.21846967915e-07,-2.0986231,1.10815145,7.79628675,9e-08,0.0,0.0,0.0,9e-08,0.0,0.0,0.0,9e-08
1539875259366102792,730,1539875259365230920,base_link,0.131964678221,-0.211255536305,-0.953819931961,-0.167880789483,1.0,0.0,0.0,0.0,1.0,0.0,0.0,0.0,1.0,-0.224027767777,-0.00158012937754,-0.214619129896,1.21846967915e-07,0.0,0.0,0.0,1.21846967915e-07,0.0,0.0,0.0,1.21846967915e-07,-2.12804305,1.20621795,9.6497436,9e-08,0.0,0.0,0.0,9e-08,0.0,0.0,0.0,9e-08
1539875259725753608,731,1539875259725487624,base_link,0.142425396464,-0.16260800418,-0.955596361288,-0.200272908081,1.0,0.0,0.0,0.0,1.0,0.0,0.0,0.0,1.0,-0.209708541632,-0.0730582475662,-0.208366587758,1.21846967915e-07,0.0,0.0,0.0,1.21846967915e-07,0.0,0.0,0.0,1.21846967915e-07,-2.2163029,0.8629852,9.9831697,9e-08,0.0,0.0,0.0,9e-08,0.0,0.0,0.0,9e-08
1539875260078774728,732,1539875260077769096,base_link,0.126572790982,-0.13483324454,-0.956615768902,-0.225134616257,1.0,0.0,0.0,0.0,1.0,0.0,0.0,0.0,1.0,0.107899859548,-0.176099270582,-0.148938730359,1.21846967915e-07,0.0,0.0,0.0,1.21846967915e-07,0.0,0.0,0.0,1.21846967915e-07,-1.8240369,0.5099458,11.0422879,9e-08,0.0,0.0,0.0,9e-08,0.0,0.0,0.0,9e-08
1539875260498874536,733,1539875260498271624,base_link,0.0911660478502,-0.0875878789953,-0.962073658387,-0.24172585921,1.0,0.0,0.0,0.0,1.0,0.0,0.0,0.0,1.0,-0.101753860712,-0.229256957769,-0.101600654423,1.21846967915e-07,0.0,0.0,0.0,1.21846967915e-07,0.0,0.0,0.0,1.21846967915e-07,-1.12776475,0.93163175,13.1212977,9e-08,0.0,0.0,0.0,9e-08,0.0,0.0,0.0,9e-08
1539875260840008200,734,1539875260839710760,base_link,0.0444623882617,-0.107294260901,-0.959009526017,-0.258479721867,1.0,0.0,0.0,0.0,1.0,0.0,0.0,0.0,1.0,0.372695684433,-0.30191385746,-0.00205056974664,1.21846967915e-07,0.0,0.0,0.0,1.21846967915e-07,0.0,0.0,0.0,1.21846967915e-07,-0.48052585,-0.1765197,13.54298365,9e-08,0.0,0.0,0.0,9e-08,0.0,0.0,0.0,9e-08
1539875261322381288,735,1539875261322046472,base_link,-0.0255306745953,-0.0552727798294,-0.968944474352,-0.239665830037,1.0,0.0,0.0,0.0,1.0,0.0,0.0,0.0,1.0,-0.577492535114,-0.317740917206,0.163141742349,1.21846967915e-07,0.0,0.0,0.0,1.21846967915e-07,0.0,0.0,0.0,1.21846967915e-07,-0.00980665,0.6472389,15.85735305,9e-08,0.0,0.0,0.0,9e-08,0.0,0.0,0.0,9e-08
1539875261704578600,736,1539875261704240072,base_link,-0.06179476099,-0.0405231187028,-0.970991359325,-0.227409464362,1.0,0.0,0.0,0.0,1.0,0.0,0.0,0.0,1.0,0.010282933712,-0.101186566055,0.0370060503483,1.21846967915e-07,0.0,0.0,0.0,1.21846967915e-07,0.0,0.0,0.0,1.21846967915e-07,0.6668522,0.57859235,11.1207411,9e-08,0.0,0.0,0.0,9e-08,0.0,0.0,0.0,9e-08
1539875262212052200,737,1539875262208494536,base_link,-0.0698364064911,0.0111918185635,-0.970021771943,-0.232498132211,1.0,0.0,0.0,0.0,1.0,0.0,0.0,0.0,1.0,0.152518078685,0.0698149651289,-0.0868686810136,1.21846967915e-07,0.0,0.0,0.0,1.21846967915e-07,0.0,0.0,0.0,1.21846967915e-07,0.97085835,0.73549875,14.38635555,9e-08,0.0,0.0,0.0,9e-08,0.0,0.0,0.0,9e-08
1539875262554256776,738,1539875262554009576,base_link,-0.0795738004932,-0.0255057475144,-0.967763818241,-0.237593474704,1.0,0.0,0.0,0.0,1.0,0.0,0.0,0.0,1.0,0.217630237341,0.0272054355592,0.0242673158646,1.21846967915e-07,0.0,0.0,0.0,1.21846967915e-07,0.0,0.0,0.0,1.21846967915e-07,0.46091255,0.65704555,8.46313895,9e-08,0.0,0.0,0.0,9e-08,0.0,0.0,0.0,9e-08
1539875262918679656,739,1539875262916987816,base_link,-0.0664816062554,0.0142237400312,-0.96843052026,-0.239833710471,1.0,0.0,0.0,0.0,1.0,0.0,0.0,0.0,1.0,-0.140186801553,0.137309685349,-0.0316546484828,1.21846967915e-07,0.0,0.0,0.0,1.21846967915e-07,0.0,0.0,0.0,1.21846967915e-07,1.0395049,0.9610517,12.3759923,9e-08,0.0,0.0,0.0,9e-08,0.0,0.0,0.0,9e-08
1539875263385574344,740,1539875263385118536,base_link,-0.0560578934121,-0.040910208615,-0.966649710656,-0.246520190464,1.0,0.0,0.0,0.0,1.0,0.0,0.0,0.0,1.0,0.363206654787,0.0702517703176,-0.0047577386722,1.21846967915e-07,0.0,0.0,0.0,1.21846967915e-07,0.0,0.0,0.0,1.21846967915e-07,0.14709975,0.3726527,5.8055368,9e-08,0.0,0.0,0.0,9e-08,0.0,0.0,0.0,9e-08
1539875263809392744,741,1539875263808899336,base_link,-0.0344521033064,-0.0303123532903,-0.972154750452,-0.229802861142,1.0,0.0,0.0,0.0,1.0,0.0,0.0,0.0,1.0,0.0528507754207,0.167599469423,-0.0315270498395,1.21846967915e-07,0.0,0.0,0.0,1.21846967915e-07,0.0,0.0,0.0,1.21846967915e-07,0.40207265,1.0002783,8.237586,9e-08,0.0,0.0,0.0,9e-08,0.0,0.0,0.0,9e-08
1539875264198864360,742,1539875264198423016,base_link,-0.00309612814803,-0.01029909115,-0.970231277654,-0.24194133705,1.0,0.0,0.0,0.0,1.0,0.0,0.0,0.0,1.0,-0.0438495725393,0.100808367133,-0.0631581097841,1.21846967915e-07,0.0,0.0,0.0,1.21846967915e-07,0.0,0.0,0.0,1.21846967915e-07,-0.14709975,0.2157463,9.14960445,9e-08,0.0,0.0,0.0,9e-08,0.0,0.0,0.0,9e-08
1539875264628346184,743,1539875264626379016,base_link,0.00708234461958,-0.00769211999397,-0.971738688606,-0.235827463945,1.0,0.0,0.0,0.0,1.0,0.0,0.0,0.0,1.0,0.0319917351007,0.0362775735557,0.0772610455751,1.21846967915e-07,0.0,0.0,0.0,1.21846967915e-07,0.0,0.0,0.0,1.21846967915e-07,0.06864655,0.1569064,10.3165958,9e-08,0.0,0.0,0.0,9e-08,0.0,0.0,0.0,9e-08
1539875265084273544,744,1539875265083895816,base_link,0.0276331087695,-0.00973375945608,-0.973904137423,-0.225060872515,1.0,0.0,0.0,0.0,1.0,0.0,0.0,0.0,1.0,-0.118750318885,0.0921118780971,-0.0670259147882,1.21846967915e-07,0.0,0.0,0.0,1.21846967915e-07,0.0,0.0,0.0,1.21846967915e-07,-0.0588399,0.89240515,4.83467845,9e-08,0.0,0.0,0.0,9e-08,0.0,0.0,0.0,9e-08
1539875265416459240,745,1539875265415785224,base_link,0.0371891651277,-0.0123958832083,-0.968216481127,-0.247022577409,1.0,0.0,0.0,0.0,1.0,0.0,0.0,0.0,1.0,0.182820886374,0.0283906944096,-0.150629296899,1.21846967915e-07,0.0,0.0,0.0,1.21846967915e-07,0.0,0.0,0.0,1.21846967915e-07,-0.40207265,0.65704555,6.73716855,9e-08,0.0,0.0,0.0,9e-08,0.0,0.0,0.0,9e-08
1539875266028944040,746,1539875266020567784,base_link,0.0130157414311,-0.0468318776674,-0.964230747782,-0.260569435545,1.0,0.0,0.0,0.0,1.0,0.0,0.0,0.0,1.0,0.40493452549,-0.115886643529,0.0781236290932,1.21846967915e-07,0.0,0.0,0.0,1.21846967915e-07,0.0,0.0,0.0,1.21846967915e-07,0.46091255,-0.9218251,8.8455983,9e-08,0.0,0.0,0.0,9e-08,0.0,0.0,0.0,9e-08
1539875266317857000,747,1539875266317290664,base_link,-0.0041309018787,-0.0419838053836,-0.972392301865,-0.229507095769,1.0,0.0,0.0,0.0,1.0,0.0,0.0,0.0,1.0,-0.334837317467,-0.103443793952,0.220481023192,1.21846967915e-07,0.0,0.0,0.0,1.21846967915e-07,0.0,0.0,0.0,1.21846967915e-07,0.67665885,0.7060788,11.6306869,9e-08,0.0,0.0,0.0,9e-08,0.0,0.0,0.0,9e-08
1539875266755556680,748,1539875266755089960,base_link,0.00392282474134,-2.69871628478e-05,-0.973476002482,-0.228755509898,1.0,0.0,0.0,0.0,1.0,0.0,0.0,0.0,1.0,0.186954244971,0.00691327406093,-0.177950233221,1.21846967915e-07,0.0,0.0,0.0,1.21846967915e-07,0.0,0.0,0.0,1.21846967915e-07,0.5099458,0.5687857,8.62004535,9e-08,0.0,0.0,0.0,9e-08,0.0,0.0,0.0,9e-08
1539875267172600104,749,1539875267172217640,base_link,-0.0165073492996,-0.0435195928978,-0.965514860532,-0.256153482399,1.0,0.0,0.0,0.0,1.0,0.0,0.0,0.0,1.0,0.135489284992,-0.0819684863091,-0.0484510883689,1.21846967915e-07,0.0,0.0,0.0,1.21846967915e-07,0.0,0.0,0.0,1.21846967915e-07,0.4511059,-0.1569064,10.42446895,9e-08,0.0,0.0,0.0,9e-08,0.0,0.0,0.0,9e-08
1539875267561104872,750,1539875267560880872,base_link,-0.0478160340388,-0.0541733590327,-0.967752518261,-0.241317089032,1.0,0.0,0.0,0.0,1.0,0.0,0.0,0.0,1.0,-0.146315827966,-0.114946402609,0.1137830019,1.21846967915e-07,0.0,0.0,0.0,1.21846967915e-07,0.0,0.0,0.0,1.21846967915e-07,0.89240515,0.77472535,13.8273765,9e-08,0.0,0.0,0.0,9e-08,0.0,0.0,0.0,9e-08
1539875267908772104,751,1539875267907987624,base_link,-0.050573676211,-0.0179059291339,-0.970664938873,-0.234374182493,1.0,0.0,0.0,0.0,1.0,0.0,0.0,0.0,1.0,-0.268685460091,-0.0331376567483,-0.013118875213,1.21846967915e-07,0.0,0.0,0.0,1.21846967915e-07,0.0,0.0,0.0,1.21846967915e-07,0.85317855,0.9414384,10.4735022,9e-08,0.0,0.0,0.0,9e-08,0.0,0.0,0.0,9e-08
1539875268378428168,752,1539875268378110696,base_link,-0.0419848980169,0.0010231463738,-0.968557779921,-0.245218368936,1.0,0.0,0.0,0.0,1.0,0.0,0.0,0.0,1.0,-0.0603781528771,-0.0045115314424,-0.0311303157359,1.21846967915e-07,0.0,0.0,0.0,1.21846967915e-07,0.0,0.0,0.0,1.21846967915e-07,0.55897905,0.44129925,10.13026945,9e-08,0.0,0.0,0.0,9e-08,0.0,0.0,0.0,9e-08
1539875268760660840,753,1539875268760299240,base_link,-0.0493811217615,-0.0204658735182,-0.969218015174,-0.240331212905,1.0,0.0,0.0,0.0,1.0,0.0,0.0,0.0,1.0,0.156172528863,-0.0172778144479,0.0842873230577,1.21846967915e-07,0.0,0.0,0.0,1.21846967915e-07,0.0,0.0,0.0,1.21846967915e-07,0.5295591,0.55897905,10.18910935,9e-08,0.0,0.0,0.0,9e-08,0.0,0.0,0.0,9e-08
1539875269107926280,754,1539875269107721640,base_link,-0.0444240172099,-0.0213350329204,-0.970351842461,-0.236619155811,1.0,0.0,0.0,0.0,1.0,0.0,0.0,0.0,1.0,0.0164305120707,0.0472300797701,-0.0878166407347,1.21846967915e-07,0.0,0.0,0.0,1.21846967915e-07,0.0,0.0,0.0,1.21846967915e-07,0.51975245,0.9218251,7.649187,9e-08,0.0,0.0,0.0,9e-08,0.0,0.0,0.0,9e-08
1539875269525053480,755,1539875269524839112,base_link,-0.040273125526,-0.00526184506761,-0.966480540804,-0.253506908375,1.0,0.0,0.0,0.0,1.0,0.0,0.0,0.0,1.0,0.0835572034121,0.000206716824323,-0.0493526086211,1.21846967915e-07,0.0,0.0,0.0,1.21846967915e-07,0.0,0.0,0.0,1.21846967915e-07,0.85317855,0.4314926,13.3566573,9e-08,0.0,0.0,0.0,9e-08,0.0,0.0,0.0,9e-08
1539875269845987144,756,1539875269845718504,base_link,-0.0345751326092,-0.0187530969022,-0.965717075438,-0.256599711163,1.0,0.0,0.0,0.0,1.0,0.0,0.0,0.0,1.0,-0.213050290942,0.0598026402295,-0.00343607855029,1.21846967915e-07,0.0,0.0,0.0,1.21846967915e-07,0.0,0.0,0.0,1.21846967915e-07,0.14709975,0.4707192,8.32584585,9e-08,0.0,0.0,0.0,9e-08,0.0,0.0,0.0,9e-08
1539875270337709512,757,1539875270337411592,base_link,-0.0309104110819,-0.0434254892284,-0.968106831472,-0.244801830528,1.0,0.0,0.0,0.0,1.0,0.0,0.0,0.0,1.0,0.308682918549,0.11573971808,0.0953298509121,1.21846967915e-07,0.0,0.0,0.0,1.21846967915e-07,0.0,0.0,0.0,1.21846967915e-07,0.3334261,0.20593965,10.1596894,9e-08,0.0,0.0,0.0,9e-08,0.0,0.0,0.0,9e-08
1539875270839442952,758,1539875270839080264,base_link,-0.0023856405179,-0.045688978601,-0.968684729942,-0.24404245518,1.0,0.0,0.0,0.0,1.0,0.0,0.0,0.0,1.0,-0.0634957924485,0.130877733231,-0.121407419443,1.21846967915e-07,0.0,0.0,0.0,1.21846967915e-07,0.0,0.0,0.0,1.21846967915e-07,-0.00980665,0.5295591,3.6873004,9e-08,0.0,0.0,0.0,9e-08,0.0,0.0,0.0,9e-08
1539875271173823272,759,1539875271173350248,base_link,0.000487239282719,-0.0751843838797,-0.961939176324,-0.262716752552,1.0,0.0,0.0,0.0,1.0,0.0,0.0,0.0,1.0,0.215097680688,-0.00990676879883,-0.0391958989203,1.21846967915e-07,0.0,0.0,0.0,1.21846967915e-07,0.0,0.0,0.0,1.21846967915e-07,0.02941995,-0.1765197,8.9436648,9e-08,0.0,0.0,0.0,9e-08,0.0,0.0,0.0,9e-08
1539875271635349800,760,1539875271634996456,base_link,-0.0205339457248,-0.101042690293,-0.96286422446,-0.24952197712,1.0,0.0,0.0,0.0,1.0,0.0,0.0,0.0,1.0,0.0270087458193,-0.0567730367184,0.0818434804678,1.21846967915e-07,0.0,0.0,0.0,1.21846967915e-07,0.0,0.0,0.0,1.21846967915e-07,0.46091255,0.53936575,10.9049948,9e-08,0.0,0.0,0.0,9e-08,0.0,0.0,0.0,9e-08
1539875272039554568,761,1539875272034212648,base_link,-0.0297199654965,-0.106849200719,-0.961691329985,-0.250698539661,1.0,0.0,0.0,0.0,1.0,0.0,0.0,0.0,1.0,0.0468101985753,-0.0395626090467,-0.0724616348743,1.21846967915e-07,0.0,0.0,0.0,1.21846967915e-07,0.0,0.0,0.0,1.21846967915e-07,0.87279185,1.0395049,9.48303055,9e-08,0.0,0.0,0.0,9e-08,0.0,0.0,0.0,9e-08
1539875272487199688,762,1539875272486907496,base_link,-0.0509108884043,-0.156641089941,-0.946755670798,-0.276632156836,1.0,0.0,0.0,0.0,1.0,0.0,0.0,0.0,1.0,0.734593093395,-0.0524539276958,-0.223521411419,1.21846967915e-07,0.0,0.0,0.0,1.21846967915e-07,0.0,0.0,0.0,1.21846967915e-07,0.7256921,0.9022118,9.8262633,9e-08,0.0,0.0,0.0,9e-08,0.0,0.0,0.0,9e-08
1539875272941237000,763,1539875272940844264,base_link,-0.119153403334,-0.28053943294,-0.894900103742,-0.325966098486,1.0,0.0,0.0,0.0,1.0,0.0,0.0,0.0,1.0,0.400748312473,-0.293011665344,-0.183195114136,1.21846967915e-07,0.0,0.0,0.0,1.21846967915e-07,0.0,0.0,0.0,1.21846967915e-07,1.2356379,0.48052585,11.1991943,9e-08,0.0,0.0,0.0,9e-08,0.0,0.0,0.0,9e-08
1539875273387447368,764,1539875273378646376,base_link,-0.184054379803,-0.298904017157,-0.860867480325,-0.368357917144,1.0,0.0,0.0,0.0,1.0,0.0,0.0,0.0,1.0,0.105287149549,-0.302945494652,-0.200778290629,1.21846967915e-07,0.0,0.0,0.0,1.21846967915e-07,0.0,0.0,0.0,1.21846967915e-07,2.0986231,1.34351105,13.62143685,9e-08,0.0,0.0,0.0,9e-08,0.0,0.0,0.0,9e-08
1539875273801735016,765,1539875273801491048,base_link,-0.222290405857,-0.290347560719,-0.82150104203,-0.437517208109,1.0,0.0,0.0,0.0,1.0,0.0,0.0,0.0,1.0,-0.0125233894214,-0.256229430437,-0.319209128618,1.21846967915e-07,0.0,0.0,0.0,1.21846967915e-07,0.0,0.0,0.0,1.21846967915e-07,2.1966896,1.7063571,13.1016844,9e-08,0.0,0.0,0.0,9e-08,0.0,0.0,0.0,9e-08
1539875274229512168,766,1539875274229200040,base_link,-0.262487488617,-0.290017121262,-0.767610573804,-0.507705027234,1.0,0.0,0.0,0.0,1.0,0.0,0.0,0.0,1.0,0.150331929326,-0.311061888933,-0.27478158474,1.21846967915e-07,0.0,0.0,0.0,1.21846967915e-07,0.0,0.0,0.0,1.21846967915e-07,2.3143694,0.980665,13.26839745,9e-08,0.0,0.0,0.0,9e-08,0.0,0.0,0.0,9e-08
1539875274558832936,767,1539875274557935112,base_link,-0.297644768743,-0.288507470357,-0.723800054945,-0.551619897801,1.0,0.0,0.0,0.0,1.0,0.0,0.0,0.0,1.0,0.00367776257917,-0.334804773331,-0.268791884184,1.21846967915e-07,0.0,0.0,0.0,1.21846967915e-07,0.0,0.0,0.0,1.21846967915e-07,2.745862,1.32389775,13.6900834,9e-08,0.0,0.0,0.0,9e-08,0.0,0.0,0.0,9e-08
1539875275004549128,768,1539875275003989128,base_link,-0.32097251616,-0.252139719123,-0.668954114098,-0.621210591621,1.0,0.0,0.0,0.0,1.0,0.0,0.0,0.0,1.0,-0.135952070355,-0.321123033762,-0.304104298353,1.21846967915e-07,0.0,0.0,0.0,1.21846967915e-07,0.0,0.0,0.0,1.21846967915e-07,2.63798885,1.2748645,12.75845165,9e-08,0.0,0.0,0.0,9e-08,0.0,0.0,0.0,9e-08
1539875275413161544,769,1539875275412940328,base_link,-0.32533565718,-0.209282585594,-0.617091567203,-0.68524120368,1.0,0.0,0.0,0.0,1.0,0.0,0.0,0.0,1.0,-0.188198119402,-0.285614579916,-0.299972444773,1.21846967915e-07,0.0,0.0,0.0,1.21846967915e-07,0.0,0.0,0.0,1.21846967915e-07,1.8240369,1.52003075,12.2975391,9e-08,0.0,0.0,0.0,9e-08,0.0,0.0,0.0,9e-08
1539875275781995784,770,1539875275781697704,base_link,-0.343029841749,-0.182529792592,-0.55743737901,-0.733673613379,1.0,0.0,0.0,0.0,1.0,0.0,0.0,0.0,1.0,-0.0278079248965,-0.294780522585,-0.283995240927,1.21846967915e-07,0.0,0.0,0.0,1.21846967915e-07,0.0,0.0,0.0,1.21846967915e-07,1.7259704,0.97085835,12.58193195,9e-08,0.0,0.0,0.0,9e-08,0.0,0.0,0.0,9e-08
1539875276276572776,771,1539875276276123880,base_link,-0.365849733691,-0.137501382446,-0.480657564306,-0.784994043327,1.0,0.0,0.0,0.0,1.0,0.0,0.0,0.0,1.0,-0.0470609925687,-0.296261996031,-0.21418017149,1.21846967915e-07,0.0,0.0,0.0,1.21846967915e-07,0.0,0.0,0.0,1.21846967915e-07,1.9809433,1.04931155,13.62143685,9e-08,0.0,0.0,0.0,9e-08,0.0,0.0,0.0,9e-08
1539875276672077672,772,1539875276671593448,base_link,-0.361182934743,-0.104200890453,-0.424442666967,-0.823733867543,1.0,0.0,0.0,0.0,1.0,0.0,0.0,0.0,1.0,-0.0484194308519,-0.220125332475,-0.35365653038,1.21846967915e-07,0.0,0.0,0.0,1.21846967915e-07,0.0,0.0,0.0,1.21846967915e-07,1.176798,1.5102241,11.5326204,9e-08,0.0,0.0,0.0,9e-08,0.0,0.0,0.0,9e-08
1539875277114564168,773,1539875277111142312,base_link,-0.401892019627,-0.0946424410226,-0.334331463029,-0.847200145034,1.0,0.0,0.0,0.0,1.0,0.0,0.0,0.0,1.0,0.00781600549817,-0.307938575745,-0.263429373503,1.21846967915e-07,0.0,0.0,0.0,1.21846967915e-07,0.0,0.0,0.0,1.21846967915e-07,1.16699135,0.83356525,11.8464332,9e-08,0.0,0.0,0.0,9e-08,0.0,0.0,0.0,9e-08
1539875277422906856,774,1539875277422202728,base_link,-0.396214198736,-0.0592781255056,-0.284259808448,-0.871032016552,1.0,0.0,0.0,0.0,1.0,0.0,0.0,0.0,1.0,0.00796614959836,-0.324452340603,-0.228165611625,1.21846967915e-07,0.0,0.0,0.0,1.21846967915e-07,0.0,0.0,0.0,1.21846967915e-07,1.9221034,0.93163175,15.42586045,9e-08,0.0,0.0,0.0,9e-08,0.0,0.0,0.0,9e-08
1539875277881927816,775,1539875277881673160,base_link,-0.410472005956,-0.0321182017146,-0.204253128973,-0.888122633846,1.0,0.0,0.0,0.0,1.0,0.0,0.0,0.0,1.0,-0.35513573885,-0.256054133177,-0.366844117641,1.21846967915e-07,0.0,0.0,0.0,1.21846967915e-07,0.0,0.0,0.0,1.21846967915e-07,1.9417167,1.55925735,14.1804159,9e-08,0.0,0.0,0.0,9e-08,0.0,0.0,0.0,9e-08
1539875278268964296,776,1539875278268542568,base_link,-0.443327397908,-0.0259805901197,-0.118530661553,-0.88810827576,1.0,0.0,0.0,0.0,1.0,0.0,0.0,0.0,1.0,0.0474028289318,-0.278711766005,-0.376119077206,1.21846967915e-07,0.0,0.0,0.0,1.21846967915e-07,0.0,0.0,0.0,1.21846967915e-07,1.38273765,1.0591182,8.7867584,9e-08,0.0,0.0,0.0,9e-08,0.0,0.0,0.0,9e-08
1539875278605122216,777,1539875278604720200,base_link,-0.441378583726,-0.00403497840637,-0.0459292109108,-0.896135688589,1.0,0.0,0.0,0.0,1.0,0.0,0.0,0.0,1.0,-0.264435499907,-0.278598666191,-0.310660779476,1.21846967915e-07,0.0,0.0,0.0,1.21846967915e-07,0.0,0.0,0.0,1.21846967915e-07,1.3925443,1.50041745,10.71866845,9e-08,0.0,0.0,0.0,9e-08,0.0,0.0,0.0,9e-08
1539875278978896648,778,1539875278978361352,base_link,-0.417668000861,0.0271887851188,0.0373654868411,-0.907423843313,1.0,0.0,0.0,0.0,1.0,0.0,0.0,0.0,1.0,-0.439219772816,-0.363596796989,-0.23078854382,1.21846967915e-07,0.0,0.0,0.0,1.21846967915e-07,0.0,0.0,0.0,1.21846967915e-07,1.40235095,1.20621795,15.91619295,9e-08,0.0,0.0,0.0,9e-08,0.0,0.0,0.0,9e-08
1539875279421037992,779,1539875279420773608,base_link,-0.399814385684,0.0797848232131,0.120468700896,-0.905135421409,1.0,0.0,0.0,0.0,1.0,0.0,0.0,0.0,1.0,-0.362099140882,-0.396532297134,-0.300893992186,1.21846967915e-07,0.0,0.0,0.0,1.21846967915e-07,0.0,0.0,0.0,1.21846967915e-07,1.2356379,1.7455837,15.0630144,9e-08,0.0,0.0,0.0,9e-08,0.0,0.0,0.0,9e-08
1539875279860598216,780,1539875279860125864,base_link,-0.374355285338,0.130750747416,0.209257796805,-0.893853196485,1.0,0.0,0.0,0.0,1.0,0.0,0.0,0.0,1.0,-0.181059092283,-0.379398077726,-0.242847576737,1.21846967915e-07,0.0,0.0,0.0,1.21846967915e-07,0.0,0.0,0.0,1.21846967915e-07,1.765197,1.14737805,16.42613875,9e-08,0.0,0.0,0.0,9e-08,0.0,0.0,0.0,9e-08
1539875280112688744,781,1539875280112223976,base_link,-0.355289057787,0.163882772597,0.257715118612,-0.883456303334,1.0,0.0,0.0,0.0,1.0,0.0,0.0,0.0,1.0,-0.331050783396,-0.353489995003,-0.211958542466,1.21846967915e-07,0.0,0.0,0.0,1.21846967915e-07,0.0,0.0,0.0,1.21846967915e-07,1.40235095,0.8825985,14.66094175,9e-08,0.0,0.0,0.0,9e-08,0.0,0.0,0.0,9e-08
1539875280479025416,782,1539875280478798376,base_link,-0.316752384939,0.179970060576,0.323859379526,-0.873151651333,1.0,0.0,0.0,0.0,1.0,0.0,0.0,0.0,1.0,-0.0814921334386,-0.239559710026,-0.416841685772,1.21846967915e-07,0.0,0.0,0.0,1.21846967915e-07,0.0,0.0,0.0,1.21846967915e-07,0.85317855,2.0593965,11.26784085,9e-08,0.0,0.0,0.0,9e-08,0.0,0.0,0.0,9e-08
1539875280896575848,783,1539875280895985800,base_link,-0.304424899749,0.197060105429,0.423708535437,-0.830038476373,1.0,0.0,0.0,0.0,1.0,0.0,0.0,0.0,1.0,0.0334760136902,-0.345206350088,-0.352115273476,1.21846967915e-07,0.0,0.0,0.0,1.21846967915e-07,0.0,0.0,0.0,1.21846967915e-07,0.784532,0.55897905,14.56287525,9e-08,0.0,0.0,0.0,9e-08,0.0,0.0,0.0,9e-08
1539875281312976456,784,1539875281312564264,base_link,-0.288724248051,0.249965852208,0.479620321548,-0.790012486278,1.0,0.0,0.0,0.0,1.0,0.0,0.0,0.0,1.0,-0.0561099164188,-0.373451262712,-0.169443666935,1.21846967915e-07,0.0,0.0,0.0,1.21846967915e-07,0.0,0.0,0.0,1.21846967915e-07,1.1571847,0.9610517,15.4748937,9e-08,0.0,0.0,0.0,9e-08,0.0,0.0,0.0,9e-08
1539875281659230088,785,1539875281658934664,base_link,-0.261192669699,0.276456728555,0.527868624255,-0.759410812445,1.0,0.0,0.0,0.0,1.0,0.0,0.0,0.0,1.0,-0.158777847886,-0.300064444542,-0.256316542625,1.21846967915e-07,0.0,0.0,0.0,1.21846967915e-07,0.0,0.0,0.0,1.21846967915e-07,1.0002783,1.3925443,16.082906,9e-08,0.0,0.0,0.0,9e-08,0.0,0.0,0.0,9e-08
1539875282053821160,786,1539875282053292744,base_link,-0.22404072942,0.281906034412,0.596327874729,-0.717445332513,1.0,0.0,0.0,0.0,1.0,0.0,0.0,0.0,1.0,-0.074396468699,-0.202879101038,-0.268819332123,1.21846967915e-07,0.0,0.0,0.0,1.21846967915e-07,0.0,0.0,0.0,1.21846967915e-07,0.30400615,1.42196425,13.13110435,9e-08,0.0,0.0,0.0,9e-08,0.0,0.0,0.0,9e-08
1539875282435816232,787,1539875282435464392,base_link,-0.219847254987,0.293421426584,0.640012560589,-0.675244380343,1.0,0.0,0.0,0.0,1.0,0.0,0.0,0.0,1.0,0.0753109008074,-0.182613492012,-0.30356669426,1.21846967915e-07,0.0,0.0,0.0,1.21846967915e-07,0.0,0.0,0.0,1.21846967915e-07,0.26477955,0.7256921,9.38496405,9e-08,0.0,0.0,0.0,9e-08,0.0,0.0,0.0,9e-08
1539875282779647880,788,1539875282779437544,base_link,0.217657563625,-0.309675382547,-0.676932448489,0.631259695073,1.0,0.0,0.0,0.0,1.0,0.0,0.0,0.0,1.0,-0.0834079235792,-0.200101494789,-0.232868045568,1.21846967915e-07,0.0,0.0,0.0,1.21846967915e-07,0.0,0.0,0.0,1.21846967915e-07,0.2157463,0.5491724,10.09104285,9e-08,0.0,0.0,0.0,9e-08,0.0,0.0,0.0,9e-08
1539875283239353224,789,1539875283237988872,base_link,0.172043042511,-0.285046234191,-0.734384782462,0.591463293185,1.0,0.0,0.0,0.0,1.0,0.0,0.0,0.0,1.0,-0.661116123199,-0.240947276354,-0.222095668316,1.21846967915e-07,0.0,0.0,0.0,1.21846967915e-07,0.0,0.0,0.0,1.21846967915e-07,0.196133,0.97085835,10.1596894,9e-08,0.0,0.0,0.0,9e-08,0.0,0.0,0.0,9e-08
1539875283719241480,790,1539875283717695272,base_link,0.11456781082,-0.220747808604,-0.79460314872,0.553850573499,1.0,0.0,0.0,0.0,1.0,0.0,0.0,0.0,1.0,-0.451971113682,-0.0842253044248,-0.212704643607,1.21846967915e-07,0.0,0.0,0.0,1.21846967915e-07,0.0,0.0,0.0,1.21846967915e-07,-0.22555295,0.9610517,10.5127288,9e-08,0.0,0.0,0.0,9e-08,0.0,0.0,0.0,9e-08
1539875284129462984,791,1539875284129003208,base_link,0.0958224782325,-0.164154042325,-0.833461867932,0.518857222902,1.0,0.0,0.0,0.0,1.0,0.0,0.0,0.0,1.0,-0.218272998929,0.0577622801065,-0.301107078791,1.21846967915e-07,0.0,0.0,0.0,1.21846967915e-07,0.0,0.0,0.0,1.21846967915e-07,-0.65704555,1.2356379,8.3748791,9e-08,0.0,0.0,0.0,9e-08,0.0,0.0,0.0,9e-08
1539875284607151304,792,1539875284605254184,base_link,0.097420118843,-0.134742405187,-0.864984276372,0.473451165716,1.0,0.0,0.0,0.0,1.0,0.0,0.0,0.0,1.0,-0.0718345269561,-0.00122712133452,-0.162472605705,1.21846967915e-07,0.0,0.0,0.0,1.21846967915e-07,0.0,0.0,0.0,1.21846967915e-07,-0.91201845,0.1372931,6.24683605,9e-08,0.0,0.0,0.0,9e-08,0.0,0.0,0.0,9e-08
1539875284963522664,793,1539875284962978984,base_link,0.0678416569075,-0.092357576394,-0.876664040193,0.467255549248,1.0,0.0,0.0,0.0,1.0,0.0,0.0,0.0,1.0,-0.408067852259,-0.0348519682884,-0.00815206486732,1.21846967915e-07,0.0,0.0,0.0,1.21846967915e-07,0.0,0.0,0.0,1.21846967915e-07,-0.67665885,0.40207265,10.5519554,9e-08,0.0,0.0,0.0,9e-08,0.0,0.0,0.0,9e-08
1539875285530985160,794,1539875285530768936,base_link,0.0341239602568,-0.0257002597843,-0.885599669763,0.462480569212,1.0,0.0,0.0,0.0,1.0,0.0,0.0,0.0,1.0,0.0272733811289,0.00556742306799,-0.0522178299725,1.21846967915e-07,0.0,0.0,0.0,1.21846967915e-07,0.0,0.0,0.0,1.21846967915e-07,-0.392266,0.59820565,8.4141057,9e-08,0.0,0.0,0.0,9e-08,0.0,0.0,0.0,9e-08
1539875285879901288,795,1539875285878774792,base_link,0.0345754368418,-0.0245385870214,-0.886476702053,0.460826923727,1.0,0.0,0.0,0.0,1.0,0.0,0.0,0.0,1.0,-0.104543939233,0.00692201312631,0.0265548881143,1.21846967915e-07,0.0,0.0,0.0,1.21846967915e-07,0.0,0.0,0.0,1.21846967915e-07,-0.6276256,0.5687857,9.97336305,9e-08,0.0,0.0,0.0,9e-08,0.0,0.0,0.0,9e-08
1539875286261055240,796,1539875286260105992,base_link,0.00498337978363,0.0345811085715,-0.881128952925,0.471583588744,1.0,0.0,0.0,0.0,1.0,0.0,0.0,0.0,1.0,-0.577273607254,-0.0273529905826,0.0640431493521,1.21846967915e-07,0.0,0.0,0.0,1.21846967915e-07,0.0,0.0,0.0,1.21846967915e-07,-0.3334261,0.65704555,12.42502555,9e-08,0.0,0.0,0.0,9e-08,0.0,0.0,0.0,9e-08
1539875286626676136,797,1539875286626345544,base_link,0.0080283753856,0.0348703260628,-0.879099235927,0.47529373964,1.0,0.0,0.0,0.0,1.0,0.0,0.0,0.0,1.0,0.190138950944,0.0101928599179,0.0537087246776,1.21846967915e-07,0.0,0.0,0.0,1.21846967915e-07,0.0,0.0,0.0,1.21846967915e-07,-0.36284605,-0.0196133,8.7475318,9e-08,0.0,0.0,0.0,9e-08,0.0,0.0,0.0,9e-08
1539875287078954696,798,1539875287078688232,base_link,0.00668652449369,0.0377971112611,-0.866538633189,0.497631857864,1.0,0.0,0.0,0.0,1.0,0.0,0.0,0.0,1.0,-0.0964650511742,0.0531586185098,0.0700764358044,1.21846967915e-07,0.0,0.0,0.0,1.21846967915e-07,0.0,0.0,0.0,1.21846967915e-07,-0.1176798,0.69627215,8.03164635,9e-08,0.0,0.0,0.0,9e-08,0.0,0.0,0.0,9e-08
1539875287312830120,799,1539875287309193128,base_link,0.00325151697706,0.053391792082,-0.863805696883,0.500977506688,1.0,0.0,0.0,0.0,1.0,0.0,0.0,0.0,1.0,-0.184327811003,0.0518563278019,-0.00123300170526,1.21846967915e-07,0.0,0.0,0.0,1.21846967915e-07,0.0,0.0,0.0,1.21846967915e-07,-0.16671305,0.8041453,8.12971285,9e-08,0.0,0.0,0.0,9e-08,0.0,0.0,0.0,9e-08
1539875287616260136,800,1539875287615807912,base_link,-0.00689825088437,0.0704044565262,-0.863203297485,0.499875678391,1.0,0.0,0.0,0.0,1.0,0.0,0.0,0.0,1.0,0.0131482183933,-0.0544367097318,0.000534480437636,1.21846967915e-07,0.0,0.0,0.0,1.21846967915e-07,0.0,0.0,0.0,1.21846967915e-07,0.3530394,0.6080123,11.0030613,9e-08,0.0,0.0,0.0,9e-08,0.0,0.0,0.0,9e-08
1539875288024043560,801,1539875288023738568,base_link,0.00317439797482,0.029758297971,-0.863172065587,0.504022174204,1.0,0.0,0.0,0.0,1.0,0.0,0.0,0.0,1.0,0.0149749321863,-0.0712661370635,0.0890646278858,1.21846967915e-07,0.0,0.0,0.0,1.21846967915e-07,0.0,0.0,0.0,1.21846967915e-07,0.24516625,0.2941995,10.30678915,9e-08,0.0,0.0,0.0,9e-08,0.0,0.0,0.0,9e-08
1539875288324704488,802,1539875288324404200,base_link,-0.0195271376973,0.039242834952,-0.855262051051,0.516338566088,1.0,0.0,0.0,0.0,1.0,0.0,0.0,0.0,1.0,-0.100112974644,-0.0749719366431,0.097872376442,1.21846967915e-07,0.0,0.0,0.0,1.21846967915e-07,0.0,0.0,0.0,1.21846967915e-07,0.4903325,0.24516625,13.40569055,9e-08,0.0,0.0,0.0,9e-08,0.0,0.0,0.0,9e-08
1539875288739919080,803,1539875288739574088,base_link,-0.0181141459446,0.0158622491006,-0.841711208648,0.539390867559,1.0,0.0,0.0,0.0,1.0,0.0,0.0,0.0,1.0,0.0287816803902,-0.0328006520867,0.105053037405,1.21846967915e-07,0.0,0.0,0.0,1.21846967915e-07,0.0,0.0,0.0,1.21846967915e-07,0.6472389,0.5491724,10.22833595,9e-08,0.0,0.0,0.0,9e-08,0.0,0.0,0.0,9e-08
1539875289223873000,804,1539875289223599112,base_link,-0.0219489037145,0.0147843632367,-0.8368158014,0.546844569103,1.0,0.0,0.0,0.0,1.0,0.0,0.0,0.0,1.0,0.133426859975,-0.00511723197997,0.0136975487694,1.21846967915e-07,0.0,0.0,0.0,1.21846967915e-07,0.0,0.0,0.0,1.21846967915e-07,0.6472389,0.3138128,10.1596894,9e-08,0.0,0.0,0.0,9e-08,0.0,0.0,0.0,9e-08
1539875289598869896,805,1539875289598305288,base_link,-0.014033751483,-0.0102567642735,-0.832731612401,0.553403934133,1.0,0.0,0.0,0.0,1.0,0.0,0.0,0.0,1.0,0.12449541688,-0.0507282242179,0.0588474050164,1.21846967915e-07,0.0,0.0,0.0,1.21846967915e-07,0.0,0.0,0.0,1.21846967915e-07,0.69627215,0.26477955,10.591182,9e-08,0.0,0.0,0.0,9e-08,0.0,0.0,0.0,9e-08
1539875289943093736,806,1539875289942732296,base_link,-0.00352494269892,-0.0360835507032,-0.825384919161,0.56340508284,1.0,0.0,0.0,0.0,1.0,0.0,0.0,0.0,1.0,0.154671400785,-0.0135133853182,0.0435920357704,1.21846967915e-07,0.0,0.0,0.0,1.21846967915e-07,0.0,0.0,0.0,1.21846967915e-07,0.9022118,0.588399,11.07170785,9e-08,0.0,0.0,0.0,9e-08,0.0,0.0,0.0,9e-08
1539875290391799784,807,1539875290391600168,base_link,0.000203772392075,-0.0423867345198,-0.823983009624,0.565026833933,1.0,0.0,0.0,0.0,1.0,0.0,0.0,0.0,1.0,-0.125874742866,0.0486744567752,-0.00678188540041,1.21846967915e-07,0.0,0.0,0.0,1.21846967915e-07,0.0,0.0,0.0,1.21846967915e-07,0.588399,0.79433865,9.46341725,9e-08,0.0,0.0,0.0,9e-08,0.0,0.0,0.0,9e-08
1539875290773475848,808,1539875290773271944,base_link,-0.00652923928407,-0.0243285519157,-0.827840852767,0.560397192254,1.0,0.0,0.0,0.0,1.0,0.0,0.0,0.0,1.0,0.0437402315438,0.00206049857661,-0.0149328140542,1.21846967915e-07,0.0,0.0,0.0,1.21846967915e-07,0.0,0.0,0.0,1.21846967915e-07,0.5099458,0.2549729,10.11065615,9e-08,0.0,0.0,0.0,9e-08,0.0,0.0,0.0,9e-08
1539875291180134216,809,1539875291179932488,base_link,0.0069047125799,-0.0371080492714,-0.824403503884,0.564742578887,1.0,0.0,0.0,0.0,1.0,0.0,0.0,0.0,1.0,-0.000902510248125,0.0117503311485,0.0328035615385,1.21846967915e-07,0.0,0.0,0.0,1.21846967915e-07,0.0,0.0,0.0,1.21846967915e-07,0.6864655,0.50013915,9.09076455,9e-08,0.0,0.0,0.0,9e-08,0.0,0.0,0.0,9e-08
1539875291581958152,810,1539875291580291496,base_link,0.00108906456959,-0.0218075941011,-0.822334306315,0.568585553312,1.0,0.0,0.0,0.0,1.0,0.0,0.0,0.0,1.0,-0.0280246566981,0.0443010926247,-0.0224906653166,1.21846967915e-07,0.0,0.0,0.0,1.21846967915e-07,0.0,0.0,0.0,1.21846967915e-07,0.67665885,0.63743225,8.9632781,9e-08,0.0,0.0,0.0,9e-08,0.0,0.0,0.0,9e-08
1539875291965974952,811,1539875291965420840,base_link,0.0100952393663,-0.038028681686,-0.825454124834,0.563096255808,1.0,0.0,0.0,0.0,1.0,0.0,0.0,0.0,1.0,0.120907627046,-0.0278378222138,-0.00117027200758,1.21846967915e-07,0.0,0.0,0.0,1.21846967915e-07,0.0,0.0,0.0,1.21846967915e-07,1.1375714,0.44129925,10.81673495,9e-08,0.0,0.0,0.0,9e-08,0.0,0.0,0.0,9e-08
1539875292366269864,812,1539875292366000360,base_link,0.00217855761828,-0.050455433676,-0.817310051748,0.573980646373,1.0,0.0,0.0,0.0,1.0,0.0,0.0,0.0,1.0,0.056053802371,-0.0824423953891,0.135476842523,1.21846967915e-07,0.0,0.0,0.0,1.21846967915e-07,0.0,0.0,0.0,1.21846967915e-07,1.0591182,0.12748645,11.36590735,9e-08,0.0,0.0,0.0,9e-08,0.0,0.0,0.0,9e-08
1539875292882391336,813,1539875292882056904,base_link,-0.0108264474926,-0.0590708221506,-0.80435362499,0.591108003643,1.0,0.0,0.0,0.0,1.0,0.0,0.0,0.0,1.0,-0.0993429869413,-0.0219962820411,0.00404296861961,1.21846967915e-07,0.0,0.0,0.0,1.21846967915e-07,0.0,0.0,0.0,1.21846967915e-07,0.85317855,1.2160246,11.1207411,9e-08,0.0,0.0,0.0,9e-08,0.0,0.0,0.0,9e-08
1539875293165377256,814,1539875293165120808,base_link,-0.018996336657,-0.0478295105922,-0.808830998256,0.585784852459,1.0,0.0,0.0,0.0,1.0,0.0,0.0,0.0,1.0,-0.0537256747484,0.0380566120148,-0.0620536878705,1.21846967915e-07,0.0,0.0,0.0,1.21846967915e-07,0.0,0.0,0.0,1.21846967915e-07,0.8433719,0.44129925,9.6497436,9e-08,0.0,0.0,0.0,9e-08,0.0,0.0,0.0,9e-08
1539875293473094952,815,1539875293472556296,base_link,-0.0278769910597,-0.0358861969165,-0.811662583375,0.582356338498,1.0,0.0,0.0,0.0,1.0,0.0,0.0,0.0,1.0,0.280074268579,0.0082173217088,-0.0170772820711,1.21846967915e-07,0.0,0.0,0.0,1.21846967915e-07,0.0,0.0,0.0,1.21846967915e-07,0.980665,-0.196133,11.1991943,9e-08,0.0,0.0,0.0,9e-08,0.0,0.0,0.0,9e-08
1539875293804390856,816,1539875293804189384,base_link,-0.0120895660075,-0.0644825713747,-0.79987127591,0.596575043357,1.0,0.0,0.0,0.0,1.0,0.0,0.0,0.0,1.0,0.016553003341,-0.00812248978764,0.147510647774,1.21846967915e-07,0.0,0.0,0.0,1.21846967915e-07,0.0,0.0,0.0,1.21846967915e-07,1.1571847,0.04903325,12.77806495,9e-08,0.0,0.0,0.0,9e-08,0.0,0.0,0.0,9e-08
1539875294094684776,817,1539875294092057032,base_link,-0.00381725531837,-0.0663539447813,-0.781514315814,0.620336970324,1.0,0.0,0.0,0.0,1.0,0.0,0.0,0.0,1.0,0.00182119384408,0.0759477466345,0.156608819962,1.21846967915e-07,0.0,0.0,0.0,1.21846967915e-07,0.0,0.0,0.0,1.21846967915e-07,0.6668522,0.8433719,9.9243298,9e-08,0.0,0.0,0.0,9e-08,0.0,0.0,0.0,9e-08
1539875294411919176,818,1539875294411547048,base_link,0.0154450082652,-0.0608197414199,-0.777066778219,0.626282390749,1.0,0.0,0.0,0.0,1.0,0.0,0.0,0.0,1.0,0.0260202232748,0.134752929211,-0.0656135380268,1.21846967915e-07,0.0,0.0,0.0,1.21846967915e-07,0.0,0.0,0.0,1.21846967915e-07,0.34323275,1.176798,5.099458,9e-08,0.0,0.0,0.0,9e-08,0.0,0.0,0.0,9e-08
1539875294795598088,819,1539875294795116392,base_link,0.0458852522137,-0.0658838562934,-0.792100576327,0.605087215277,1.0,0.0,0.0,0.0,1.0,0.0,0.0,0.0,1.0,0.279303014278,0.0528687089682,-0.165421009064,1.21846967915e-07,0.0,0.0,0.0,1.21846967915e-07,0.0,0.0,0.0,1.21846967915e-07,0.67665885,0.3726527,7.6295737,9e-08,0.0,0.0,0.0,9e-08,0.0,0.0,0.0,9e-08
1539875295231114184,820,1539875295230270504,base_link,0.0944203619753,-0.124792570345,-0.799875392363,0.579405700976,1.0,0.0,0.0,0.0,1.0,0.0,0.0,0.0,1.0,0.78666728735,0.0171361360699,-0.0602923333645,1.21846967915e-07,0.0,0.0,0.0,1.21846967915e-07,0.0,0.0,0.0,1.21846967915e-07,0.7256921,0.1372931,9.89490985,9e-08,0.0,0.0,0.0,9e-08,0.0,0.0,0.0,9e-08
1539875295712497960,821,1539875295712186056,base_link,0.142798911365,-0.210959472565,-0.79438368887,0.551415566252,1.0,0.0,0.0,0.0,1.0,0.0,0.0,0.0,1.0,0.244190737605,-0.0946008861065,-0.108534753323,1.21846967915e-07,0.0,0.0,0.0,1.21846967915e-07,0.0,0.0,0.0,1.21846967915e-07,1.0002783,1.28467115,10.5519554,9e-08,0.0,0.0,0.0,9e-08,0.0,0.0,0.0,9e-08
1539875296250916360,822,1539875296243930728,base_link,0.144826232361,-0.219712661126,-0.837459545899,0.478970999062,1.0,0.0,0.0,0.0,1.0,0.0,0.0,0.0,1.0,-0.147028580308,-0.165966138244,-0.343658715487,1.21846967915e-07,0.0,0.0,0.0,1.21846967915e-07,0.0,0.0,0.0,1.21846967915e-07,0.99047165,1.26505785,11.05209455,9e-08,0.0,0.0,0.0,9e-08,0.0,0.0,0.0,9e-08
1539875296598131880,823,1539875296597630408,base_link,0.123882564935,-0.225821330027,-0.868389520265,0.42374223073,1.0,0.0,0.0,0.0,1.0,0.0,0.0,0.0,1.0,0.107375398278,-0.256249368191,-0.291331291199,1.21846967915e-07,0.0,0.0,0.0,1.21846967915e-07,0.0,0.0,0.0,1.21846967915e-07,1.2356379,0.85317855,12.1014061,9e-08,0.0,0.0,0.0,9e-08,0.0,0.0,0.0,9e-08
1539875297018966984,824,1539875297018550312,base_link,0.0910247535692,-0.273097320434,-0.884955534685,0.366041048846,1.0,0.0,0.0,0.0,1.0,0.0,0.0,0.0,1.0,-0.178078323603,-0.318875938654,-0.137855172157,1.21846967915e-07,0.0,0.0,0.0,1.21846967915e-07,0.0,0.0,0.0,1.21846967915e-07,1.38273765,1.18660465,15.99464615,9e-08,0.0,0.0,0.0,9e-08,0.0,0.0,0.0,9e-08
1539875297305019432,825,1539875297304741512,base_link,0.0534146686557,-0.271245674107,-0.900428480158,0.335858913193,1.0,0.0,0.0,0.0,1.0,0.0,0.0,0.0,1.0,-0.182735830545,-0.228905811906,-0.17858761549,1.21846967915e-07,0.0,0.0,0.0,1.21846967915e-07,0.0,0.0,0.0,1.21846967915e-07,1.44157755,1.1179581,14.2784824,9e-08,0.0,0.0,0.0,9e-08,0.0,0.0,0.0,9e-08
1539875297586496456,826,1539875297584330248,base_link,0.0381748259287,-0.274319910184,-0.911378217754,0.304435565834,1.0,0.0,0.0,0.0,1.0,0.0,0.0,0.0,1.0,0.106978155673,-0.173255458474,-0.237685605884,1.21846967915e-07,0.0,0.0,0.0,1.21846967915e-07,0.0,0.0,0.0,1.21846967915e-07,0.91201845,1.1179581,12.4936721,9e-08,0.0,0.0,0.0,9e-08,0.0,0.0,0.0,9e-08
1539875297963095272,827,1539875297962469576,base_link,0.0232171277056,-0.280493651101,-0.925371651086,0.253912551952,1.0,0.0,0.0,0.0,1.0,0.0,0.0,0.0,1.0,0.0347678810358,-0.118532024324,-0.220308959484,1.21846967915e-07,0.0,0.0,0.0,1.21846967915e-07,0.0,0.0,0.0,1.21846967915e-07,0.8433719,0.85317855,11.03248125,9e-08,0.0,0.0,0.0,9e-08,0.0,0.0,0.0,9e-08
1539875298481591656,828,1539875298481282024,base_link,0.0093375690727,-0.272655471197,-0.940268212653,0.203635684752,1.0,0.0,0.0,0.0,1.0,0.0,0.0,0.0,1.0,-0.0871246010065,-0.0177896618843,-0.187309369445,1.21846967915e-07,0.0,0.0,0.0,1.21846967915e-07,0.0,0.0,0.0,1.21846967915e-07,0.6276256,1.3925443,9.05153795,9e-08,0.0,0.0,0.0,9e-08,0.0,0.0,0.0,9e-08
1539875298902471752,829,1539875298902087752,base_link,0.011977710136,-0.242351167235,-0.957569028587,0.155512062847,1.0,0.0,0.0,0.0,1.0,0.0,0.0,0.0,1.0,-0.0542165786028,-0.0125871412456,-0.244505748153,1.21846967915e-07,0.0,0.0,0.0,1.21846967915e-07,0.0,0.0,0.0,1.21846967915e-07,0.3138128,0.8041453,7.84532,9e-08,0.0,0.0,0.0,9e-08,0.0,0.0,0.0,9e-08
1539875299344762888,830,1539875299344091784,base_link,0.0133560139686,-0.218756513805,-0.969177096266,0.112529821079,1.0,0.0,0.0,0.0,1.0,0.0,0.0,0.0,1.0,-0.194064021111,-0.0193779356778,-0.147718250751,1.21846967915e-07,0.0,0.0,0.0,1.21846967915e-07,0.0,0.0,0.0,1.21846967915e-07,0.3138128,0.77472535,7.8257067,9e-08,0.0,0.0,0.0,9e-08,0.0,0.0,0.0,9e-08
1539875299815963560,831,1539875299815670504,base_link,0.0153708185543,-0.18219569217,-0.980627583789,0.0702709726939,1.0,0.0,0.0,0.0,1.0,0.0,0.0,0.0,1.0,0.0833360925317,-0.0241752788424,-0.22749556601,1.21846967915e-07,0.0,0.0,0.0,1.21846967915e-07,0.0,0.0,0.0,1.21846967915e-07,0.4314926,0.91201845,9.30651085,9e-08,0.0,0.0,0.0,9e-08,0.0,0.0,0.0,9e-08
1539875300117754344,832,1539875300117458216,base_link,0.00986195857378,-0.172479259277,-0.984018016509,0.0431531004413,1.0,0.0,0.0,0.0,1.0,0.0,0.0,0.0,1.0,-0.347251743078,-0.0408356115222,-0.102690935135,1.21846967915e-07,0.0,0.0,0.0,1.21846967915e-07,0.0,0.0,0.0,1.21846967915e-07,0.55897905,0.5491724,12.1798593,9e-08,0.0,0.0,0.0,9e-08,0.0,0.0,0.0,9e-08
1539875300653177992,833,1539875300652932776,base_link,-0.00132513862808,-0.146495319411,-0.989065233519,0.0169507888309,1.0,0.0,0.0,0.0,1.0,0.0,0.0,0.0,1.0,-0.0529404245317,-0.0552637577057,-0.0852958038449,1.21846967915e-07,0.0,0.0,0.0,1.21846967915e-07,0.0,0.0,0.0,1.21846967915e-07,0.53936575,0.7453054,9.79684335,9e-08,0.0,0.0,0.0,9e-08,0.0,0.0,0.0,9e-08
1539875301075259944,834,1539875301074050984,base_link,-0.00646932500133,-0.11737559707,-0.993066096768,0.000918965214913,1.0,0.0,0.0,0.0,1.0,0.0,0.0,0.0,1.0,-0.209587350488,-0.0172100830823,-0.0870854631066,1.21846967915e-07,0.0,0.0,0.0,1.21846967915e-07,0.0,0.0,0.0,1.21846967915e-07,0.8237586,1.02969825,11.1599677,9e-08,0.0,0.0,0.0,9e-08,0.0,0.0,0.0,9e-08
1539875301437592424,835,1539875301436966184,base_link,-0.00337675054161,-0.0569940401012,-0.998188864684,-0.0189543496422,1.0,0.0,0.0,0.0,1.0,0.0,0.0,0.0,1.0,-0.348757326603,0.013796207495,-0.101432748139,1.21846967915e-07,0.0,0.0,0.0,1.21846967915e-07,0.0,0.0,0.0,1.21846967915e-07,0.8041453,1.02969825,9.8851032,9e-08,0.0,0.0,0.0,9e-08,0.0,0.0,0.0,9e-08
1539875301616168232,836,1539875301615846568,base_link,-0.00174733935845,-0.0398284522049,-0.998794466804,-0.0286400817354,1.0,0.0,0.0,0.0,1.0,0.0,0.0,0.0,1.0,-0.131333962083,-0.00154469814152,-0.11379981786,1.21846967915e-07,0.0,0.0,0.0,1.21846967915e-07,0.0,0.0,0.0,1.21846967915e-07,0.51975245,1.2160246,10.8657682,9e-08,0.0,0.0,0.0,9e-08,0.0,0.0,0.0,9e-08
1539875302094252008,837,1539875302093753960,base_link,-0.0050423689291,-0.0344663621993,-0.99789275265,-0.05474210994,1.0,0.0,0.0,0.0,1.0,0.0,0.0,0.0,1.0,0.116129204631,-0.020724542439,-0.0408098734915,1.21846967915e-07,0.0,0.0,0.0,1.21846967915e-07,0.0,0.0,0.0,1.21846967915e-07,0.91201845,0.2941995,12.58193195,9e-08,0.0,0.0,0.0,9e-08,0.0,0.0,0.0,9e-08
1539875302580571336,838,1539875302580111496,base_link,-0.00788889886442,-0.0671872705034,-0.99668550058,-0.0451846090106,1.0,0.0,0.0,0.0,1.0,0.0,0.0,0.0,1.0,0.0205348432064,0.0351121984422,0.0257129408419,1.21846967915e-07,0.0,0.0,0.0,1.21846967915e-07,0.0,0.0,0.0,1.21846967915e-07,0.02941995,0.91201845,8.041453,9e-08,0.0,0.0,0.0,9e-08,0.0,0.0,0.0,9e-08
1539875303030648296,839,1539875303030379656,base_link,0.00862941657106,-0.0438491658712,-0.997403024998,-0.0564799924424,1.0,0.0,0.0,0.0,1.0,0.0,0.0,0.0,1.0,-0.0645608156919,0.0906720682979,-0.119819514453,1.21846967915e-07,0.0,0.0,0.0,1.21846967915e-07,0.0,0.0,0.0,1.21846967915e-07,-0.1176798,0.77472535,8.6102387,9e-08,0.0,0.0,0.0,9e-08,0.0,0.0,0.0,9e-08
1539875303375027816,840,1539875303374681256,base_link,0.0196135228473,-0.0361739818816,-0.996605431831,-0.0713047403833,1.0,0.0,0.0,0.0,1.0,0.0,0.0,0.0,1.0,-0.0932732075453,0.0438609719276,-0.0562978833914,1.21846967915e-07,0.0,0.0,0.0,1.21846967915e-07,0.0,0.0,0.0,1.21846967915e-07,-0.1765197,0.2941995,8.8848249,9e-08,0.0,0.0,0.0,9e-08,0.0,0.0,0.0,9e-08
1539875303668136808,841,1539875303667823688,base_link,0.0239704671551,-0.0338447413315,-0.996571927489,-0.0715845201859,1.0,0.0,0.0,0.0,1.0,0.0,0.0,0.0,1.0,-0.146862447262,0.0134035665542,0.0122199896723,1.21846967915e-07,0.0,0.0,0.0,1.21846967915e-07,0.0,0.0,0.0,1.21846967915e-07,-0.0784532,0.7256921,9.36535075,9e-08,0.0,0.0,0.0,9e-08,0.0,0.0,0.0,9e-08
1539875304094365704,842,1539875304093168200,base_link,0.0333438492582,-0.0256694065874,-0.99652144715,-0.0719324311527,1.0,0.0,0.0,0.0,1.0,0.0,0.0,0.0,1.0,0.0510162264109,0.037476144731,-0.0125365573913,1.21846967915e-07,0.0,0.0,0.0,1.21846967915e-07,0.0,0.0,0.0,1.21846967915e-07,-0.26477955,0.63743225,8.825985,9e-08,0.0,0.0,0.0,9e-08,0.0,0.0,0.0,9e-08
1539875304336641640,843,1539875304336390248,base_link,0.0360063771025,-0.0300445502382,-0.996417694207,-0.0703750273947,1.0,0.0,0.0,0.0,1.0,0.0,0.0,0.0,1.0,-0.0400597937405,0.0455755591393,0.00414799246937,1.21846967915e-07,0.0,0.0,0.0,1.21846967915e-07,0.0,0.0,0.0,1.21846967915e-07,-0.10787315,0.51975245,8.93385815,9e-08,0.0,0.0,0.0,9e-08,0.0,0.0,0.0,9e-08
1539875304833197864,844,1539875304832515112,base_link,0.0433180651965,-0.00995680955888,-0.997024160143,-0.0629859608282,1.0,0.0,0.0,0.0,1.0,0.0,0.0,0.0,1.0,-0.0713449567556,0.00955723132938,-0.0220324266702,1.21846967915e-07,0.0,0.0,0.0,1.21846967915e-07,0.0,0.0,0.0,1.21846967915e-07,-0.34323275,0.99047165,8.99269805,9e-08,0.0,0.0,0.0,9e-08,0.0,0.0,0.0,9e-08
1539875305244432712,845,1539875305244192040,base_link,0.0391475911629,-0.0158503414355,-0.996648812206,-0.0700526795438,1.0,0.0,0.0,0.0,1.0,0.0,0.0,0.0,1.0,0.122617229819,-0.039043776691,-0.041310865432,1.21846967915e-07,0.0,0.0,0.0,1.21846967915e-07,0.0,0.0,0.0,1.21846967915e-07,-0.0784532,0.3138128,9.07115125,9e-08,0.0,0.0,0.0,9e-08,0.0,0.0,0.0,9e-08
1539875305521617608,846,1539875305521193064,base_link,0.0308850286678,-0.041437279032,-0.995924088131,-0.0739207520984,1.0,0.0,0.0,0.0,1.0,0.0,0.0,0.0,1.0,0.208319485188,-0.057928275317,-0.014742327854,1.21846967915e-07,0.0,0.0,0.0,1.21846967915e-07,0.0,0.0,0.0,1.21846967915e-07,-0.1176798,0.3726527,9.93413645,9e-08,0.0,0.0,0.0,9e-08,0.0,0.0,0.0,9e-08
1539875305939188232,847,1539875305938718184,base_link,0.0166930634344,-0.0440630154868,-0.996498675542,-0.0690665037708,1.0,0.0,0.0,0.0,1.0,0.0,0.0,0.0,1.0,-0.0131823215634,-0.0658964887261,0.0387293249369,1.21846967915e-07,0.0,0.0,0.0,1.21846967915e-07,0.0,0.0,0.0,1.21846967915e-07,-0.0196133,0.3334261,11.1991943,9e-08,0.0,0.0,0.0,9e-08,0.0,0.0,0.0,9e-08
1539875306401943656,848,1539875306401553896,base_link,0.003721199328,-0.0264937625234,-0.99793617655,-0.058374829806,1.0,0.0,0.0,0.0,1.0,0.0,0.0,0.0,1.0,-0.135543584824,-0.0335948206484,0.0253286920488,1.21846967915e-07,0.0,0.0,0.0,1.21846967915e-07,0.0,0.0,0.0,1.21846967915e-07,0.3334261,0.53936575,10.8461549,9e-08,0.0,0.0,0.0,9e-08,0.0,0.0,0.0,9e-08
1539875306690885736,849,1539875306690549704,base_link,-0.00225899953372,-0.0146959900044,-0.998233643417,-0.0575197179227,1.0,0.0,0.0,0.0,1.0,0.0,0.0,0.0,1.0,-0.0124778170139,-0.0395639240742,-0.037537727505,1.21846967915e-07,0.0,0.0,0.0,1.21846967915e-07,0.0,0.0,0.0,1.21846967915e-07,0.0784532,0.69627215,10.48330885,9e-08,0.0,0.0,0.0,9e-08,0.0,0.0,0.0,9e-08
1539875307080752392,850,1539875307080312776,base_link,-0.0154699897326,-0.0343570166851,-0.997458710011,-0.060468145708,1.0,0.0,0.0,0.0,1.0,0.0,0.0,0.0,1.0,0.0950412973762,-0.0385307855904,0.0310863088816,1.21846967915e-07,0.0,0.0,0.0,1.21846967915e-07,0.0,0.0,0.0,1.21846967915e-07,0.32361945,0.4707192,11.4149406,9e-08,0.0,0.0,0.0,9e-08,0.0,0.0,0.0,9e-08
1539875307478490888,851,1539875307478013896,base_link,-0.0202979689212,-0.040416029722,-0.997785478861,-0.0487716636232,1.0,0.0,0.0,0.0,1.0,0.0,0.0,0.0,1.0,-0.0015682769008,0.0106411194429,0.0424563474953,1.21846967915e-07,0.0,0.0,0.0,1.21846967915e-07,0.0,0.0,0.0,1.21846967915e-07,0.04903325,0.7060788,10.2185293,9e-08,0.0,0.0,0.0,9e-08,0.0,0.0,0.0,9e-08
1539875307776130184,852,1539875307775821096,base_link,-0.0185564962175,-0.038056444198,-0.997933163543,-0.048340093134,1.0,0.0,0.0,0.0,1.0,0.0,0.0,0.0,1.0,0.0659456476569,0.00963799003512,-0.0428533144295,1.21846967915e-07,0.0,0.0,0.0,1.21846967915e-07,0.0,0.0,0.0,1.21846967915e-07,0.00980665,0.75511205,9.79684335,9e-08,0.0,0.0,0.0,9e-08,0.0,0.0,0.0,9e-08
1539875308094044840,853,1539875308092792648,base_link,-0.0154545481265,-0.043054327776,-0.997479660925,-0.0542384351123,1.0,0.0,0.0,0.0,1.0,0.0,0.0,0.0,1.0,-0.0936109498143,0.0156679749489,-0.016224173829,1.21846967915e-07,0.0,0.0,0.0,1.21846967915e-07,0.0,0.0,0.0,1.21846967915e-07,0.04903325,0.55897905,9.54187045,9e-08,0.0,0.0,0.0,9e-08,0.0,0.0,0.0,9e-08
1539875308443503432,854,1539875308441199112,base_link,-0.014349626203,-0.0341352526319,-0.997762431603,-0.0556686881271,1.0,0.0,0.0,0.0,1.0,0.0,0.0,0.0,1.0,0.00247461907566,0.0041406545788,0.00898286048323,1.21846967915e-07,0.0,0.0,0.0,1.21846967915e-07,0.0,0.0,0.0,1.21846967915e-07,0.2745862,0.44129925,9.50264385,9e-08,0.0,0.0,0.0,9e-08,0.0,0.0,0.0,9e-08
1539875308882809032,855,1539875308882461800,base_link,-0.0124974591339,-0.0489413990322,-0.997285883046,-0.0535669716703,1.0,0.0,0.0,0.0,1.0,0.0,0.0,0.0,1.0,0.160458892584,-0.00567238265648,0.0208484791219,1.21846967915e-07,0.0,0.0,0.0,1.21846967915e-07,0.0,0.0,0.0,1.21846967915e-07,0.4314926,0.1176798,9.44380395,9e-08,0.0,0.0,0.0,9e-08,0.0,0.0,0.0,9e-08
1539875309193375304,856,1539875309193154088,base_link,-0.0132336813457,-0.0498357760945,-0.997666606232,-0.0447505073646,1.0,0.0,0.0,0.0,1.0,0.0,0.0,0.0,1.0,-0.0920066684484,0.0122932363302,0.0781818702817,1.21846967915e-07,0.0,0.0,0.0,1.21846967915e-07,0.0,0.0,0.0,1.21846967915e-07,0.4707192,0.4511059,10.69905515,9e-08,0.0,0.0,0.0,9e-08,0.0,0.0,0.0,9e-08
1539875309573352872,857,1539875309573064648,base_link,-0.00925596313259,-0.0347388755087,-0.999067974331,-0.0238897539053,1.0,0.0,0.0,0.0,1.0,0.0,0.0,0.0,1.0,-0.0386775285006,0.0802585333586,-0.00443539768457,1.21846967915e-07,0.0,0.0,0.0,1.21846967915e-07,0.0,0.0,0.0,1.21846967915e-07,0.3334261,1.0591182,9.40457735,9e-08,0.0,0.0,0.0,9e-08,0.0,0.0,0.0,9e-08
1539875309974154472,858,1539875309973427176,base_link,0.00274108519873,-0.0289002192014,-0.998803187733,-0.0393631293909,1.0,0.0,0.0,0.0,1.0,0.0,0.0,0.0,1.0,0.0223559364676,0.030151726678,-0.139446467161,1.21846967915e-07,0.0,0.0,0.0,1.21846967915e-07,0.0,0.0,0.0,1.21846967915e-07,0.1569064,1.0395049,8.36507245,9e-08,0.0,0.0,0.0,9e-08,0.0,0.0,0.0,9e-08
1539875310267302568,859,1539875310267067208,base_link,0.000407325470924,-0.0406504848834,-0.997580061427,-0.056403840364,1.0,0.0,0.0,0.0,1.0,0.0,0.0,0.0,1.0,0.0390057191253,-0.0664739236236,-0.0867767259479,1.21846967915e-07,0.0,0.0,0.0,1.21846967915e-07,0.0,0.0,0.0,1.21846967915e-07,0.69627215,0.2353596,10.4538889,9e-08,0.0,0.0,0.0,9e-08,0.0,0.0,0.0,9e-08
1539875310724022984,860,1539875310723345928,base_link,-0.0197554660494,-0.0666782788345,-0.995859774635,-0.0585409084087,1.0,0.0,0.0,0.0,1.0,0.0,0.0,0.0,1.0,0.0225072260946,-0.116160571575,0.0276511739939,1.21846967915e-07,0.0,0.0,0.0,1.21846967915e-07,0.0,0.0,0.0,1.21846967915e-07,0.6276256,0.6080123,12.97419795,9e-08,0.0,0.0,0.0,9e-08,0.0,0.0,0.0,9e-08
1539875310998655240,861,1539875310998328040,base_link,-0.0252453904968,-0.0733271675995,-0.995531720522,-0.0538738358092,1.0,0.0,0.0,0.0,1.0,0.0,0.0,0.0,1.0,0.17813359201,-0.0154894981533,0.0228007417172,1.21846967915e-07,0.0,0.0,0.0,1.21846967915e-07,0.0,0.0,0.0,1.21846967915e-07,0.784532,0.5099458,10.26756255,9e-08,0.0,0.0,0.0,9e-08,0.0,0.0,0.0,9e-08
1539875311319059496,862,1539875311318667752,base_link,-0.0242596926886,-0.0677186644641,-0.995892081954,-0.0549964625639,1.0,0.0,0.0,0.0,1.0,0.0,0.0,0.0,1.0,-0.0260828640312,0.00360526912846,-0.0592073649168,1.21846967915e-07,0.0,0.0,0.0,1.21846967915e-07,0.0,0.0,0.0,1.21846967915e-07,0.6276256,0.6276256,9.58109705,9e-08,0.0,0.0,0.0,9e-08,0.0,0.0,0.0,9e-08
1539875311725944744,863,1539875311725571496,base_link,-0.0256481719357,-0.0449341952083,-0.996561265312,-0.0647204284316,1.0,0.0,0.0,0.0,1.0,0.0,0.0,0.0,1.0,-0.320702195168,-0.0371119491756,-0.0246506892145,1.21846967915e-07,0.0,0.0,0.0,1.21846967915e-07,0.0,0.0,0.0,1.21846967915e-07,0.6864655,0.6864655,12.60154525,9e-08,0.0,0.0,0.0,9e-08,0.0,0.0,0.0,9e-08
1539875312107270632,864,1539875312106322920,base_link,-0.0273385017771,-0.0198783089072,-0.997239325374,-0.066114953558,1.0,0.0,0.0,0.0,1.0,0.0,0.0,0.0,1.0,-0.0827427655458,-0.0412663295865,-0.0354702286422,1.21846967915e-07,0.0,0.0,0.0,1.21846967915e-07,0.0,0.0,0.0,1.21846967915e-07,0.7256921,0.4118793,13.09187775,9e-08,0.0,0.0,0.0,9e-08,0.0,0.0,0.0,9e-08
1539875312486650056,865,1539875312485938216,base_link,-0.0266199191528,-0.0409525059478,-0.997244318675,-0.0558394218392,1.0,0.0,0.0,0.0,1.0,0.0,0.0,0.0,1.0,0.285827338696,0.0420131385326,0.0875388681889,1.21846967915e-07,0.0,0.0,0.0,1.21846967915e-07,0.0,0.0,0.0,1.21846967915e-07,0.4118793,0.2941995,10.30678915,9e-08,0.0,0.0,0.0,9e-08,0.0,0.0,0.0,9e-08
1539875312921276168,866,1539875312920917832,base_link,-0.0134252272046,-0.0261420475296,-0.998590063198,-0.0442068129136,1.0,0.0,0.0,0.0,1.0,0.0,0.0,0.0,1.0,-0.234780073166,0.0907871052623,-0.0514221712947,1.21846967915e-07,0.0,0.0,0.0,1.21846967915e-07,0.0,0.0,0.0,1.21846967915e-07,0.3138128,0.48052585,8.3160392,9e-08,0.0,0.0,0.0,9e-08,0.0,0.0,0.0,9e-08
1539875313294888840,867,1539875313294347848,base_link,-0.00167748515877,-0.0165809556781,-0.999063032892,-0.0399413853234,1.0,0.0,0.0,0.0,1.0,0.0,0.0,0.0,1.0,-0.0525906607509,0.0264732632786,0.0500517189503,1.21846967915e-07,0.0,0.0,0.0,1.21846967915e-07,0.0,0.0,0.0,1.21846967915e-07,0.24516625,0.5295591,9.2967042,9e-08,0.0,0.0,0.0,9e-08,0.0,0.0,0.0,9e-08
1539875313815808296,868,1539875313815461960,base_link,0.0100498471188,-0.0226926629904,-0.998966752924,-0.0380719079049,1.0,0.0,0.0,0.0,1.0,0.0,0.0,0.0,1.0,0.206887125969,0.00235094456002,-0.0385611057281,1.21846967915e-07,0.0,0.0,0.0,1.21846967915e-07,0.0,0.0,0.0,1.21846967915e-07,0.3726527,-0.0196133,10.9049948,9e-08,0.0,0.0,0.0,9e-08,0.0,0.0,0.0,9e-08
1539875314124931592,869,1539875314124387752,base_link,0.00595683951655,-0.0435140251771,-0.998664727006,-0.0271994248049,1.0,0.0,0.0,0.0,1.0,0.0,0.0,0.0,1.0,0.0596428774297,-0.0134919304401,0.0841098204255,1.21846967915e-07,0.0,0.0,0.0,1.21846967915e-07,0.0,0.0,0.0,1.21846967915e-07,0.588399,0.2941995,10.48330885,9e-08,0.0,0.0,0.0,9e-08,0.0,0.0,0.0,9e-08
1539875314694246184,870,1539875314694037224,base_link,-0.00266204899809,-0.064583164892,-0.997689354831,-0.0209255720339,1.0,0.0,0.0,0.0,1.0,0.0,0.0,0.0,1.0,0.166114091873,-0.0294094886631,-0.082297757268,1.21846967915e-07,0.0,0.0,0.0,1.21846967915e-07,0.0,0.0,0.0,1.21846967915e-07,0.1765197,0.85317855,10.4342756,9e-08,0.0,0.0,0.0,9e-08,0.0,0.0,0.0,9e-08
1539875315107346984,871,1539875315106998440,base_link,-0.0137161409182,-0.0747462039246,-0.996581769639,-0.0323982854686,1.0,0.0,0.0,0.0,1.0,0.0,0.0,0.0,1.0,-0.068589143455,-0.0374309495091,0.0316009782255,1.21846967915e-07,0.0,0.0,0.0,1.21846967915e-07,0.0,0.0,0.0,1.21846967915e-07,0.6080123,0.0392266,11.7287534,9e-08,0.0,0.0,0.0,9e-08,0.0,0.0,0.0,9e-08
1539875315397960616,872,1539875315397715400,base_link,-0.0183050819428,-0.0414652987029,-0.998809872432,-0.0180108775774,1.0,0.0,0.0,0.0,1.0,0.0,0.0,0.0,1.0,0.0207284707576,0.0414457656443,0.0876619666815,1.21846967915e-07,0.0,0.0,0.0,1.21846967915e-07,0.0,0.0,0.0,1.21846967915e-07,0.46091255,0.51975245,10.81673495,9e-08,0.0,0.0,0.0,9e-08,0.0,0.0,0.0,9e-08
1539875315831324200,873,1539875315830921256,base_link,-0.0096576494898,-0.0365719252151,-0.999278979218,-0.00327807638415,1.0,0.0,0.0,0.0,1.0,0.0,0.0,0.0,1.0,-0.220355033875,0.0643372014165,0.0400821082294,1.21846967915e-07,0.0,0.0,0.0,1.21846967915e-07,0.0,0.0,0.0,1.21846967915e-07,-0.04903325,1.176798,7.67860695,9e-08,0.0,0.0,0.0,9e-08,0.0,0.0,0.0,9e-08
1539875316300221800,874,1539875316300004168,base_link,0.00787539622871,-0.00282390895515,-0.999367427494,-0.0345651346828,1.0,0.0,0.0,0.0,1.0,0.0,0.0,0.0,1.0,0.274814128876,0.0484865605831,-0.127716347575,1.21846967915e-07,0.0,0.0,0.0,1.21846967915e-07,0.0,0.0,0.0,1.21846967915e-07,0.06864655,0.196133,9.73800345,9e-08,0.0,0.0,0.0,9e-08,0.0,0.0,0.0,9e-08
1539875316679636968,875,1539875316679288776,base_link,0.0102094575279,-0.053733587419,-0.997638886373,-0.0415345754445,1.0,0.0,0.0,0.0,1.0,0.0,0.0,0.0,1.0,0.0880307480693,-0.00293161580339,0.0688628703356,1.21846967915e-07,0.0,0.0,0.0,1.21846967915e-07,0.0,0.0,0.0,1.21846967915e-07,0.08825985,-0.00980665,9.73800345,9e-08,0.0,0.0,0.0,9e-08,0.0,0.0,0.0,9e-08
1539875317019850728,876,1539875317019591944,base_link,0.0119965366394,-0.0512653762725,-0.998194405162,-0.0289114822855,1.0,0.0,0.0,0.0,1.0,0.0,0.0,0.0,1.0,-0.0640187188983,0.0142981056124,0.0528109185398,1.21846967915e-07,0.0,0.0,0.0,1.21846967915e-07,0.0,0.0,0.0,1.21846967915e-07,0.1765197,0.34323275,8.5513988,9e-08,0.0,0.0,0.0,9e-08,0.0,0.0,0.0,9e-08
1539875317232404136,877,1539875317232044104,base_link,0.0155594808108,-0.0369238115459,-0.99891512549,-0.0237298707534,1.0,0.0,0.0,0.0,1.0,0.0,0.0,0.0,1.0,-0.196433693171,0.0212496258318,0.0403971783817,1.21846967915e-07,0.0,0.0,0.0,1.21846967915e-07,0.0,0.0,0.0,1.21846967915e-07,0.10787315,0.28439285,8.629852,9e-08,0.0,0.0,0.0,9e-08,0.0,0.0,0.0,9e-08
1539875317661981992,878,1539875317661384264,base_link,0.0192652203953,-0.0278033017485,-0.999219554282,-0.0203987753423,1.0,0.0,0.0,0.0,1.0,0.0,0.0,0.0,1.0,0.0963280647993,-0.0409517884254,0.0255354624242,1.21846967915e-07,0.0,0.0,0.0,1.21846967915e-07,0.0,0.0,0.0,1.21846967915e-07,0.04903325,-0.12748645,9.54187045,9e-08,0.0,0.0,0.0,9e-08,0.0,0.0,0.0,9e-08
1539875318100067912,879,1539875318099755816,base_link,0.00698043606363,-0.0471553108984,-0.998833230727,0.00773481494617,1.0,0.0,0.0,0.0,1.0,0.0,0.0,0.0,1.0,-0.12697647512,-0.0566975437105,0.108157709241,1.21846967915e-07,0.0,0.0,0.0,1.21846967915e-07,0.0,0.0,0.0,1.21846967915e-07,0.3334261,1.3533177,12.18966595,9e-08,0.0,0.0,0.0,9e-08,0.0,0.0,0.0,9e-08
1539875318484301160,880,1539875318483668008,base_link,0.00887698983568,0.0129139408069,-0.999848879771,0.0075264071153,1.0,0.0,0.0,0.0,1.0,0.0,0.0,0.0,1.0,-0.157070040703,0.0964360386133,-0.131209671497,1.21846967915e-07,0.0,0.0,0.0,1.21846967915e-07,0.0,0.0,0.0,1.21846967915e-07,0.22555295,1.04931155,11.3953273,9e-08,0.0,0.0,0.0,9e-08,0.0,0.0,0.0,9e-08
1539875318855599976,881,1539875318854881512,base_link,0.0175539175778,-0.0326057670227,-0.999108304643,-0.0202810139812,1.0,0.0,0.0,0.0,1.0,0.0,0.0,0.0,1.0,0.464516818523,-0.0210030134767,0.00292061455548,1.21846967915e-07,0.0,0.0,0.0,1.21846967915e-07,0.0,0.0,0.0,1.21846967915e-07,-0.0392266,-0.8041453,6.3154826,9e-08,0.0,0.0,0.0,9e-08,0.0,0.0,0.0,9e-08
1539875319302878792,882,1539875319301733288,base_link,0.00540638978078,-0.0541688529136,-0.998513245224,0.0027938209975,1.0,0.0,0.0,0.0,1.0,0.0,0.0,0.0,1.0,-0.0723923444748,-0.062097415328,0.0822798162699,1.21846967915e-07,0.0,0.0,0.0,1.21846967915e-07,0.0,0.0,0.0,1.21846967915e-07,-0.20593965,0.71588545,9.12999115,9e-08,0.0,0.0,0.0,9e-08,0.0,0.0,0.0,9e-08
1539875319764445256,883,1539875319763407592,base_link,-0.000104502599309,-0.0243547473173,-0.999703373293,2.80861085731e-05,1.0,0.0,0.0,0.0,1.0,0.0,0.0,0.0,1.0,-0.062595628202,-0.0534218512475,-0.046818383038,1.21846967915e-07,0.0,0.0,0.0,1.21846967915e-07,0.0,0.0,0.0,1.21846967915e-07,0.3530394,0.38245935,9.7478101,9e-08,0.0,0.0,0.0,9e-08,0.0,0.0,0.0,9e-08
1539875320302855208,884,1539875320302330600,base_link,-0.0106058258211,-0.0560268556038,-0.998372903585,0.000230863631932,1.0,0.0,0.0,0.0,1.0,0.0,0.0,0.0,1.0,0.516212403774,-0.0101000294089,0.127778708935,1.21846967915e-07,0.0,0.0,0.0,1.21846967915e-07,0.0,0.0,0.0,1.21846967915e-07,0.6080123,-0.75511205,12.3171524,9e-08,0.0,0.0,0.0,9e-08,0.0,0.0,0.0,9e-08
1539875320668040936,885,1539875320667803080,base_link,-0.025153713857,-0.0533324644946,-0.997499706982,0.0389521948254,1.0,0.0,0.0,0.0,1.0,0.0,0.0,0.0,1.0,-0.273192673922,-0.00796590559185,0.169512361288,1.21846967915e-07,0.0,0.0,0.0,1.21846967915e-07,0.0,0.0,0.0,1.21846967915e-07,0.57859235,0.85317855,11.9052731,9e-08,0.0,0.0,0.0,9e-08,0.0,0.0,0.0,9e-08
1539875321032556584,886,1539875321032055656,base_link,-0.0209901769736,-0.0394627704663,-0.997885415424,0.0471889807195,1.0,0.0,0.0,0.0,1.0,0.0,0.0,0.0,1.0,-0.0758873000741,0.0206335112453,0.0499612949789,1.21846967915e-07,0.0,0.0,0.0,1.21846967915e-07,0.0,0.0,0.0,1.21846967915e-07,0.4118793,0.3530394,10.2969825,9e-08,0.0,0.0,0.0,9e-08,0.0,0.0,0.0,9e-08
1539875321366394568,887,1539875321366172296,base_link,-0.0215967845457,-0.0165669489254,-0.997940141676,0.0580912104536,1.0,0.0,0.0,0.0,1.0,0.0,0.0,0.0,1.0,-0.221527203918,0.0194501187652,0.079078361392,1.21846967915e-07,0.0,0.0,0.0,1.21846967915e-07,0.0,0.0,0.0,1.21846967915e-07,0.57859235,0.6276256,11.9444997,9e-08,0.0,0.0,0.0,9e-08,0.0,0.0,0.0,9e-08
1539875321715590088,888,1539875321715179368,base_link,-0.00701768199816,0.000876660315633,-0.996960938579,0.0775813801969,1.0,0.0,0.0,0.0,1.0,0.0,0.0,0.0,1.0,0.113847181201,0.147781953216,0.0811469852924,1.21846967915e-07,0.0,0.0,0.0,1.21846967915e-07,0.0,0.0,0.0,1.21846967915e-07,0.57859235,0.6864655,12.2190859,9e-08,0.0,0.0,0.0,9e-08,0.0,0.0,0.0,9e-08
1539875322133036200,889,1539875322132651272,base_link,0.0230788743913,-0.0654119541993,-0.995528286964,0.0641254369143,1.0,0.0,0.0,0.0,1.0,0.0,0.0,0.0,1.0,0.41457092762,0.082977168262,-0.13003218174,1.21846967915e-07,0.0,0.0,0.0,1.21846967915e-07,0.0,0.0,0.0,1.21846967915e-07,0.0,0.55897905,10.8265416,9e-08,0.0,0.0,0.0,9e-08,0.0,0.0,0.0,9e-08
1539875322377388296,890,1539875322377044712,base_link,0.0343765362868,-0.0900773519742,-0.993583281161,0.0591319525412,1.0,0.0,0.0,0.0,1.0,0.0,0.0,0.0,1.0,-0.00615713279694,0.061832010746,0.189483493567,1.21846967915e-07,0.0,0.0,0.0,1.21846967915e-07,0.0,0.0,0.0,1.21846967915e-07,0.18632635,0.46091255,8.63965865,9e-08,0.0,0.0,0.0,9e-08,0.0,0.0,0.0,9e-08
1539875322786044040,891,1539875322783660904,base_link,0.0569967759124,-0.0637176109306,-0.995339144197,0.0446253472946,1.0,0.0,0.0,0.0,1.0,0.0,0.0,0.0,1.0,-0.400604784489,0.07941544801,-0.35905072093,1.21846967915e-07,0.0,0.0,0.0,1.21846967915e-07,0.0,0.0,0.0,1.21846967915e-07,-0.24516625,1.67693715,5.8643767,9e-08,0.0,0.0,0.0,9e-08,0.0,0.0,0.0,9e-08
1539875323117551624,892,1539875323117347880,base_link,0.0563262456811,-0.0908599745315,-0.994155985885,-0.0150231423286,1.0,0.0,0.0,0.0,1.0,0.0,0.0,0.0,1.0,0.413522273302,-0.0848034322262,-0.222537904978,1.21846967915e-07,0.0,0.0,0.0,1.21846967915e-07,0.0,0.0,0.0,1.21846967915e-07,-0.08825985,-0.1372931,10.1008495,9e-08,0.0,0.0,0.0,9e-08,0.0,0.0,0.0,9e-08
1539875323488609576,893,1539875323488388584,base_link,0.0351054440955,-0.131230206437,-0.990268801637,-0.0302314607127,1.0,0.0,0.0,0.0,1.0,0.0,0.0,0.0,1.0,0.0543825738132,-0.135695084929,0.00940905325115,1.21846967915e-07,0.0,0.0,0.0,1.21846967915e-07,0.0,0.0,0.0,1.21846967915e-07,0.0,0.4511059,7.6295737,9e-08,0.0,0.0,0.0,9e-08,0.0,0.0,0.0,9e-08
1539875323856198856,894,1539875323855969928,base_link,0.00662248152311,-0.155526145592,-0.987139971489,-0.036365333281,1.0,0.0,0.0,0.0,1.0,0.0,0.0,0.0,1.0,0.09292896837,-0.151986882091,-0.00488163810223,1.21846967915e-07,0.0,0.0,0.0,1.21846967915e-07,0.0,0.0,0.0,1.21846967915e-07,0.63743225,0.71588545,12.48386545,9e-08,0.0,0.0,0.0,9e-08,0.0,0.0,0.0,9e-08
1539875324196468520,895,1539875324196174024,base_link,-0.0100816963028,-0.154304532463,-0.986981559021,-0.0442252508662,1.0,0.0,0.0,0.0,1.0,0.0,0.0,0.0,1.0,-0.0668912082911,-0.0548286885023,-0.115389436483,1.21846967915e-07,0.0,0.0,0.0,1.21846967915e-07,0.0,0.0,0.0,1.21846967915e-07,0.6472389,1.0787315,11.3953273,9e-08,0.0,0.0,0.0,9e-08,0.0,0.0,0.0,9e-08
1539875324542757192,896,1539875324541932136,base_link,-0.0117779645062,-0.174387357417,-0.981615986604,-0.0766836616813,1.0,0.0,0.0,0.0,1.0,0.0,0.0,0.0,1.0,0.124020859599,-0.0707408636808,-0.179067075253,1.21846967915e-07,0.0,0.0,0.0,1.21846967915e-07,0.0,0.0,0.0,1.21846967915e-07,0.12748645,0.4314926,8.24739265,9e-08,0.0,0.0,0.0,9e-08,0.0,0.0,0.0,9e-08
1539875324914969800,897,1539875324914741032,base_link,-0.0261320338661,-0.195508882644,-0.974676358156,-0.105353644764,1.0,0.0,0.0,0.0,1.0,0.0,0.0,0.0,1.0,0.122232362628,-0.094887919724,-0.132660478354,1.21846967915e-07,0.0,0.0,0.0,1.21846967915e-07,0.0,0.0,0.0,1.21846967915e-07,0.28439285,0.81395195,8.5317855,9e-08,0.0,0.0,0.0,9e-08,0.0,0.0,0.0,9e-08
1539875325373524072,898,1539875325373273256,base_link,-0.0536963557258,-0.216004805976,-0.96435606348,-0.143094402425,1.0,0.0,0.0,0.0,1.0,0.0,0.0,0.0,1.0,-0.0134057085961,-0.173352509737,-0.105855338275,1.21846967915e-07,0.0,0.0,0.0,1.21846967915e-07,0.0,0.0,0.0,1.21846967915e-07,1.55925735,1.0395049,15.72005995,9e-08,0.0,0.0,0.0,9e-08,0.0,0.0,0.0,9e-08
1539875325797058888,899,1539875325796716168,base_link,-0.0751446292316,-0.239728095404,-0.950066802897,-0.185085912496,1.0,0.0,0.0,0.0,1.0,0.0,0.0,0.0,1.0,0.0286645144224,-0.0475576631725,-0.299645096064,1.21846967915e-07,0.0,0.0,0.0,1.21846967915e-07,0.0,0.0,0.0,1.21846967915e-07,1.12776475,1.67693715,13.925443,9e-08,0.0,0.0,0.0,9e-08,0.0,0.0,0.0,9e-08
1539875326042298056,900,1539875326042017288,base_link,-0.0740080888013,-0.234020292698,-0.942302877654,-0.227645760255,1.0,0.0,0.0,0.0,1.0,0.0,0.0,0.0,1.0,0.0464380122721,-0.124876491725,-0.325326740742,1.21846967915e-07,0.0,0.0,0.0,1.21846967915e-07,0.0,0.0,0.0,1.21846967915e-07,0.51975245,0.8041453,10.87557485,9e-08,0.0,0.0,0.0,9e-08,0.0,0.0,0.0,9e-08
1539875326476706344,901,1539875326476488040,base_link,-0.11690713257,-0.259263554298,-0.920955225517,-0.266376808976,1.0,0.0,0.0,0.0,1.0,0.0,0.0,0.0,1.0,-0.189589247108,-0.260303199291,0.0472029522061,1.21846967915e-07,0.0,0.0,0.0,1.21846967915e-07,0.0,0.0,0.0,1.21846967915e-07,0.67665885,0.0196133,10.9638347,9e-08,0.0,0.0,0.0,9e-08,0.0,0.0,0.0,9e-08
1539875326862039080,902,1539875326857648168,base_link,-0.123388870262,-0.19826579521,-0.932710582035,-0.27480325927,1.0,0.0,0.0,0.0,1.0,0.0,0.0,0.0,1.0,-0.456230580807,0.0270460899919,-0.0725754126906,1.21846967915e-07,0.0,0.0,0.0,1.21846967915e-07,0.0,0.0,0.0,1.21846967915e-07,0.53936575,1.0395049,10.07142955,9e-08,0.0,0.0,0.0,9e-08,0.0,0.0,0.0,9e-08
1539875327349287688,903,1539875327348835912,base_link,-0.0844850624992,-0.169328092348,-0.92925058285,-0.317306831993,1.0,0.0,0.0,0.0,1.0,0.0,0.0,0.0,1.0,0.435433030128,0.217722147703,-0.252449899912,1.21846967915e-07,0.0,0.0,0.0,1.21846967915e-07,0.0,0.0,0.0,1.21846967915e-07,0.61781895,1.34351105,7.1980811,9e-08,0.0,0.0,0.0,9e-08,0.0,0.0,0.0,9e-08
1539875327813278664,904,1539875327812933768,base_link,-0.0743785412792,-0.189898861426,-0.899534947692,-0.386319987712,1.0,0.0,0.0,0.0,1.0,0.0,0.0,0.0,1.0,0.190801665187,-0.0789526849985,-0.208737462759,1.21846967915e-07,0.0,0.0,0.0,1.21846967915e-07,0.0,0.0,0.0,1.21846967915e-07,0.5099458,0.1176798,9.97336305,9e-08,0.0,0.0,0.0,9e-08,0.0,0.0,0.0,9e-08
1539875328012507816,905,1539875328012158120,base_link,-0.092378101074,-0.204334197105,-0.888182478909,-0.401055739884,1.0,0.0,0.0,0.0,1.0,0.0,0.0,0.0,1.0,0.0949164554477,-0.14455486834,-0.118762001395,1.21846967915e-07,0.0,0.0,0.0,1.21846967915e-07,0.0,0.0,0.0,1.21846967915e-07,0.4903325,0.8433719,11.38552065,9e-08,0.0,0.0,0.0,9e-08,0.0,0.0,0.0,9e-08
1539875328432260584,906,1539875328431954248,base_link,-0.115052339964,-0.173982747284,-0.877341713549,-0.432162562451,1.0,0.0,0.0,0.0,1.0,0.0,0.0,0.0,1.0,-0.116926431656,-0.182870641351,-0.132631331682,1.21846967915e-07,0.0,0.0,0.0,1.21846967915e-07,0.0,0.0,0.0,1.21846967915e-07,1.0591182,1.14737805,12.1994726,9e-08,0.0,0.0,0.0,9e-08,0.0,0.0,0.0,9e-08
1539875328797046600,907,1539875328796785032,base_link,-0.12184954372,-0.166467205778,-0.861251991584,-0.46442046153,1.0,0.0,0.0,0.0,1.0,0.0,0.0,0.0,1.0,-0.0601961389184,-0.0782060399652,-0.27059930563,1.21846967915e-07,0.0,0.0,0.0,1.21846967915e-07,0.0,0.0,0.0,1.21846967915e-07,1.01008495,1.26505785,11.32668075,9e-08,0.0,0.0,0.0,9e-08,0.0,0.0,0.0,9e-08
1539875329214233640,908,1539875329213945576,base_link,-0.115896860538,-0.132184186738,-0.83674757765,-0.518602689726,1.0,0.0,0.0,0.0,1.0,0.0,0.0,0.0,1.0,-0.222983390093,-0.12087315321,-0.162355512381,1.21846967915e-07,0.0,0.0,0.0,1.21846967915e-07,0.0,0.0,0.0,1.21846967915e-07,0.9610517,0.42168595,11.44436055,9e-08,0.0,0.0,0.0,9e-08,0.0,0.0,0.0,9e-08
1539875329520061608,909,1539875329519821096,base_link,-0.110673784469,-0.0955869439077,-0.825105053577,-0.545725297331,1.0,0.0,0.0,0.0,1.0,0.0,0.0,0.0,1.0,-0.21499453485,-0.104437634349,-0.154837191105,1.21846967915e-07,0.0,0.0,0.0,1.21846967915e-07,0.0,0.0,0.0,1.21846967915e-07,1.01008495,0.3530394,12.81729155,9e-08,0.0,0.0,0.0,9e-08,0.0,0.0,0.0,9e-08
1539875329881192744,910,1539875329880937928,base_link,-0.126769452068,-0.0807971306677,-0.819687976809,-0.552732259211,1.0,0.0,0.0,0.0,1.0,0.0,0.0,0.0,1.0,0.0267433803529,-0.0966749936342,0.0714919939637,1.21846967915e-07,0.0,0.0,0.0,1.21846967915e-07,0.0,0.0,0.0,1.21846967915e-07,1.24544455,0.48052585,13.337044,9e-08,0.0,0.0,0.0,9e-08,0.0,0.0,0.0,9e-08
1539875330301757000,911,1539875330301560360,base_link,-0.107799287058,-0.0467525162018,-0.82662963373,-0.550342588373,1.0,0.0,0.0,0.0,1.0,0.0,0.0,0.0,1.0,-0.068302616477,0.135809898376,-0.0466263890266,1.21846967915e-07,0.0,0.0,0.0,1.21846967915e-07,0.0,0.0,0.0,1.21846967915e-07,0.77472535,1.176798,8.44352565,9e-08,0.0,0.0,0.0,9e-08,0.0,0.0,0.0,9e-08
1539875330661278120,912,1539875330660817512,base_link,-0.076410988353,-0.0471979574284,-0.81395741134,-0.57393993257,1.0,0.0,0.0,0.0,1.0,0.0,0.0,0.0,1.0,-0.158683225513,0.103640735149,-0.184673547745,1.21846967915e-07,0.0,0.0,0.0,1.21846967915e-07,0.0,0.0,0.0,1.21846967915e-07,0.48052585,0.91201845,7.01175475,9e-08,0.0,0.0,0.0,9e-08,0.0,0.0,0.0,9e-08
1539875331023344744,913,1539875331023036264,base_link,-0.0579075134001,-0.0576544131536,-0.798160761838,-0.596876944435,1.0,0.0,0.0,0.0,1.0,0.0,0.0,0.0,1.0,0.16795347631,0.129737630486,-0.149396598339,1.21846967915e-07,0.0,0.0,0.0,1.21846967915e-07,0.0,0.0,0.0,1.21846967915e-07,0.4314926,0.46091255,7.256921,9e-08,0.0,0.0,0.0,9e-08,0.0,0.0,0.0,9e-08
1539875331461237896,914,1539875331451734536,base_link,-0.0605547693237,-0.0782314654614,-0.786855024769,-0.609156899099,1.0,0.0,0.0,0.0,1.0,0.0,0.0,0.0,1.0,-0.0519018508494,0.0295307524502,-0.0219900533557,1.21846967915e-07,0.0,0.0,0.0,1.21846967915e-07,0.0,0.0,0.0,1.21846967915e-07,0.3530394,0.36284605,9.22805765,9e-08,0.0,0.0,0.0,9e-08,0.0,0.0,0.0,9e-08
1539875331745392360,915,1539875331745116488,base_link,-0.0528814326102,-0.0790037224763,-0.786509226476,-0.610217340452,1.0,0.0,0.0,0.0,1.0,0.0,0.0,0.0,1.0,-0.227887675166,0.0317337326705,-0.0323621705174,1.21846967915e-07,0.0,0.0,0.0,1.21846967915e-07,0.0,0.0,0.0,1.21846967915e-07,0.2549729,0.980665,9.6301303,9e-08,0.0,0.0,0.0,9e-08,0.0,0.0,0.0,9e-08
1539875332117251336,916,1539875332117060904,base_link,-0.0323648624896,-0.0709968687034,-0.778345437943,-0.622968971574,1.0,0.0,0.0,0.0,1.0,0.0,0.0,0.0,1.0,0.0511411987245,0.0368252620101,-0.123590365052,1.21846967915e-07,0.0,0.0,0.0,1.21846967915e-07,0.0,0.0,0.0,1.21846967915e-07,0.38245935,0.26477955,8.2964259,9e-08,0.0,0.0,0.0,9e-08,0.0,0.0,0.0,9e-08
1539875332591953288,917,1539875332591149448,base_link,-0.0191571846235,-0.0574822565904,-0.766201651253,-0.639737307081,1.0,0.0,0.0,0.0,1.0,0.0,0.0,0.0,1.0,0.0610230378807,0.00425987364724,-0.113706976175,1.21846967915e-07,0.0,0.0,0.0,1.21846967915e-07,0.0,0.0,0.0,1.21846967915e-07,0.38245935,0.08825985,9.4339973,9e-08,0.0,0.0,0.0,9e-08,0.0,0.0,0.0,9e-08
1539875332900035496,918,1539875332899576712,base_link,-0.0259490738084,-0.0555926416161,-0.763345052087,-0.643071096552,1.0,0.0,0.0,0.0,1.0,0.0,0.0,0.0,1.0,-0.0169540904462,-0.0561449229717,0.0275355260819,1.21846967915e-07,0.0,0.0,0.0,1.21846967915e-07,0.0,0.0,0.0,1.21846967915e-07,0.2549729,0.196133,10.64021525,9e-08,0.0,0.0,0.0,9e-08,0.0,0.0,0.0,9e-08
1539875333213203080,919,1539875333211878952,base_link,-0.0306074856096,-0.0484183576998,-0.770296978625,-0.635107399724,1.0,0.0,0.0,0.0,1.0,0.0,0.0,0.0,1.0,-0.0652490779757,-0.0313902050257,0.0735402107239,1.21846967915e-07,0.0,0.0,0.0,1.21846967915e-07,0.0,0.0,0.0,1.21846967915e-07,0.392266,0.6864655,10.2577559,9e-08,0.0,0.0,0.0,9e-08,0.0,0.0,0.0,9e-08
1539875333672279816,920,1539875333671849224,base_link,-0.0410391523515,-0.0497351192226,-0.768357279435,-0.636764710886,1.0,0.0,0.0,0.0,1.0,0.0,0.0,0.0,1.0,0.117785856128,-0.0526152737439,-0.0659762695432,1.21846967915e-07,0.0,0.0,0.0,1.21846967915e-07,0.0,0.0,0.0,1.21846967915e-07,0.4511059,0.61781895,9.97336305,9e-08,0.0,0.0,0.0,9e-08,0.0,0.0,0.0,9e-08
1539875334034949544,921,1539875334034675944,base_link,-0.0300643971027,-0.0313010187741,-0.764178616132,-0.643542866403,1.0,0.0,0.0,0.0,1.0,0.0,0.0,0.0,1.0,-0.0918684825301,-0.0248940251768,-0.0441437810659,1.21846967915e-07,0.0,0.0,0.0,1.21846967915e-07,0.0,0.0,0.0,1.21846967915e-07,0.32361945,0.6276256,10.52253545,9e-08,0.0,0.0,0.0,9e-08,0.0,0.0,0.0,9e-08
1539875334418619304,922,1539875334416775912,base_link,-0.0223294189278,-0.0183492445098,-0.760275157705,-0.648957923793,1.0,0.0,0.0,0.0,1.0,0.0,0.0,0.0,1.0,-0.165054991841,-0.047046456486,-0.0283174682409,1.21846967915e-07,0.0,0.0,0.0,1.21846967915e-07,0.0,0.0,0.0,1.21846967915e-07,0.2549729,0.588399,10.591182,9e-08,0.0,0.0,0.0,9e-08,0.0,0.0,0.0,9e-08
1539875334765108808,923,1539875334764801576,base_link,-0.0169125056971,-0.0020758145064,-0.762513905407,-0.646747402164,1.0,0.0,0.0,0.0,1.0,0.0,0.0,0.0,1.0,0.0379994474351,-0.00630013179034,0.052672252059,1.21846967915e-07,0.0,0.0,0.0,1.21846967915e-07,0.0,0.0,0.0,1.21846967915e-07,0.1569064,0.55897905,10.28717585,9e-08,0.0,0.0,0.0,9e-08,0.0,0.0,0.0,9e-08
1539875335194846440,924,1539875335194600936,base_link,-0.0249573691927,-0.00841403736314,-0.771579782787,-0.635587108501,1.0,0.0,0.0,0.0,1.0,0.0,0.0,0.0,1.0,0.119130395353,-0.011191021651,0.0506425723433,1.21846967915e-07,0.0,0.0,0.0,1.21846967915e-07,0.0,0.0,0.0,1.21846967915e-07,0.46091255,0.36284605,10.24794925,9e-08,0.0,0.0,0.0,9e-08,0.0,0.0,0.0,9e-08
1539875335676261544,925,1539875335674370568,base_link,-0.024651812005,-0.0137057977941,-0.783261347632,-0.621052413713,1.0,0.0,0.0,0.0,1.0,0.0,0.0,0.0,1.0,-0.0492577813566,0.0495340973139,0.0643979907036,1.21846967915e-07,0.0,0.0,0.0,1.21846967915e-07,0.0,0.0,0.0,1.21846967915e-07,0.34323275,0.63743225,9.8851032,9e-08,0.0,0.0,0.0,9e-08,0.0,0.0,0.0,9e-08
1539875336095371592,926,1539875336095127752,base_link,-0.0119943111399,-0.012610211283,-0.787670011826,-0.61585150121,1.0,0.0,0.0,0.0,1.0,0.0,0.0,0.0,1.0,-0.0644304826856,0.0381730906665,0.0293085519224,1.21846967915e-07,0.0,0.0,0.0,1.21846967915e-07,0.0,0.0,0.0,1.21846967915e-07,0.10787315,0.48052585,9.03192465,9e-08,0.0,0.0,0.0,9e-08,0.0,0.0,0.0,9e-08
1539875336477147368,927,1539875336476379048,base_link,-0.00889101520243,-0.0197681287107,-0.791695506354,-0.610531240932,1.0,0.0,0.0,0.0,1.0,0.0,0.0,0.0,1.0,0.0818297415972,0.0267167706043,0.0519548803568,1.21846967915e-07,0.0,0.0,0.0,1.21846967915e-07,0.0,0.0,0.0,1.21846967915e-07,-0.0392266,0.44129925,8.36507245,9e-08,0.0,0.0,0.0,9e-08,0.0,0.0,0.0,9e-08
1539875336980583848,928,1539875336979557064,base_link,-0.00387536010688,-0.0171721058304,-0.800359527359,-0.599261818683,1.0,0.0,0.0,0.0,1.0,0.0,0.0,0.0,1.0,-0.0728439688683,0.0240409802645,-0.00636347895488,1.21846967915e-07,0.0,0.0,0.0,1.21846967915e-07,0.0,0.0,0.0,1.21846967915e-07,0.22555295,0.48052585,10.8265416,9e-08,0.0,0.0,0.0,9e-08,0.0,0.0,0.0,9e-08
1539875337254700616,929,1539875337254374280,base_link,-0.00988205144137,-0.0293511721455,-0.79941182652,-0.599984654281,1.0,0.0,0.0,0.0,1.0,0.0,0.0,0.0,1.0,0.131690174341,-0.00106475572102,-0.0428711734712,1.21846967915e-07,0.0,0.0,0.0,1.21846967915e-07,0.0,0.0,0.0,1.21846967915e-07,0.2941995,0.81395195,10.22833595,9e-08,0.0,0.0,0.0,9e-08,0.0,0.0,0.0,9e-08
1539875337744197608,930,1539875337743838696,base_link,-0.017449000167,-0.0411932069057,-0.786021396322,-0.61657847564,1.0,0.0,0.0,0.0,1.0,0.0,0.0,0.0,1.0,0.192021101713,-0.0490275211632,-0.106764927506,1.21846967915e-07,0.0,0.0,0.0,1.21846967915e-07,0.0,0.0,0.0,1.21846967915e-07,0.3138128,0.65704555,7.8649333,9e-08,0.0,0.0,0.0,9e-08,0.0,0.0,0.0,9e-08
1539875338170545896,931,1539875338170212072,base_link,-0.0610954319293,-0.0740310666317,-0.774483262465,-0.625269882156,1.0,0.0,0.0,0.0,1.0,0.0,0.0,0.0,1.0,0.214023828506,-0.0905943587422,-0.05401276052,1.21846967915e-07,0.0,0.0,0.0,1.21846967915e-07,0.0,0.0,0.0,1.21846967915e-07,0.99047165,0.38245935,11.1991943,9e-08,0.0,0.0,0.0,9e-08,0.0,0.0,0.0,9e-08
1539875338611149160,932,1539875338609020168,base_link,-0.108036646751,-0.103795031923,-0.76049034605,-0.631829967532,1.0,0.0,0.0,0.0,1.0,0.0,0.0,0.0,1.0,0.195885762572,-0.0782079696655,-0.0789084434509,1.21846967915e-07,0.0,0.0,0.0,1.21846967915e-07,0.0,0.0,0.0,1.21846967915e-07,0.9218251,0.7060788,11.5914603,9e-08,0.0,0.0,0.0,9e-08,0.0,0.0,0.0,9e-08
1539875339015017288,933,1539875339014456040,base_link,-0.139432661467,-0.1233621322,-0.742945289893,-0.642940598719,1.0,0.0,0.0,0.0,1.0,0.0,0.0,0.0,1.0,0.216779395938,-0.0662437006831,-0.150054886937,1.21846967915e-07,0.0,0.0,0.0,1.21846967915e-07,0.0,0.0,0.0,1.21846967915e-07,1.0591182,0.8629852,11.4737805,9e-08,0.0,0.0,0.0,9e-08,0.0,0.0,0.0,9e-08
1539875339322061704,934,1539875339321629512,base_link,-0.168271660308,-0.14280701347,-0.720000436369,-0.657943901005,1.0,0.0,0.0,0.0,1.0,0.0,0.0,0.0,1.0,0.230431586504,-0.114499464631,-0.149983286858,1.21846967915e-07,0.0,0.0,0.0,1.21846967915e-07,0.0,0.0,0.0,1.21846967915e-07,0.93163175,0.42168595,11.60126695,9e-08,0.0,0.0,0.0,9e-08,0.0,0.0,0.0,9e-08
1539875339716626568,935,1539875339716184136,base_link,-0.208502584477,-0.158101899812,-0.695521135859,-0.669164263179,1.0,0.0,0.0,0.0,1.0,0.0,0.0,0.0,1.0,0.115118309855,-0.113313101232,-0.118790581822,1.21846967915e-07,0.0,0.0,0.0,1.21846967915e-07,0.0,0.0,0.0,1.21846967915e-07,1.1571847,0.77472535,11.1403544,9e-08,0.0,0.0,0.0,9e-08,0.0,0.0,0.0,9e-08
1539875340082879944,936,1539875340081792200,base_link,-0.231755301164,-0.167450539891,-0.663464186516,-0.691422497669,1.0,0.0,0.0,0.0,1.0,0.0,0.0,0.0,1.0,0.108914718032,-0.109371654689,-0.237937599421,1.21846967915e-07,0.0,0.0,0.0,1.21846967915e-07,0.0,0.0,0.0,1.21846967915e-07,1.06892485,1.176798,10.1400761,9e-08,0.0,0.0,0.0,9e-08,0.0,0.0,0.0,9e-08
1539875340568271144,937,1539875340567945640,base_link,-0.277037845584,-0.184681830692,-0.596511245931,-0.730285551688,1.0,0.0,0.0,0.0,1.0,0.0,0.0,0.0,1.0,0.126002684236,-0.212662547827,-0.289614647627,1.21846967915e-07,0.0,0.0,0.0,1.21846967915e-07,0.0,0.0,0.0,1.21846967915e-07,1.1964113,1.1964113,11.40513395,9e-08,0.0,0.0,0.0,9e-08,0.0,0.0,0.0,9e-08
1539875340935466856,938,1539875340934995784,base_link,-0.300500067077,-0.172578093232,-0.54710948963,-0.761963068514,1.0,0.0,0.0,0.0,1.0,0.0,0.0,0.0,1.0,-0.0106558725238,-0.235841587186,-0.244227051735,1.21846967915e-07,0.0,0.0,0.0,1.21846967915e-07,0.0,0.0,0.0,1.21846967915e-07,1.50041745,1.1571847,12.44463885,9e-08,0.0,0.0,0.0,9e-08,0.0,0.0,0.0,9e-08
1539875341340502632,939,1539875341339327208,base_link,-0.321283241063,-0.149594161411,-0.486337724168,-0.798670322433,1.0,0.0,0.0,0.0,1.0,0.0,0.0,0.0,1.0,0.10350227356,-0.269332826138,-0.313878029585,1.21846967915e-07,0.0,0.0,0.0,1.21846967915e-07,0.0,0.0,0.0,1.21846967915e-07,1.20621795,1.3140911,12.20927925,9e-08,0.0,0.0,0.0,9e-08,0.0,0.0,0.0,9e-08
1539875341618192584,940,1539875341617890504,base_link,-0.349656348117,-0.145996664319,-0.429676815678,-0.819636045021,1.0,0.0,0.0,0.0,1.0,0.0,0.0,0.0,1.0,0.101483650506,-0.26784709096,-0.313262194395,1.21846967915e-07,0.0,0.0,0.0,1.21846967915e-07,0.0,0.0,0.0,1.21846967915e-07,1.7259704,0.5099458,11.79739995,9e-08,0.0,0.0,0.0,9e-08,0.0,0.0,0.0,9e-08
1539875342107694312,941,1539875342106601352,base_link,-0.368045498248,-0.0977982801958,-0.349046750514,-0.856238502735,1.0,0.0,0.0,0.0,1.0,0.0,0.0,0.0,1.0,0.102874562144,-0.341484934092,-0.227171033621,1.21846967915e-07,0.0,0.0,0.0,1.21846967915e-07,0.0,0.0,0.0,1.21846967915e-07,1.44157755,1.1179581,14.91591465,9e-08,0.0,0.0,0.0,9e-08,0.0,0.0,0.0,9e-08
1539875342552944488,942,1539875342546218312,base_link,-0.386468271495,-0.0560661178138,-0.280475680468,-0.876830803648,1.0,0.0,0.0,0.0,1.0,0.0,0.0,0.0,1.0,-0.0943465530872,-0.235840827227,-0.253428190947,1.21846967915e-07,0.0,0.0,0.0,1.21846967915e-07,0.0,0.0,0.0,1.21846967915e-07,1.2748645,1.6279039,12.5721253,9e-08,0.0,0.0,0.0,9e-08,0.0,0.0,0.0,9e-08
1539875342879294856,943,1539875342878956680,base_link,-0.380291632902,-0.034584170164,-0.215835531991,-0.898664137623,1.0,0.0,0.0,0.0,1.0,0.0,0.0,0.0,1.0,0.0256651658565,-0.19104963541,-0.348304778337,1.21846967915e-07,0.0,0.0,0.0,1.21846967915e-07,0.0,0.0,0.0,1.21846967915e-07,1.0983448,1.3533177,10.1204628,9e-08,0.0,0.0,0.0,9e-08,0.0,0.0,0.0,9e-08
1539875343261065576,944,1539875343260765480,base_link,-0.3517586745,-0.00738958106607,-0.137519293733,-0.925904786064,1.0,0.0,0.0,0.0,1.0,0.0,0.0,0.0,1.0,-0.134460330009,-0.243063002825,-0.305687218904,1.21846967915e-07,0.0,0.0,0.0,1.21846967915e-07,0.0,0.0,0.0,1.21846967915e-07,1.12776475,1.4121576,14.513842,9e-08,0.0,0.0,0.0,9e-08,0.0,0.0,0.0,9e-08
1539875343663445448,945,1539875343663227176,base_link,-0.318656966907,0.018423266546,-0.065865306962,-0.945399429887,1.0,0.0,0.0,0.0,1.0,0.0,0.0,0.0,1.0,-0.197928696871,-0.185354083776,-0.269063919783,1.21846967915e-07,0.0,0.0,0.0,1.21846967915e-07,0.0,0.0,0.0,1.21846967915e-07,0.67665885,0.980665,11.18938765,9e-08,0.0,0.0,0.0,9e-08,0.0,0.0,0.0,9e-08
1539875344164279720,946,1539875344163568680,base_link,-0.225762745775,0.0354520662855,0.00269401255087,-0.973533294712,1.0,0.0,0.0,0.0,1.0,0.0,0.0,0.0,1.0,-0.436939954758,-0.0443277657032,-0.222031459212,1.21846967915e-07,0.0,0.0,0.0,1.21846967915e-07,0.0,0.0,0.0,1.21846967915e-07,0.32361945,0.89240515,9.8654899,9e-08,0.0,0.0,0.0,9e-08,0.0,0.0,0.0,9e-08
1539875344515142792,947,1539875344514858280,base_link,-0.151678470399,0.0332818377894,0.0424418428937,-0.986957269016,1.0,0.0,0.0,0.0,1.0,0.0,0.0,0.0,1.0,-0.414433509111,0.0371806882322,-0.195683315396,1.21846967915e-07,0.0,0.0,0.0,1.21846967915e-07,0.0,0.0,0.0,1.21846967915e-07,0.1765197,1.06892485,10.75789505,9e-08,0.0,0.0,0.0,9e-08,0.0,0.0,0.0,9e-08
1539875344930030792,948,1539875344928173512,base_link,-0.0766339101633,0.0192259965583,0.0824008559255,-0.993462482337,1.0,0.0,0.0,0.0,1.0,0.0,0.0,0.0,1.0,-0.321728587151,0.0593949407339,-0.122085660696,1.21846967915e-07,0.0,0.0,0.0,1.21846967915e-07,0.0,0.0,0.0,1.21846967915e-07,0.0,0.4707192,9.99297635,9e-08,0.0,0.0,0.0,9e-08,0.0,0.0,0.0,9e-08
1539875345282832136,949,1539875345282186984,base_link,-0.0369705390042,0.00842982312748,0.0930370341718,-0.994940313587,1.0,0.0,0.0,0.0,1.0,0.0,0.0,0.0,1.0,-0.137356892228,0.0274267289788,0.0192533433437,1.21846967915e-07,0.0,0.0,0.0,1.21846967915e-07,0.0,0.0,0.0,1.21846967915e-07,-0.3530394,0.3138128,9.3359308,9e-08,0.0,0.0,0.0,9e-08,0.0,0.0,0.0,9e-08
1539875345569477224,950,1539875345567022568,base_link,-0.00992693407604,0.00160422919734,0.0864242401063,-0.996207675714,1.0,0.0,0.0,0.0,1.0,0.0,0.0,0.0,1.0,-0.253433525562,0.0532059147954,0.0712165310979,1.21846967915e-07,0.0,0.0,0.0,1.21846967915e-07,0.0,0.0,0.0,1.21846967915e-07,-0.5295591,0.6080123,9.2967042,9e-08,0.0,0.0,0.0,9e-08,0.0,0.0,0.0,9e-08
1539875346014574792,951,1539875346014261800,base_link,0.0275764600529,-0.0110395124542,0.0762158507449,-0.996648790754,1.0,0.0,0.0,0.0,1.0,0.0,0.0,0.0,1.0,0.0509820729494,0.0474213920534,0.0449311807752,1.21846967915e-07,0.0,0.0,0.0,1.21846967915e-07,0.0,0.0,0.0,1.21846967915e-07,-0.4511059,0.4511059,9.73800345,9e-08,0.0,0.0,0.0,9e-08,0.0,0.0,0.0,9e-08
1539875346507244072,952,1539875346498224936,base_link,0.0190618087693,-0.0253923624268,0.0632899359732,-0.997489979589,1.0,0.0,0.0,0.0,1.0,0.0,0.0,0.0,1.0,-0.250847518444,0.0604215040803,0.0527495853603,1.21846967915e-07,0.0,0.0,0.0,1.21846967915e-07,0.0,0.0,0.0,1.21846967915e-07,-0.5295591,0.7060788,9.34573745,9e-08,0.0,0.0,0.0,9e-08,0.0,0.0,0.0,9e-08
1539875346923860680,953,1539875346923537128,base_link,0.0437859489621,-0.0395555905674,0.0517715955058,-0.996914162718,1.0,0.0,0.0,0.0,1.0,0.0,0.0,0.0,1.0,0.0941799581051,0.0808151736856,0.091678455472,1.21846967915e-07,0.0,0.0,0.0,1.21846967915e-07,0.0,0.0,0.0,1.21846967915e-07,-0.4511059,0.1765197,9.6693569,9e-08,0.0,0.0,0.0,9e-08,0.0,0.0,0.0,9e-08
1539875347340595432,954,1539875347340188616,base_link,0.0501252389081,-0.0468256856181,0.03421503002,-0.997057745224,1.0,0.0,0.0,0.0,1.0,0.0,0.0,0.0,1.0,0.0474612489343,0.0338668636978,0.0299647338688,1.21846967915e-07,0.0,0.0,0.0,1.21846967915e-07,0.0,0.0,0.0,1.21846967915e-07,-0.4903325,0.6276256,9.8654899,9e-08,0.0,0.0,0.0,9e-08,0.0,0.0,0.0,9e-08
1539875347714784040,955,1539875347714397640,base_link,0.0174380103094,-0.0478546642723,0.0367422410899,-0.998025978932,1.0,0.0,0.0,0.0,1.0,0.0,0.0,0.0,1.0,0.256788104773,-0.0253696888685,0.0105582606047,1.21846967915e-07,0.0,0.0,0.0,1.21846967915e-07,0.0,0.0,0.0,1.21846967915e-07,-0.46091255,0.3726527,10.93441475,9e-08,0.0,0.0,0.0,9e-08,0.0,0.0,0.0,9e-08
1539875348193863592,956,1539875348193559208,base_link,-0.000460933699649,-0.0491495107039,0.0233751347378,-0.998517759589,1.0,0.0,0.0,0.0,1.0,0.0,0.0,0.0,1.0,-0.0163964461535,-0.0168664176017,-0.0311630703509,1.21846967915e-07,0.0,0.0,0.0,1.21846967915e-07,0.0,0.0,0.0,1.21846967915e-07,-0.44129925,-0.0588399,7.6688003,9e-08,0.0,0.0,0.0,9e-08,0.0,0.0,0.0,9e-08
1539875348618383528,957,1539875348618171080,base_link,-0.000887164315698,-0.0444589703116,0.0137363349631,-0.998916375879,1.0,0.0,0.0,0.0,1.0,0.0,0.0,0.0,1.0,-0.0605770200491,0.0115281222388,0.0301273353398,1.21846967915e-07,0.0,0.0,0.0,1.21846967915e-07,0.0,0.0,0.0,1.21846967915e-07,-0.24516625,0.26477955,10.7480884,9e-08,0.0,0.0,0.0,9e-08,0.0,0.0,0.0,9e-08
1539875349022259944,958,1539875349022000424,base_link,-0.0245561574089,-0.0430989518468,0.0026615374898,-0.998765433774,1.0,0.0,0.0,0.0,1.0,0.0,0.0,0.0,1.0,0.131769135594,-0.0412707403302,0.0684259831905,1.21846967915e-07,0.0,0.0,0.0,1.21846967915e-07,0.0,0.0,0.0,1.21846967915e-07,-0.392266,0.46091255,8.7867584,9e-08,0.0,0.0,0.0,9e-08,0.0,0.0,0.0,9e-08
1539875349413750888,959,1539875349413121512,base_link,-0.00543329129029,-0.044794363882,-0.0050243356968,-0.998968818513,1.0,0.0,0.0,0.0,1.0,0.0,0.0,0.0,1.0,-0.113273903728,0.0346487089992,-0.0829785093665,1.21846967915e-07,0.0,0.0,0.0,1.21846967915e-07,0.0,0.0,0.0,1.21846967915e-07,0.02941995,1.04931155,8.56120545,9e-08,0.0,0.0,0.0,9e-08,0.0,0.0,0.0,9e-08
1539875349820352744,960,1539875349817917352,base_link,-0.00581884620811,-0.0464721880408,0.0123125235139,-0.99882675101,1.0,0.0,0.0,0.0,1.0,0.0,0.0,0.0,1.0,0.146002188325,-0.0249695759267,-0.0319904908538,1.21846967915e-07,0.0,0.0,0.0,1.21846967915e-07,0.0,0.0,0.0,1.21846967915e-07,-0.0980665,0.3334261,8.83579165,9e-08,0.0,0.0,0.0,9e-08,0.0,0.0,0.0,9e-08
1539875350146464840,961,1539875350142929064,base_link,-0.0199960688599,-0.0367012070894,0.00804013767681,-0.99909385686,1.0,0.0,0.0,0.0,1.0,0.0,0.0,0.0,1.0,-0.102072320879,-0.0332986302674,0.0906333401799,1.21846967915e-07,0.0,0.0,0.0,1.21846967915e-07,0.0,0.0,0.0,1.21846967915e-07,0.0392266,0.2353596,10.46369555,9e-08,0.0,0.0,0.0,9e-08,0.0,0.0,0.0,9e-08
1539875350522693224,962,1539875350520622088,base_link,-0.0273865163263,-0.0287488519415,-0.00650529116252,-0.999190253867,1.0,0.0,0.0,0.0,1.0,0.0,0.0,0.0,1.0,0.0204826947302,-0.054836820811,0.0462842211127,1.21846967915e-07,0.0,0.0,0.0,1.21846967915e-07,0.0,0.0,0.0,1.21846967915e-07,0.0,0.4314926,9.1790244,9e-08,0.0,0.0,0.0,9e-08,0.0,0.0,0.0,9e-08
1539875351018292296,963,1539875351018019464,base_link,-0.0479155316241,-0.0112562227325,-0.0156368048468,-0.998665554434,1.0,0.0,0.0,0.0,1.0,0.0,0.0,0.0,1.0,0.0437367670238,-0.0555468611419,0.0131170311943,1.21846967915e-07,0.0,0.0,0.0,1.21846967915e-07,0.0,0.0,0.0,1.21846967915e-07,0.2941995,0.8629852,12.0033396,9e-08,0.0,0.0,0.0,9e-08,0.0,0.0,0.0,9e-08
1539875351386725832,964,1539875351386433896,base_link,-0.0618230310974,0.00111511900673,-0.0186291548997,-0.997912633412,1.0,0.0,0.0,0.0,1.0,0.0,0.0,0.0,1.0,0.156231418252,-0.0971280857921,0.0342410430312,1.21846967915e-07,0.0,0.0,0.0,1.21846967915e-07,0.0,0.0,0.0,1.21846967915e-07,0.26477955,0.18632635,11.8268199,9e-08,0.0,0.0,0.0,9e-08,0.0,0.0,0.0,9e-08
1539875351651310760,965,1539875351651070664,base_link,-0.0689172635671,0.0124558205159,-0.0276669877675,-0.997160870224,1.0,0.0,0.0,0.0,1.0,0.0,0.0,0.0,1.0,0.0773588046432,-0.07498126477,0.136931076646,1.21846967915e-07,0.0,0.0,0.0,1.21846967915e-07,0.0,0.0,0.0,1.21846967915e-07,0.0588399,0.20593965,11.3168741,9e-08,0.0,0.0,0.0,9e-08,0.0,0.0,0.0,9e-08
1539875351975624456,966,1539875351971431176,base_link,-0.0595820983873,0.0122431144048,-0.0386241696737,-0.997400748555,1.0,0.0,0.0,0.0,1.0,0.0,0.0,0.0,1.0,-0.135058000684,0.0505217351019,0.000584395369515,1.21846967915e-07,0.0,0.0,0.0,1.21846967915e-07,0.0,0.0,0.0,1.21846967915e-07,-0.00980665,0.85317855,9.6497436,9e-08,0.0,0.0,0.0,9e-08,0.0,0.0,0.0,9e-08
1539875352480371848,967,1539875352479732264,base_link,-0.0548130005624,-0.00093323549816,-0.0357926237169,-0.997854474424,1.0,0.0,0.0,0.0,1.0,0.0,0.0,0.0,1.0,0.0925036594272,0.0295991208404,0.0326813161373,1.21846967915e-07,0.0,0.0,0.0,1.21846967915e-07,0.0,0.0,0.0,1.21846967915e-07,0.10787315,0.06864655,8.28661925,9e-08,0.0,0.0,0.0,9e-08,0.0,0.0,0.0,9e-08
1539875352835285096,968,1539875352835022088,base_link,-0.0304204238963,-0.00836368569121,-0.0406986930515,-0.998673251347,1.0,0.0,0.0,0.0,1.0,0.0,0.0,0.0,1.0,-0.195565402508,0.0708523988724,-0.0627563297749,1.21846967915e-07,0.0,0.0,0.0,1.21846967915e-07,0.0,0.0,0.0,1.21846967915e-07,-0.0980665,1.16699135,8.73772515,9e-08,0.0,0.0,0.0,9e-08,0.0,0.0,0.0,9e-08
1539875353133406472,969,1539875353132519048,base_link,-0.00871511206892,-0.0187318517973,-0.0225912459644,-0.999531290233,1.0,0.0,0.0,0.0,1.0,0.0,0.0,0.0,1.0,-0.0618981830776,0.0497915633023,-0.105310380459,1.21846967915e-07,0.0,0.0,0.0,1.21846967915e-07,0.0,0.0,0.0,1.21846967915e-07,0.12748645,0.0588399,9.3947707,9e-08,0.0,0.0,0.0,9e-08,0.0,0.0,0.0,9e-08
1539875353427889832,970,1539875353427531080,base_link,-0.021735357862,-0.0218468859636,-0.0193524641604,-0.999337665618,1.0,0.0,0.0,0.0,1.0,0.0,0.0,0.0,1.0,0.194476246834,0.00591292977333,0.0188231877983,1.21846967915e-07,0.0,0.0,0.0,1.21846967915e-07,0.0,0.0,0.0,1.21846967915e-07,0.06864655,0.30400615,9.7478101,9e-08,0.0,0.0,0.0,9e-08,0.0,0.0,0.0,9e-08
1539875353766774888,971,1539875353764589192,base_link,-0.0459772587045,-0.0229056470463,-0.0240268515876,-0.998390771902,1.0,0.0,0.0,0.0,1.0,0.0,0.0,0.0,1.0,0.0545660294592,-0.00846199784428,0.0435613505542,1.21846967915e-07,0.0,0.0,0.0,1.21846967915e-07,0.0,0.0,0.0,1.21846967915e-07,-0.0392266,0.30400615,9.7870367,9e-08,0.0,0.0,0.0,9e-08,0.0,0.0,0.0,9e-08
1539875354245332680,972,1539875354245094792,base_link,-0.0603935315229,-0.0297551282396,-0.0309450411682,-0.997251050699,1.0,0.0,0.0,0.0,1.0,0.0,0.0,0.0,1.0,0.113408602774,0.0568579509854,-0.00490981061012,1.21846967915e-07,0.0,0.0,0.0,1.21846967915e-07,0.0,0.0,0.0,1.21846967915e-07,-0.0392266,0.784532,8.34545915,9e-08,0.0,0.0,0.0,9e-08,0.0,0.0,0.0,9e-08
1539875354566056392,973,1539875354565681256,base_link,-0.0453131691275,-0.0348467791043,-0.0203589616004,-0.998157267855,1.0,0.0,0.0,0.0,1.0,0.0,0.0,0.0,1.0,-0.0471322014928,0.00308558763936,-0.138685464859,1.21846967915e-07,0.0,0.0,0.0,1.21846967915e-07,0.0,0.0,0.0,1.21846967915e-07,0.2353596,0.79433865,8.7475318,9e-08,0.0,0.0,0.0,9e-08,0.0,0.0,0.0,9e-08
1539875354919069832,974,1539875354918581416,base_link,-0.0411420124308,-0.0296308267978,-0.0179076454821,-0.998553286084,1.0,0.0,0.0,0.0,1.0,0.0,0.0,0.0,1.0,0.022367650643,-0.0278721638024,0.073593378067,1.21846967915e-07,0.0,0.0,0.0,1.21846967915e-07,0.0,0.0,0.0,1.21846967915e-07,0.16671305,0.40207265,10.91480145,9e-08,0.0,0.0,0.0,9e-08,0.0,0.0,0.0,9e-08
1539875355296949288,975,1539875355295679720,base_link,-0.0278793604852,-0.0262594698467,-0.0260549579686,-0.998926584223,1.0,0.0,0.0,0.0,1.0,0.0,0.0,0.0,1.0,0.13086502254,-0.0335318297148,-0.0124583505094,1.21846967915e-07,0.0,0.0,0.0,1.21846967915e-07,0.0,0.0,0.0,1.21846967915e-07,-0.16671305,0.44129925,10.32640245,9e-08,0.0,0.0,0.0,9e-08,0.0,0.0,0.0,9e-08
1539875355685461224,976,1539875355683826760,base_link,-0.051224388716,-0.0174020516247,-0.0303651619014,-0.99807373853,1.0,0.0,0.0,0.0,1.0,0.0,0.0,0.0,1.0,-0.152766391635,-0.0258028041571,0.0579284802079,1.21846967915e-07,0.0,0.0,0.0,1.21846967915e-07,0.0,0.0,0.0,1.21846967915e-07,0.28439285,0.8433719,11.5914603,9e-08,0.0,0.0,0.0,9e-08,0.0,0.0,0.0,9e-08
1539875356120651112,977,1539875356119916872,base_link,-0.0431922671248,-0.0115663434629,-0.0317667980168,-0.998494626076,1.0,0.0,0.0,0.0,1.0,0.0,0.0,0.0,1.0,0.0278261937201,-0.0310143772513,0.0125602483749,1.21846967915e-07,0.0,0.0,0.0,1.21846967915e-07,0.0,0.0,0.0,1.21846967915e-07,0.2353596,0.3138128,9.5909037,9e-08,0.0,0.0,0.0,9e-08,0.0,0.0,0.0,9e-08
1539875356461674184,978,1539875356460943080,base_link,-0.0564331713071,-0.00725520942835,-0.037400206498,-0.99767924889,1.0,0.0,0.0,0.0,1.0,0.0,0.0,0.0,1.0,0.0973136797547,-0.00716865202412,0.0291157271713,1.21846967915e-07,0.0,0.0,0.0,1.21846967915e-07,0.0,0.0,0.0,1.21846967915e-07,0.0980665,0.48052585,9.610517,9e-08,0.0,0.0,0.0,9e-08,0.0,0.0,0.0,9e-08
1539875356775087240,979,1539875356774854184,base_link,-0.0737735788849,-0.00224889106415,-0.0413205751457,-0.99641608358,1.0,0.0,0.0,0.0,1.0,0.0,0.0,0.0,1.0,0.0872014090419,-0.0543147996068,0.0177207011729,1.21846967915e-07,0.0,0.0,0.0,1.21846967915e-07,0.0,0.0,0.0,1.21846967915e-07,-0.0196133,0.48052585,9.73800345,9e-08,0.0,0.0,0.0,9e-08,0.0,0.0,0.0,9e-08
1539875357176518568,980,1539875357176169032,base_link,-0.0815426702969,-0.00147515373944,-0.0458436069415,-0.99561387121,1.0,0.0,0.0,0.0,1.0,0.0,0.0,0.0,1.0,-0.0047013615258,0.0451096780598,0.0205663740635,1.21846967915e-07,0.0,0.0,0.0,1.21846967915e-07,0.0,0.0,0.0,1.21846967915e-07,0.0588399,0.65704555,9.26728425,9e-08,0.0,0.0,0.0,9e-08,0.0,0.0,0.0,9e-08
1539875357613078280,981,1539875357612769608,base_link,-0.0688668286073,-0.00899228632779,-0.0364222798128,-0.996920215583,1.0,0.0,0.0,0.0,1.0,0.0,0.0,0.0,1.0,0.0157039761543,0.0788154825568,-0.0875659584999,1.21846967915e-07,0.0,0.0,0.0,1.21846967915e-07,0.0,0.0,0.0,1.21846967915e-07,0.10787315,0.51975245,6.65871535,9e-08,0.0,0.0,0.0,9e-08,0.0,0.0,0.0,9e-08
1539875358078342888,982,1539875358078042184,base_link,-0.103225046007,-0.00766714311351,-0.0149088454778,-0.994516732448,1.0,0.0,0.0,0.0,1.0,0.0,0.0,0.0,1.0,0.0607010312378,-0.0824964717031,-0.0415441542864,1.21846967915e-07,0.0,0.0,0.0,1.21846967915e-07,0.0,0.0,0.0,1.21846967915e-07,0.0980665,0.14709975,11.9052731,9e-08,0.0,0.0,0.0,9e-08,0.0,0.0,0.0,9e-08
1539875358435662696,983,1539875358423941448,base_link,-0.172836379666,4.66424142124e-05,-0.00501717649138,-0.984937770434,1.0,0.0,0.0,0.0,1.0,0.0,0.0,0.0,1.0,0.742498755455,-0.00999651569873,-0.131395325065,1.21846967915e-07,0.0,0.0,0.0,1.21846967915e-07,0.0,0.0,0.0,1.21846967915e-07,0.59820565,0.97085835,13.337044,9e-08,0.0,0.0,0.0,9e-08,0.0,0.0,0.0,9e-08
1539875358765779208,984,1539875358765486728,base_link,-0.2515375794,0.00112442967601,0.0312802143284,-0.967341268632,1.0,0.0,0.0,0.0,1.0,0.0,0.0,0.0,1.0,0.550612330437,-0.0628902316093,-0.205801680684,1.21846967915e-07,0.0,0.0,0.0,1.21846967915e-07,0.0,0.0,0.0,1.21846967915e-07,0.63743225,0.980665,9.16921775,9e-08,0.0,0.0,0.0,9e-08,0.0,0.0,0.0,9e-08
1539875359165735080,985,1539875359165458088,base_link,-0.335935702249,0.00821550937194,0.0904320786515,-0.937497599203,1.0,0.0,0.0,0.0,1.0,0.0,0.0,0.0,1.0,0.336219936609,-0.143373325467,-0.316593468189,1.21846967915e-07,0.0,0.0,0.0,1.21846967915e-07,0.0,0.0,0.0,1.21846967915e-07,0.7453054,1.2552512,9.30651085,9e-08,0.0,0.0,0.0,9e-08,0.0,0.0,0.0,9e-08
1539875359646988648,986,1539875359646717480,base_link,-0.371055439953,0.0377250108256,0.177071522981,-0.910791062642,1.0,0.0,0.0,0.0,1.0,0.0,0.0,0.0,1.0,0.123417280614,-0.263641119003,-0.316244155169,1.21846967915e-07,0.0,0.0,0.0,1.21846967915e-07,0.0,0.0,0.0,1.21846967915e-07,1.34351105,1.14737805,12.4936721,9e-08,0.0,0.0,0.0,9e-08,0.0,0.0,0.0,9e-08
1539875360028619560,987,1539875360025385000,base_link,-0.393921845384,0.0856047846427,0.239979799565,-0.883123488747,1.0,0.0,0.0,0.0,1.0,0.0,0.0,0.0,1.0,-0.0459236726165,-0.347315698862,-0.150627955794,1.21846967915e-07,0.0,0.0,0.0,1.21846967915e-07,0.0,0.0,0.0,1.21846967915e-07,1.6867438,0.6864655,13.0232312,9e-08,0.0,0.0,0.0,9e-08,0.0,0.0,0.0,9e-08
1539875360406672296,988,1539875360406413064,base_link,-0.369063700117,0.120810462543,0.30557614069,-0.869379111572,1.0,0.0,0.0,0.0,1.0,0.0,0.0,0.0,1.0,-0.0445732101798,-0.281152069569,-0.361200094223,1.21846967915e-07,0.0,0.0,0.0,1.21846967915e-07,0.0,0.0,0.0,1.21846967915e-07,1.99074995,1.8828768,13.68027675,9e-08,0.0,0.0,0.0,9e-08,0.0,0.0,0.0,9e-08
1539875360741666696,989,1539875360741394440,base_link,-0.345569079092,0.155064230487,0.376274827583,-0.845549732497,1.0,0.0,0.0,0.0,1.0,0.0,0.0,0.0,1.0,-0.316312283278,-0.447882920504,-0.120791196823,1.21846967915e-07,0.0,0.0,0.0,1.21846967915e-07,0.0,0.0,0.0,1.21846967915e-07,1.96133,0.3138128,14.3373223,9e-08,0.0,0.0,0.0,9e-08,0.0,0.0,0.0,9e-08
1539875361087618760,990,1539875361087156872,base_link,-0.293243987741,0.183714111949,0.423397163221,-0.837252608775,1.0,0.0,0.0,0.0,1.0,0.0,0.0,0.0,1.0,-0.122875787318,-0.214914143085,-0.247572883964,1.21846967915e-07,0.0,0.0,0.0,1.21846967915e-07,0.0,0.0,0.0,1.21846967915e-07,1.3140911,2.83412185,16.3771055,9e-08,0.0,0.0,0.0,9e-08,0.0,0.0,0.0,9e-08
1539875361629960744,991,1539875361629025896,base_link,-0.291396638446,0.224340016635,0.52844092955,-0.765186081953,1.0,0.0,0.0,0.0,1.0,0.0,0.0,0.0,1.0,0.101896092296,-0.376985967159,-0.264025002718,1.21846967915e-07,0.0,0.0,0.0,1.21846967915e-07,0.0,0.0,0.0,1.21846967915e-07,0.87279185,0.7453054,12.8074849,9e-08,0.0,0.0,0.0,9e-08,0.0,0.0,0.0,9e-08
1539875362103535976,992,1539875362103127720,base_link,-0.246738733863,0.272721745056,0.592812625357,-0.71646077227,1.0,0.0,0.0,0.0,1.0,0.0,0.0,0.0,1.0,-0.0728334784508,-0.299046605825,-0.205165460706,1.21846967915e-07,0.0,0.0,0.0,1.21846967915e-07,0.0,0.0,0.0,1.21846967915e-07,1.20621795,1.95152335,16.7693715,9e-08,0.0,0.0,0.0,9e-08,0.0,0.0,0.0,9e-08
1539875362368723656,993,1539875362367960008,base_link,-0.223662074539,0.279300912824,0.630007383097,-0.689243769469,1.0,0.0,0.0,0.0,1.0,0.0,0.0,0.0,1.0,-0.0891251266003,-0.22846236825,-0.311613231897,1.21846967915e-07,0.0,0.0,0.0,1.21846967915e-07,0.0,0.0,0.0,1.21846967915e-07,0.61781895,1.14737805,12.7878716,9e-08,0.0,0.0,0.0,9e-08,0.0,0.0,0.0,9e-08
1539875362778985448,994,1539875362778562088,base_link,0.206259669755,-0.312114358471,-0.683087839882,0.627242041699,1.0,0.0,0.0,0.0,1.0,0.0,0.0,0.0,1.0,-0.290787160397,-0.315920323133,-0.239330202341,1.21846967915e-07,0.0,0.0,0.0,1.21846967915e-07,0.0,0.0,0.0,1.21846967915e-07,0.50013915,0.75511205,12.22889255,9e-08,0.0,0.0,0.0,9e-08,0.0,0.0,0.0,9e-08
1539875363024032712,995,1539875363023775464,base_link,0.136824877247,-0.275500830635,-0.727177518561,0.613670189747,1.0,0.0,0.0,0.0,1.0,0.0,0.0,0.0,1.0,-0.937642335892,-0.211038947105,-0.138283401728,1.21846967915e-07,0.0,0.0,0.0,1.21846967915e-07,0.0,0.0,0.0,1.21846967915e-07,1.02969825,0.7256921,19.3583271,9e-08,0.0,0.0,0.0,9e-08,0.0,0.0,0.0,9e-08
1539875363483544136,996,1539875363483268840,base_link,0.0983900627048,-0.213383993378,-0.780285352745,0.579604550726,1.0,0.0,0.0,0.0,1.0,0.0,0.0,0.0,1.0,-0.466215074062,0.0463060438633,-0.355210602283,1.21846967915e-07,0.0,0.0,0.0,1.21846967915e-07,0.0,0.0,0.0,1.21846967915e-07,-0.26477955,1.2748645,8.7867584,9e-08,0.0,0.0,0.0,9e-08,0.0,0.0,0.0,9e-08
1539875363874464392,997,1539875363874042408,base_link,0.0805378956857,-0.142910277644,-0.828518929512,0.535393951537,1.0,0.0,0.0,0.0,1.0,0.0,0.0,0.0,1.0,0.201156467199,0.0550761036575,-0.26292732358,1.21846967915e-07,0.0,0.0,0.0,1.21846967915e-07,0.0,0.0,0.0,1.21846967915e-07,-0.4903325,0.8041453,6.5116156,9e-08,0.0,0.0,0.0,9e-08,0.0,0.0,0.0,9e-08
1539875364317804424,998,1539875364317354600,base_link,0.108174910552,-0.134460132455,-0.84835711742,0.500508604151,1.0,0.0,0.0,0.0,1.0,0.0,0.0,0.0,1.0,-0.35332891345,0.0998095199466,-0.127186149359,1.21846967915e-07,0.0,0.0,0.0,1.21846967915e-07,0.0,0.0,0.0,1.21846967915e-07,-0.71588545,0.34323275,3.7069137,9e-08,0.0,0.0,0.0,9e-08,0.0,0.0,0.0,9e-08
1539875364729799976,999,1539875364729314024,base_link,0.0937942793536,-0.0976899435705,-0.855451445996,0.499862112617,1.0,0.0,0.0,0.0,1.0,0.0,0.0,0.0,1.0,-0.0676927864552,0.0718970000744,0.0530050322413,1.21846967915e-07,0.0,0.0,0.0,1.21846967915e-07,0.0,0.0,0.0,1.21846967915e-07,-0.7060788,0.50013915,5.26617105,9e-08,0.0,0.0,0.0,9e-08,0.0,0.0,0.0,9e-08
1539875364966409064,1000,1539875364966081224,base_link,0.077879657743,-0.060406847419,-0.856331366031,0.506934279021,1.0,0.0,0.0,0.0,1.0,0.0,0.0,0.0,1.0,-0.493792444468,0.0556620843709,-0.00850443355739,1.21846967915e-07,0.0,0.0,0.0,1.21846967915e-07,0.0,0.0,0.0,1.21846967915e-07,-0.77472535,0.9414384,7.4922806,9e-08,0.0,0.0,0.0,9e-08,0.0,0.0,0.0,9e-08
1539875365387333352,1001,1539875365386922952,base_link,0.0509955156088,0.0108558348119,-0.864535549043,0.499859873044,1.0,0.0,0.0,0.0,1.0,0.0,0.0,0.0,1.0,-0.306257486343,0.0235664155334,-0.0702053159475,1.21846967915e-07,0.0,0.0,0.0,1.21846967915e-07,0.0,0.0,0.0,1.21846967915e-07,-0.6472389,0.3334261,8.87501825,9e-08,0.0,0.0,0.0,9e-08,0.0,0.0,0.0,9e-08
1539875365783966248,1002,1539875365783322536,base_link,0.0261870189251,0.0586680182292,-0.863442915868,0.500338520118,1.0,0.0,0.0,0.0,1.0,0.0,0.0,0.0,1.0,-0.413391470909,-0.0430625416338,0.0479430370033,1.21846967915e-07,0.0,0.0,0.0,1.21846967915e-07,0.0,0.0,0.0,1.21846967915e-07,-0.4118793,0.89240515,10.77750835,9e-08,0.0,0.0,0.0,9e-08,0.0,0.0,0.0,9e-08
1539875366130217224,1003,1539875366129355304,base_link,-0.0314742549614,0.140417890347,-0.848898687007,0.508589428265,1.0,0.0,0.0,0.0,1.0,0.0,0.0,0.0,1.0,-0.474470645189,-0.0354564487934,0.00223124818876,1.21846967915e-07,0.0,0.0,0.0,1.21846967915e-07,0.0,0.0,0.0,1.21846967915e-07,-0.2353596,1.01008495,12.1210194,9e-08,0.0,0.0,0.0,9e-08,0.0,0.0,0.0,9e-08
1539875366540464168,1004,1539875366540191592,base_link,-0.0227059654325,0.0986600965116,-0.849466765133,0.517838622956,1.0,0.0,0.0,0.0,1.0,0.0,0.0,0.0,1.0,0.407032966614,-0.0687737762928,0.126803740859,1.21846967915e-07,0.0,0.0,0.0,1.21846967915e-07,0.0,0.0,0.0,1.21846967915e-07,0.0980665,-0.1176798,9.71839015,9e-08,0.0,0.0,0.0,9e-08,0.0,0.0,0.0,9e-08
1539875366907251432,1005,1539875366907028264,base_link,-0.00699173880054,0.0464103009341,-0.834909142063,0.54838300854,1.0,0.0,0.0,0.0,1.0,0.0,0.0,0.0,1.0,0.176768019795,-0.0878548026085,0.197785541415,1.21846967915e-07,0.0,0.0,0.0,1.21846967915e-07,0.0,0.0,0.0,1.21846967915e-07,0.3138128,0.24516625,10.6500219,9e-08,0.0,0.0,0.0,9e-08,0.0,0.0,0.0,9e-08
1539875367260362408,1006,1539875367260022312,base_link,-0.00868112635712,0.022141534388,-0.817878956046,0.574898603023,1.0,0.0,0.0,0.0,1.0,0.0,0.0,0.0,1.0,0.0892982631922,-0.0802952051163,0.118810772896,1.21846967915e-07,0.0,0.0,0.0,1.21846967915e-07,0.0,0.0,0.0,1.21846967915e-07,0.5099458,0.75511205,10.81673495,9e-08,0.0,0.0,0.0,9e-08,0.0,0.0,0.0,9e-08
1539875367724107848,1007,1539875367723839432,base_link,-0.0248193600477,0.0166959168639,-0.81045022958,0.58504330703,1.0,0.0,0.0,0.0,1.0,0.0,0.0,0.0,1.0,-0.0128560177982,-0.0386824831367,0.010810688138,1.21846967915e-07,0.0,0.0,0.0,1.21846967915e-07,0.0,0.0,0.0,1.21846967915e-07,-0.75511205,0.6276256,10.9638347,9e-08,0.0,0.0,0.0,9e-08,0.0,0.0,0.0,9e-08
1539875368309777576,1008,1539875368309405128,base_link,0.0468344183029,-0.0655995725621,-0.805122059083,0.587606759083,1.0,0.0,0.0,0.0,1.0,0.0,0.0,0.0,1.0,1.00423419476,0.130329996347,0.0118347080424,1.21846967915e-07,0.0,0.0,0.0,1.21846967915e-07,0.0,0.0,0.0,1.21846967915e-07,-1.22583125,0.00980665,8.9240515,9e-08,0.0,0.0,0.0,9e-08,0.0,0.0,0.0,9e-08
1539875368672507784,1009,1539875368672309960,base_link,0.15641839113,-0.171632810244,-0.785324694457,0.573882034604,1.0,0.0,0.0,0.0,1.0,0.0,0.0,0.0,1.0,0.561679661274,0.121536128223,-0.0663563013077,1.21846967915e-07,0.0,0.0,0.0,1.21846967915e-07,0.0,0.0,0.0,1.21846967915e-07,-1.24544455,0.63743225,7.16866115,9e-08,0.0,0.0,0.0,9e-08,0.0,0.0,0.0,9e-08
1539875369065760392,1010,1539875369065502184,base_link,0.207649442421,-0.209822560849,-0.7883505066,0.539777436324,1.0,0.0,0.0,0.0,1.0,0.0,0.0,0.0,1.0,0.276723593473,0.023197228089,-0.262241572142,1.21846967915e-07,0.0,0.0,0.0,1.21846967915e-07,0.0,0.0,0.0,1.21846967915e-07,-1.2160246,0.85317855,7.6688003,9e-08,0.0,0.0,0.0,9e-08,0.0,0.0,0.0,9e-08
1539875369418915592,1011,1539875369418101640,base_link,0.232319919896,-0.23258834636,-0.812605513712,0.481250864979,1.0,0.0,0.0,0.0,1.0,0.0,0.0,0.0,1.0,0.189738750458,-0.112399637699,-0.366325169802,1.21846967915e-07,0.0,0.0,0.0,1.21846967915e-07,0.0,0.0,0.0,1.21846967915e-07,-1.01008495,0.8629852,8.9240515,9e-08,0.0,0.0,0.0,9e-08,0.0,0.0,0.0,9e-08
1539875369743911816,1012,1539875369743319656,base_link,0.237258594695,-0.262731198446,-0.837116695292,0.417032750596,1.0,0.0,0.0,0.0,1.0,0.0,0.0,0.0,1.0,0.0520978905261,-0.274950802326,-0.367311447859,1.21846967915e-07,0.0,0.0,0.0,1.21846967915e-07,0.0,0.0,0.0,1.21846967915e-07,-1.0002783,1.0591182,9.1986377,9e-08,0.0,0.0,0.0,9e-08,0.0,0.0,0.0,9e-08
1539875370152782600,1013,1539875370152416104,base_link,0.203770385349,-0.268344301739,-0.880663282462,0.333018240794,1.0,0.0,0.0,0.0,1.0,0.0,0.0,0.0,1.0,-0.0259433165193,-0.307794570923,-0.403378218412,1.21846967915e-07,0.0,0.0,0.0,1.21846967915e-07,0.0,0.0,0.0,1.21846967915e-07,-0.79433865,0.73549875,12.48386545,9e-08,0.0,0.0,0.0,9e-08,0.0,0.0,0.0,9e-08
1539875370493675432,1014,1539875370493270280,base_link,0.163903908119,-0.273596286016,-0.914502118155,0.248930627028,1.0,0.0,0.0,0.0,1.0,0.0,0.0,0.0,1.0,0.0339448563755,-0.409043341875,-0.407072156668,1.21846967915e-07,0.0,0.0,0.0,1.21846967915e-07,0.0,0.0,0.0,1.21846967915e-07,-0.71588545,0.3530394,13.44491715,9e-08,0.0,0.0,0.0,9e-08,0.0,0.0,0.0,9e-08
1539875370942384424,1015,1539875370942111144,base_link,0.0945593005827,-0.295566174352,-0.939059039485,0.147875946705,1.0,0.0,0.0,0.0,1.0,0.0,0.0,0.0,1.0,0.168448314071,-0.448181569576,-0.300748378038,1.21846967915e-07,0.0,0.0,0.0,1.21846967915e-07,0.0,0.0,0.0,1.21846967915e-07,-0.30400615,0.392266,16.1221326,9e-08,0.0,0.0,0.0,9e-08,0.0,0.0,0.0,9e-08
1539875371244400808,1016,1539875371243263688,base_link,0.0359003030138,-0.30011478754,-0.949423501538,0.085072306135,1.0,0.0,0.0,0.0,1.0,0.0,0.0,0.0,1.0,-0.194033816457,-0.510959565639,-0.28323495388,1.21846967915e-07,0.0,0.0,0.0,1.21846967915e-07,0.0,0.0,0.0,1.21846967915e-07,0.2941995,0.7256921,18.6718616,9e-08,0.0,0.0,0.0,9e-08,0.0,0.0,0.0,9e-08
1539875371724849544,1017,1539875371724572488,base_link,-0.0299450145188,-0.289588644114,-0.955947293053,-0.037503149348,1.0,0.0,0.0,0.0,1.0,0.0,0.0,0.0,1.0,-0.0234115403146,-0.341565668583,-0.452253580093,1.21846967915e-07,0.0,0.0,0.0,1.21846967915e-07,0.0,0.0,0.0,1.21846967915e-07,0.04903325,0.4707192,15.73967325,9e-08,0.0,0.0,0.0,9e-08,0.0,0.0,0.0,9e-08
1539875372080669832,1018,1539875372078388296,base_link,-0.0617898965482,-0.306730908147,-0.943104002828,-0.112485548061,1.0,0.0,0.0,0.0,1.0,0.0,0.0,0.0,1.0,0.310084223747,-0.2795971632,-0.330691665411,1.21846967915e-07,0.0,0.0,0.0,1.21846967915e-07,0.0,0.0,0.0,1.21846967915e-07,-0.980665,0.24516625,8.87501825,9e-08,0.0,0.0,0.0,9e-08,0.0,0.0,0.0,9e-08
1539875372423191112,1019,1539875372422835656,base_link,-0.10891732597,-0.294526396159,-0.932284853217,-0.17954434141,1.0,0.0,0.0,0.0,1.0,0.0,0.0,0.0,1.0,-0.256766140461,-0.386404395103,-0.253054320812,1.21846967915e-07,0.0,0.0,0.0,1.21846967915e-07,0.0,0.0,0.0,1.21846967915e-07,-0.36284605,0.42168595,10.91480145,9e-08,0.0,0.0,0.0,9e-08,0.0,0.0,0.0,9e-08
1539875372926999240,1020,1539875372926693736,base_link,-0.130306636809,-0.171899892152,-0.933350628035,-0.286927190466,1.0,0.0,0.0,0.0,1.0,0.0,0.0,0.0,1.0,-0.596787452698,-0.0944802314043,-0.376441389322,1.21846967915e-07,0.0,0.0,0.0,1.21846967915e-07,0.0,0.0,0.0,1.21846967915e-07,0.7060788,0.8237586,13.2193642,9e-08,0.0,0.0,0.0,9e-08,0.0,0.0,0.0,9e-08
1539875373334688936,1021,1539875373334158760,base_link,-0.0962367304007,-0.113792037568,-0.919652971885,-0.363356952886,1.0,0.0,0.0,0.0,1.0,0.0,0.0,0.0,1.0,-0.206057339907,0.0410600788891,-0.283694803715,1.21846967915e-07,0.0,0.0,0.0,1.21846967915e-07,0.0,0.0,0.0,1.21846967915e-07,0.12748645,0.0392266,9.610517,9e-08,0.0,0.0,0.0,9e-08,0.0,0.0,0.0,9e-08
1539875373643712744,1022,1539875373643523112,base_link,-0.0819709528194,-0.0989017977342,-0.909457569694,-0.395456857602,1.0,0.0,0.0,0.0,1.0,0.0,0.0,0.0,1.0,-0.154388144612,0.0145223187283,-0.186844974756,1.21846967915e-07,0.0,0.0,0.0,1.21846967915e-07,0.0,0.0,0.0,1.21846967915e-07,-0.0980665,0.0784532,8.05125965,9e-08,0.0,0.0,0.0,9e-08,0.0,0.0,0.0,9e-08
1539875374075669352,1023,1539875374074908776,base_link,-0.0803823177864,-0.073514178885,-0.899403686096,-0.423328900415,1.0,0.0,0.0,0.0,1.0,0.0,0.0,0.0,1.0,-0.082140237093,-0.0541630126536,-0.120297990739,1.21846967915e-07,0.0,0.0,0.0,1.21846967915e-07,0.0,0.0,0.0,1.21846967915e-07,0.26477955,1.17935082473e-15,9.6301303,9e-08,0.0,0.0,0.0,9e-08,0.0,0.0,0.0,9e-08
1539875374440897480,1024,1539875374440660136,base_link,-0.0689004786278,-0.0353406374258,-0.894869971359,-0.439558298468,1.0,0.0,0.0,0.0,1.0,0.0,0.0,0.0,1.0,-0.343784719706,0.00387641089037,-0.0862868353724,1.21846967915e-07,0.0,0.0,0.0,1.21846967915e-07,0.0,0.0,0.0,1.21846967915e-07,0.57859235,0.20593965,9.89490985,9e-08,0.0,0.0,0.0,9e-08,0.0,0.0,0.0,9e-08
1539875374853495112,1025,1539875374853212680,base_link,-0.0432557189612,-0.00165135187013,-0.886645128991,-0.46042005935,1.0,0.0,0.0,0.0,1.0,0.0,0.0,0.0,1.0,-0.157147273421,0.0463467240334,-0.111877068877,1.21846967915e-07,0.0,0.0,0.0,1.21846967915e-07,0.0,0.0,0.0,1.21846967915e-07,0.65704555,0.04903325,9.81645665,9e-08,0.0,0.0,0.0,9e-08,0.0,0.0,0.0,9e-08
1539875375298875144,1026,1539875375296768008,base_link,-0.00800894328651,-0.0239173343619,-0.885440415258,-0.464067978828,1.0,0.0,0.0,0.0,1.0,0.0,0.0,0.0,1.0,0.00182747421786,0.28350007534,0.0712384134531,1.21846967915e-07,0.0,0.0,0.0,1.21846967915e-07,0.0,0.0,0.0,1.21846967915e-07,0.2745862,-0.2745862,7.26672765,9e-08,0.0,0.0,0.0,9e-08,0.0,0.0,0.0,9e-08
1539875375553917128,1027,1539875375553702056,base_link,0.021138475778,-0.0202139788828,-0.892267930055,-0.450557988382,1.0,0.0,0.0,0.0,1.0,0.0,0.0,0.0,1.0,-0.200796172023,0.0308918897063,0.11393776536,1.21846967915e-07,0.0,0.0,0.0,1.21846967915e-07,0.0,0.0,0.0,1.21846967915e-07,0.34323275,-0.2941995,8.54159215,9e-08,0.0,0.0,0.0,9e-08,0.0,0.0,0.0,9e-08
1539875375974477992,1028,1539875375974204520,base_link,0.0257730585687,0.0603630978101,-0.899980384356,-0.430960965343,1.0,0.0,0.0,0.0,1.0,0.0,0.0,0.0,1.0,-0.309057503939,-0.218232154846,0.0403869524598,1.21846967915e-07,0.0,0.0,0.0,1.21846967915e-07,0.0,0.0,0.0,1.21846967915e-07,0.73549875,-0.0392266,10.44408225,9e-08,0.0,0.0,0.0,9e-08,0.0,0.0,0.0,9e-08
1539875376310176712,1029,1539875376309935784,base_link,0.0308908086016,0.0863821003564,-0.904390832582,-0.416726664163,1.0,0.0,0.0,0.0,1.0,0.0,0.0,0.0,1.0,-0.090252071619,0.141561672091,0.142513543367,1.21846967915e-07,0.0,0.0,0.0,1.21846967915e-07,0.0,0.0,0.0,1.21846967915e-07,0.46091255,-0.0784532,8.9044382,9e-08,0.0,0.0,0.0,9e-08,0.0,0.0,0.0,9e-08
1539875376619654312,1030,1539875376618902024,base_link,0.0474437628074,0.0776544022534,-0.916113754219,-0.390454187469,1.0,0.0,0.0,0.0,1.0,0.0,0.0,0.0,1.0,0.0762570127845,0.110160425305,0.236690536141,1.21846967915e-07,0.0,0.0,0.0,1.21846967915e-07,0.0,0.0,0.0,1.21846967915e-07,0.4707192,0.34323275,8.8455983,9e-08,0.0,0.0,0.0,9e-08,0.0,0.0,0.0,9e-08
1539875377156377160,1031,1539875377155458920,base_link,0.0501874289724,0.0952552117797,-0.947122155926,-0.302270224064,1.0,0.0,0.0,0.0,1.0,0.0,0.0,0.0,1.0,-0.285878062248,-0.15584038198,0.354263395071,1.21846967915e-07,0.0,0.0,0.0,1.21846967915e-07,0.0,0.0,0.0,1.21846967915e-07,0.8237586,-0.2745862,11.1011278,9e-08,0.0,0.0,0.0,9e-08,0.0,0.0,0.0,9e-08
1539875377538008584,1032,1539875377537759304,base_link,0.0533138636686,0.0939147140816,-0.963230514988,-0.246017546968,1.0,0.0,0.0,0.0,1.0,0.0,0.0,0.0,1.0,0.222856670618,0.0179898981005,0.265795737505,1.21846967915e-07,0.0,0.0,0.0,1.21846967915e-07,0.0,0.0,0.0,1.21846967915e-07,0.6080123,0.1372931,10.71866845,9e-08,0.0,0.0,0.0,9e-08,0.0,0.0,0.0,9e-08
1539875377871823208,1033,1539875377871604040,base_link,0.0384113298083,0.0380170038734,-0.977719829074,-0.202837898318,1.0,0.0,0.0,0.0,1.0,0.0,0.0,0.0,1.0,0.340535789728,-0.0667495653033,0.256410509348,1.21846967915e-07,0.0,0.0,0.0,1.21846967915e-07,0.0,0.0,0.0,1.21846967915e-07,0.59820565,1.0198916,11.22861425,9e-08,0.0,0.0,0.0,9e-08,0.0,0.0,0.0,9e-08
1539875378214885320,1034,1539875378214295944,base_link,0.0146885104334,-0.00620633031237,-0.98357643331,-0.179786342534,1.0,0.0,0.0,0.0,1.0,0.0,0.0,0.0,1.0,0.208999335766,-0.0164074283093,0.0729005485773,1.21846967915e-07,0.0,0.0,0.0,1.21846967915e-07,0.0,0.0,0.0,1.21846967915e-07,0.6276256,0.59820565,10.2969825,9e-08,0.0,0.0,0.0,9e-08,0.0,0.0,0.0,9e-08
1539875378756630472,1035,1539875378756406760,base_link,0.0173084469482,-0.0486031058758,-0.984262116085,-0.169015509948,1.0,0.0,0.0,0.0,1.0,0.0,0.0,0.0,1.0,0.332861542702,0.0641380548477,-0.0685215219855,1.21846967915e-07,0.0,0.0,0.0,1.21846967915e-07,0.0,0.0,0.0,1.21846967915e-07,0.2549729,1.01008495,8.5317855,9e-08,0.0,0.0,0.0,9e-08,0.0,0.0,0.0,9e-08
