%time,field.header.seq,field.header.stamp,field.header.frame_id,field.orientation.x,field.orientation.y,field.orientation.z,field.orientation.w,field.orientation_covariance0,field.orientation_covariance1,field.orientation_covariance2,field.orientation_covariance3,field.orientation_covariance4,field.orientation_covariance5,field.orientation_covariance6,field.orientation_covariance7,field.orientation_covariance8,field.angular_velocity.x,field.angular_velocity.y,field.angular_velocity.z,field.angular_velocity_covariance0,field.angular_velocity_covariance1,field.angular_velocity_covariance2,field.angular_velocity_covariance3,field.angular_velocity_covariance4,field.angular_velocity_covariance5,field.angular_velocity_covariance6,field.angular_velocity_covariance7,field.angular_velocity_covariance8,field.linear_acceleration.x,field.linear_acceleration.y,field.linear_acceleration.z,field.linear_acceleration_covariance0,field.linear_acceleration_covariance1,field.linear_acceleration_covariance2,field.linear_acceleration_covariance3,field.linear_acceleration_covariance4,field.linear_acceleration_covariance5,field.linear_acceleration_covariance6,field.linear_acceleration_covariance7,field.linear_acceleration_covariance8
1538769499668079456,885,1538769499667846720,base_link,0.0792044865188,0.0916099599575,-0.613231379277,-0.780564885209,1.0,0.0,0.0,0.0,1.0,0.0,0.0,0.0,1.0,0.323590964079,-0.134817332029,0.23276989162,1.21846967915e-07,0.0,0.0,0.0,1.21846967915e-07,0.0,0.0,0.0,1.21846967915e-07,-1.4317709,1.93191005,15.70044665,9e-08,0.0,0.0,0.0,9e-08,0.0,0.0,0.0,9e-08
1538769500065672448,886,1538769500065386816,base_link,0.17053370568,0.156219319943,-0.6178157806,-0.751543372365,1.0,0.0,0.0,0.0,1.0,0.0,0.0,0.0,1.0,-0.66473031044,0.159172952175,-0.161098688841,1.21846967915e-07,0.0,0.0,0.0,1.21846967915e-07,0.0,0.0,0.0,1.21846967915e-07,-1.569064,1.87307015,10.198916,9e-08,0.0,0.0,0.0,9e-08,0.0,0.0,0.0,9e-08
1538769500460251008,887,1538769500459464704,base_link,0.2016855758,0.166918732089,-0.586154681829,-0.766735778715,1.0,0.0,0.0,0.0,1.0,0.0,0.0,0.0,1.0,0.00978172197938,0.112499639392,0.0607453733683,1.21846967915e-07,0.0,0.0,0.0,1.21846967915e-07,0.0,0.0,0.0,1.21846967915e-07,-1.69655045,-0.5099458,7.3549875,9e-08,0.0,0.0,0.0,9e-08,0.0,0.0,0.0,9e-08
1538769500766750368,888,1538769500761938592,base_link,0.217996937945,0.149187619435,-0.609532544736,-0.747455996137,1.0,0.0,0.0,0.0,1.0,0.0,0.0,0.0,1.0,-0.0852538198233,0.102041743696,0.316948622465,1.21846967915e-07,0.0,0.0,0.0,1.21846967915e-07,0.0,0.0,0.0,1.21846967915e-07,-1.79461695,-0.10787315,5.3740442,9e-08,0.0,0.0,0.0,9e-08,0.0,0.0,0.0,9e-08
1538769501132666016,889,1538769501132363200,base_link,0.248839946606,0.131580144352,-0.648101232552,-0.707622879047,1.0,0.0,0.0,0.0,1.0,0.0,0.0,0.0,1.0,-0.187297672033,0.0606782287359,0.248795539141,1.21846967915e-07,0.0,0.0,0.0,1.21846967915e-07,0.0,0.0,0.0,1.21846967915e-07,-1.89268345,0.02941995,5.79573015,9e-08,0.0,0.0,0.0,9e-08,0.0,0.0,0.0,9e-08
1538769501556469696,890,1538769501552129952,base_link,0.281515236947,0.138439714125,-0.672707166392,-0.670110949922,1.0,0.0,0.0,0.0,1.0,0.0,0.0,0.0,1.0,-0.0969771146774,0.00189857790247,0.157255604863,1.21846967915e-07,0.0,0.0,0.0,1.21846967915e-07,0.0,0.0,0.0,1.21846967915e-07,-1.96133,9.00726189964e-16,7.3549875,9e-08,0.0,0.0,0.0,9e-08,0.0,0.0,0.0,9e-08
1538769501964517184,891,1538769501962471104,base_link,0.302760548718,0.145250054059,-0.704314929075,-0.625443005092,1.0,0.0,0.0,0.0,1.0,0.0,0.0,0.0,1.0,-0.00262477248907,-0.0841840282083,0.320083081722,1.21846967915e-07,0.0,0.0,0.0,1.21846967915e-07,0.0,0.0,0.0,1.21846967915e-07,-1.89268345,-0.30400615,6.91368825,9e-08,0.0,0.0,0.0,9e-08,0.0,0.0,0.0,9e-08
1538769502295835520,892,1538769502295356896,base_link,0.286723004975,0.132795593597,-0.745579910391,-0.586741719976,1.0,0.0,0.0,0.0,1.0,0.0,0.0,0.0,1.0,0.0519653595984,-0.154827237129,0.311191022396,1.21846967915e-07,0.0,0.0,0.0,1.21846967915e-07,0.0,0.0,0.0,1.21846967915e-07,-1.81423025,0.1372931,10.79712165,9e-08,0.0,0.0,0.0,9e-08,0.0,0.0,0.0,9e-08
1538769502677859968,893,1538769502677533696,base_link,0.268781497368,0.145930318009,-0.781191614572,-0.544243061766,1.0,0.0,0.0,0.0,1.0,0.0,0.0,0.0,1.0,-0.0666548386216,-0.256952255964,0.196449786425,1.21846967915e-07,0.0,0.0,0.0,1.21846967915e-07,0.0,0.0,0.0,1.21846967915e-07,-1.38273765,-0.06864655,15.1806942,9e-08,0.0,0.0,0.0,9e-08,0.0,0.0,0.0,9e-08
1538769503150004416,894,1538769503149625056,base_link,0.241993264366,0.196088566408,-0.818201296015,-0.483254770618,1.0,0.0,0.0,0.0,1.0,0.0,0.0,0.0,1.0,-0.177282989025,-0.327559232712,0.222868278623,1.21846967915e-07,0.0,0.0,0.0,1.21846967915e-07,0.0,0.0,0.0,1.21846967915e-07,-1.1964113,-0.02941995,14.09215605,9e-08,0.0,0.0,0.0,9e-08,0.0,0.0,0.0,9e-08
1538769503549742848,895,1538769503549468192,base_link,0.200891469514,0.229097217409,-0.853855264473,-0.422005058955,1.0,0.0,0.0,0.0,1.0,0.0,0.0,0.0,1.0,-0.0444021932781,-0.372756272554,0.238119646907,1.21846967915e-07,0.0,0.0,0.0,1.21846967915e-07,0.0,0.0,0.0,1.21846967915e-07,-0.73549875,0.18632635,15.38663385,9e-08,0.0,0.0,0.0,9e-08,0.0,0.0,0.0,9e-08
1538769504104230624,896,1538769504103878592,base_link,0.11014922095,0.218256698184,-0.90664874426,-0.343830215883,1.0,0.0,0.0,0.0,1.0,0.0,0.0,0.0,1.0,0.365407526493,-0.34439638257,0.239580094814,1.21846967915e-07,0.0,0.0,0.0,1.21846967915e-07,0.0,0.0,0.0,1.21846967915e-07,-0.4511059,0.1765197,17.7500365,9e-08,0.0,0.0,0.0,9e-08,0.0,0.0,0.0,9e-08
1538769504392432832,897,1538769504392159136,base_link,0.0461637356254,0.156265963568,-0.935286867595,-0.314146993377,1.0,0.0,0.0,0.0,1.0,0.0,0.0,0.0,1.0,0.651044726372,-0.271966785192,0.170441195369,1.21846967915e-07,0.0,0.0,0.0,1.21846967915e-07,0.0,0.0,0.0,1.21846967915e-07,-0.24516625,0.18632635,17.13221755,9e-08,0.0,0.0,0.0,9e-08,0.0,0.0,0.0,9e-08
1538769504863400224,898,1538769504863042880,base_link,-0.0440614030992,0.00687494025013,-0.957099721744,-0.286306567496,1.0,0.0,0.0,0.0,1.0,0.0,0.0,0.0,1.0,0.788143157959,-0.10578918457,0.00817355699837,1.21846967915e-07,0.0,0.0,0.0,1.21846967915e-07,0.0,0.0,0.0,1.21846967915e-07,-0.4314926,0.4511059,14.77862155,9e-08,0.0,0.0,0.0,9e-08,0.0,0.0,0.0,9e-08
1538769505327664128,899,1538769505327312992,base_link,-0.101639531748,-0.147728793647,-0.94055603122,-0.288444034864,1.0,0.0,0.0,0.0,1.0,0.0,0.0,0.0,1.0,0.51093518734,-0.0147468708456,-0.146878704429,1.21846967915e-07,0.0,0.0,0.0,1.21846967915e-07,0.0,0.0,0.0,1.21846967915e-07,-0.67665885,0.5099458,10.7088618,9e-08,0.0,0.0,0.0,9e-08,0.0,0.0,0.0,9e-08
1538769505618856672,900,1538769505616999968,base_link,-0.10259028327,-0.155346063585,-0.934449076511,-0.303558491421,1.0,0.0,0.0,0.0,1.0,0.0,0.0,0.0,1.0,-1.13795888424,-0.00981942471117,-0.0140590015799,1.21846967915e-07,0.0,0.0,0.0,1.21846967915e-07,0.0,0.0,0.0,1.21846967915e-07,-0.67665885,1.04931155,9.14960445,9e-08,0.0,0.0,0.0,9e-08,0.0,0.0,0.0,9e-08
1538769505964586272,901,1538769505963919680,base_link,-0.0149652442983,0.037426463077,-0.938545066133,-0.342795070214,1.0,0.0,0.0,0.0,1.0,0.0,0.0,0.0,1.0,-1.00892722607,0.168706133962,-0.268290698528,1.21846967915e-07,0.0,0.0,0.0,1.21846967915e-07,0.0,0.0,0.0,1.21846967915e-07,-0.7060788,1.176798,10.09104285,9e-08,0.0,0.0,0.0,9e-08,0.0,0.0,0.0,9e-08
1538769506375073120,902,1538769506370276672,base_link,0.0524969497009,0.155402001299,-0.920691060867,-0.354150051113,1.0,0.0,0.0,0.0,1.0,0.0,0.0,0.0,1.0,-0.53954076767,0.0217892918736,0.25970646739,1.21846967915e-07,0.0,0.0,0.0,1.21846967915e-07,0.0,0.0,0.0,1.21846967915e-07,-0.784532,-0.7649187,4.9229383,9e-08,0.0,0.0,0.0,9e-08,0.0,0.0,0.0,9e-08
1538769506722519744,903,1538769506722238592,base_link,0.0861953457981,0.219093398201,-0.924413422554,-0.300047112018,1.0,0.0,0.0,0.0,1.0,0.0,0.0,0.0,1.0,-0.269828498363,-0.0128736197948,0.207389995456,1.21846967915e-07,0.0,0.0,0.0,1.21846967915e-07,0.0,0.0,0.0,1.21846967915e-07,-0.89240515,0.4903325,9.5909037,9e-08,0.0,0.0,0.0,9e-08,0.0,0.0,0.0,9e-08
1538769507168585088,904,1538769507168383040,base_link,0.0928111490814,0.241659677745,-0.927080828699,-0.27112327052,1.0,0.0,0.0,0.0,1.0,0.0,0.0,0.0,1.0,0.220094308257,-0.104691296816,0.124432340264,1.21846967915e-07,0.0,0.0,0.0,1.21846967915e-07,0.0,0.0,0.0,1.21846967915e-07,-0.7649187,-0.32361945,11.20900095,9e-08,0.0,0.0,0.0,9e-08,0.0,0.0,0.0,9e-08
1538769507481714592,905,1538769507481334176,base_link,0.0805053746067,0.21093399514,-0.945188862341,-0.235889272457,1.0,0.0,0.0,0.0,1.0,0.0,0.0,0.0,1.0,0.0952386409044,-0.0768017694354,0.271163642406,1.21846967915e-07,0.0,0.0,0.0,1.21846967915e-07,0.0,0.0,0.0,1.21846967915e-07,-0.7453054,0.0392266,10.3754357,9e-08,0.0,0.0,0.0,9e-08,0.0,0.0,0.0,9e-08
1538769507877103296,906,1538769507876772672,base_link,0.0778428663933,0.213687255914,-0.955021287461,-0.190296046487,1.0,0.0,0.0,0.0,1.0,0.0,0.0,0.0,1.0,-0.0706135109067,-0.0479204393923,0.148433834314,1.21846967915e-07,0.0,0.0,0.0,1.21846967915e-07,0.0,0.0,0.0,1.21846967915e-07,-0.6668522,0.59820565,11.5914603,9e-08,0.0,0.0,0.0,9e-08,0.0,0.0,0.0,9e-08
1538769508305799680,907,1538769508303558016,base_link,0.0675162861564,0.171764301836,-0.969994425367,-0.15826999234,1.0,0.0,0.0,0.0,1.0,0.0,0.0,0.0,1.0,0.567192614079,-0.0584205761552,0.205325171351,1.21846967915e-07,0.0,0.0,0.0,1.21846967915e-07,0.0,0.0,0.0,1.21846967915e-07,-0.75511205,-0.1765197,10.002783,9e-08,0.0,0.0,0.0,9e-08,0.0,0.0,0.0,9e-08
1538769508498841888,908,1538769508496640736,base_link,0.0585635775287,0.129316869437,-0.979681078187,-0.141677237795,1.0,0.0,0.0,0.0,1.0,0.0,0.0,0.0,1.0,0.278791368008,-0.061443425715,0.179927870631,1.21846967915e-07,0.0,0.0,0.0,1.21846967915e-07,0.0,0.0,0.0,1.21846967915e-07,-0.73549875,0.2941995,11.40513395,9e-08,0.0,0.0,0.0,9e-08,0.0,0.0,0.0,9e-08
1538769508895382656,909,1538769508895117856,base_link,0.0491725557032,0.0827492290093,-0.988480155664,-0.116797289016,1.0,0.0,0.0,0.0,1.0,0.0,0.0,0.0,1.0,0.520823061466,-0.0158027857542,0.0584632307291,1.21846967915e-07,0.0,0.0,0.0,1.21846967915e-07,0.0,0.0,0.0,1.21846967915e-07,-0.7060788,-0.0980665,8.9436648,9e-08,0.0,0.0,0.0,9e-08,0.0,0.0,0.0,9e-08
1538769509091791200,910,1538769509091476448,base_link,0.0420510959199,0.0363821576448,-0.992887588199,-0.105272413944,1.0,0.0,0.0,0.0,1.0,0.0,0.0,0.0,1.0,0.458153545856,-0.0457250885665,0.156835123897,1.21846967915e-07,0.0,0.0,0.0,1.21846967915e-07,0.0,0.0,0.0,1.21846967915e-07,-0.73549875,-0.0392266,10.1400761,9e-08,0.0,0.0,0.0,9e-08,0.0,0.0,0.0,9e-08
1538769509498904000,911,1538769509495916992,base_link,0.0304663571651,-0.00150526085947,-0.996367620202,-0.0795053500279,1.0,0.0,0.0,0.0,1.0,0.0,0.0,0.0,1.0,-0.0170869175345,-0.0527803227305,0.027235230431,1.21846967915e-07,0.0,0.0,0.0,1.21846967915e-07,0.0,0.0,0.0,1.21846967915e-07,-0.57859235,0.8433719,11.52281375,9e-08,0.0,0.0,0.0,9e-08,0.0,0.0,0.0,9e-08
1538769509957200352,912,1538769509956963936,base_link,0.0145045922398,-0.0164362883988,-0.99589849996,-0.087781791987,1.0,0.0,0.0,0.0,1.0,0.0,0.0,0.0,1.0,0.276354938745,-0.0850045531988,0.0641680508852,1.21846967915e-07,0.0,0.0,0.0,1.21846967915e-07,0.0,0.0,0.0,1.21846967915e-07,-0.53936575,-0.00980665,12.93497135,9e-08,0.0,0.0,0.0,9e-08,0.0,0.0,0.0,9e-08
1538769510391260512,913,1538769510385916768,base_link,0.00183766473519,-0.0348145641903,-0.997723555132,-0.0577258749832,1.0,0.0,0.0,0.0,1.0,0.0,0.0,0.0,1.0,-0.25742816925,-0.0397524163127,0.187886252999,1.21846967915e-07,0.0,0.0,0.0,1.21846967915e-07,0.0,0.0,0.0,1.21846967915e-07,-0.5687857,0.53936575,9.1594111,9e-08,0.0,0.0,0.0,9e-08,0.0,0.0,0.0,9e-08
1538769510864901376,914,1538769510864586624,base_link,0.00919590320702,0.0723292550413,-0.994860783347,-0.0702562167229,1.0,0.0,0.0,0.0,1.0,0.0,0.0,0.0,1.0,-0.403165519238,0.00731419585645,-0.119338877499,1.21846967915e-07,0.0,0.0,0.0,1.21846967915e-07,0.0,0.0,0.0,1.21846967915e-07,-0.61781895,0.59820565,10.002783,9e-08,0.0,0.0,0.0,9e-08,0.0,0.0,0.0,9e-08
1538769511276229184,915,1538769511274878144,base_link,0.00995372134192,0.122627115852,-0.989341172033,-0.077894539023,1.0,0.0,0.0,0.0,1.0,0.0,0.0,0.0,1.0,-0.360341340303,-0.0317995063961,0.0856810361147,1.21846967915e-07,0.0,0.0,0.0,1.21846967915e-07,0.0,0.0,0.0,1.21846967915e-07,-0.392266,0.1176798,10.52253545,9e-08,0.0,0.0,0.0,9e-08,0.0,0.0,0.0,9e-08
1538769511608556384,916,1538769511608199520,base_link,0.00992183607978,0.173929536706,-0.983663753023,-0.0453397664216,1.0,0.0,0.0,0.0,1.0,0.0,0.0,0.0,1.0,-0.257230877876,-0.0570455342531,0.272383868694,1.21846967915e-07,0.0,0.0,0.0,1.21846967915e-07,0.0,0.0,0.0,1.21846967915e-07,-0.36284605,-0.12748645,10.2773692,9e-08,0.0,0.0,0.0,9e-08,0.0,0.0,0.0,9e-08
1538769512045700032,917,1538769512045427264,base_link,0.0108014627748,0.253740211814,-0.967064850208,0.0168762792882,1.0,0.0,0.0,0.0,1.0,0.0,0.0,0.0,1.0,-0.273774087429,-0.0514354482293,0.250333845615,1.21846967915e-07,0.0,0.0,0.0,1.21846967915e-07,0.0,0.0,0.0,1.21846967915e-07,-0.3726527,0.10787315,10.1204628,9e-08,0.0,0.0,0.0,9e-08,0.0,0.0,0.0,9e-08
1538769512285038528,918,1538769512284677568,base_link,0.00553234941313,0.27771143699,-0.959452948548,0.0479144069892,1.0,0.0,0.0,0.0,1.0,0.0,0.0,0.0,1.0,-0.196535110474,-0.136236786842,0.227478906512,1.21846967915e-07,0.0,0.0,0.0,1.21846967915e-07,0.0,0.0,0.0,1.21846967915e-07,-0.30400615,0.18632635,9.69877685,9e-08,0.0,0.0,0.0,9e-08,0.0,0.0,0.0,9e-08
1538769512764952544,919,1538769512764324192,base_link,-0.0168735290331,0.297817608071,-0.946205662265,0.125358689522,1.0,0.0,0.0,0.0,1.0,0.0,0.0,0.0,1.0,-0.0540291815996,-0.230578318238,0.281005740166,1.21846967915e-07,0.0,0.0,0.0,1.21846967915e-07,0.0,0.0,0.0,1.21846967915e-07,0.0392266,0.0196133,10.91480145,9e-08,0.0,0.0,0.0,9e-08,0.0,0.0,0.0,9e-08
1538769513174314592,920,1538769513169649120,base_link,-0.0412654629191,0.293261233269,-0.934568093361,0.197173754602,1.0,0.0,0.0,0.0,1.0,0.0,0.0,0.0,1.0,0.161169931293,-0.248732402921,0.296500355005,1.21846967915e-07,0.0,0.0,0.0,1.21846967915e-07,0.0,0.0,0.0,1.21846967915e-07,0.2549729,1.35949606272e-15,11.1011278,9e-08,0.0,0.0,0.0,9e-08,0.0,0.0,0.0,9e-08
1538769513540383040,921,1538769513538044736,base_link,-0.0605228744921,0.252177065337,-0.929340939144,0.262810061095,1.0,0.0,0.0,0.0,1.0,0.0,0.0,0.0,1.0,0.305230081081,-0.235850811005,0.301271557808,1.21846967915e-07,0.0,0.0,0.0,1.21846967915e-07,0.0,0.0,0.0,1.21846967915e-07,0.55897905,0.1569064,13.2389775,9e-08,0.0,0.0,0.0,9e-08,0.0,0.0,0.0,9e-08
1538769513821945312,922,1538769513821598592,base_link,-0.0723293259408,0.215456352674,-0.925912970379,0.301715428815,1.0,0.0,0.0,0.0,1.0,0.0,0.0,0.0,1.0,0.202768728137,-0.193883761764,0.141855552793,1.21846967915e-07,0.0,0.0,0.0,1.21846967915e-07,0.0,0.0,0.0,1.21846967915e-07,0.4118793,0.32361945,12.3171524,9e-08,0.0,0.0,0.0,9e-08,0.0,0.0,0.0,9e-08
1538769514104306976,923,1538769514103940992,base_link,-0.0922973879661,0.191287085835,-0.9187564154,0.33283192775,1.0,0.0,0.0,0.0,1.0,0.0,0.0,0.0,1.0,0.078654691577,-0.234356164932,0.227583557367,1.21846967915e-07,0.0,0.0,0.0,1.21846967915e-07,0.0,0.0,0.0,1.21846967915e-07,0.73549875,0.3726527,16.58304515,9e-08,0.0,0.0,0.0,9e-08,0.0,0.0,0.0,9e-08
1538769514583767648,924,1538769514583324704,base_link,-0.0781115357631,0.0862555576994,-0.915245102204,0.385726547749,1.0,0.0,0.0,0.0,1.0,0.0,0.0,0.0,1.0,0.379943042994,-0.0803233906627,0.117227956653,1.21846967915e-07,0.0,0.0,0.0,1.21846967915e-07,0.0,0.0,0.0,1.21846967915e-07,0.30400615,0.588399,12.8859381,9e-08,0.0,0.0,0.0,9e-08,0.0,0.0,0.0,9e-08
1538769514851327872,925,1538769514851054624,base_link,-0.0639994418887,0.0437895343892,-0.914011159524,0.398208674418,1.0,0.0,0.0,0.0,1.0,0.0,0.0,0.0,1.0,0.329069912434,-0.020928369835,0.0322530083358,1.21846967915e-07,0.0,0.0,0.0,1.21846967915e-07,0.0,0.0,0.0,1.21846967915e-07,0.20593965,0.4118793,10.85596155,9e-08,0.0,0.0,0.0,9e-08,0.0,0.0,0.0,9e-08
1538769515370072992,926,1538769515369798496,base_link,-0.0141972131335,-0.0633650922221,-0.912661206056,0.403525497567,1.0,0.0,0.0,0.0,1.0,0.0,0.0,0.0,1.0,0.508982300758,0.0542334653437,0.00181990722194,1.21846967915e-07,0.0,0.0,0.0,1.21846967915e-07,0.0,0.0,0.0,1.21846967915e-07,0.0588399,0.0980665,9.77723005,9e-08,0.0,0.0,0.0,9e-08,0.0,0.0,0.0,9e-08
1538769515718528288,927,1538769515718093088,base_link,0.0137161486132,-0.108171387045,-0.909477215197,0.401200714519,1.0,0.0,0.0,0.0,1.0,0.0,0.0,0.0,1.0,0.142281770706,0.0368432253599,-0.0621174685657,1.21846967915e-07,0.0,0.0,0.0,1.21846967915e-07,0.0,0.0,0.0,1.21846967915e-07,0.04903325,0.5295591,9.09076455,9e-08,0.0,0.0,0.0,9e-08,0.0,0.0,0.0,9e-08
1538769516123244224,928,1538769516122529760,base_link,0.0349586344147,-0.123008048485,-0.914618722408,0.383561607188,1.0,0.0,0.0,0.0,1.0,0.0,0.0,0.0,1.0,0.0359746217728,0.0701902657747,-0.137108415365,1.21846967915e-07,0.0,0.0,0.0,1.21846967915e-07,0.0,0.0,0.0,1.21846967915e-07,0.0196133,0.69627215,8.44352565,9e-08,0.0,0.0,0.0,9e-08,0.0,0.0,0.0,9e-08
1538769516358417024,929,1538769516355666176,base_link,0.0429536987251,-0.121578080617,-0.921315146,0.366813510971,1.0,0.0,0.0,0.0,1.0,0.0,0.0,0.0,1.0,-0.069684907794,0.0256496816874,-0.170316636562,1.21846967915e-07,0.0,0.0,0.0,1.21846967915e-07,0.0,0.0,0.0,1.21846967915e-07,0.0392266,0.57859235,8.42391235,9e-08,0.0,0.0,0.0,9e-08,0.0,0.0,0.0,9e-08
1538769516726570144,930,1538769516726034464,base_link,0.0454779817136,-0.10856634167,-0.931307914729,0.344689237719,1.0,0.0,0.0,0.0,1.0,0.0,0.0,0.0,1.0,-0.102378562093,-0.00835293903947,-0.130632907152,1.21846967915e-07,0.0,0.0,0.0,1.21846967915e-07,0.0,0.0,0.0,1.21846967915e-07,0.0,0.73549875,9.610517,9e-08,0.0,0.0,0.0,9e-08,0.0,0.0,0.0,9e-08
1538769517178780128,931,1538769517178520896,base_link,0.0394566994402,-0.0874694459395,-0.943888806822,0.316016115495,1.0,0.0,0.0,0.0,1.0,0.0,0.0,0.0,1.0,-0.0344714000821,-0.0330290347338,-0.081514492631,1.21846967915e-07,0.0,0.0,0.0,1.21846967915e-07,0.0,0.0,0.0,1.21846967915e-07,-0.06864655,0.0980665,10.56176205,9e-08,0.0,0.0,0.0,9e-08,0.0,0.0,0.0,9e-08
1538769517563043552,932,1538769517562755488,base_link,0.0283915522678,-0.0768579040536,-0.945280916846,0.315801790039,1.0,0.0,0.0,0.0,1.0,0.0,0.0,0.0,1.0,-0.041534755379,-0.0385759845376,0.0118561116979,1.21846967915e-07,0.0,0.0,0.0,1.21846967915e-07,0.0,0.0,0.0,1.21846967915e-07,-0.0588399,0.51975245,10.99325465,9e-08,0.0,0.0,0.0,9e-08,0.0,0.0,0.0,9e-08
1538769517776241376,933,1538769517775325472,base_link,0.0223096999049,-0.0698782336239,-0.945772901856,0.316437873636,1.0,0.0,0.0,0.0,1.0,0.0,0.0,0.0,1.0,-0.222940564156,-0.0487103611231,-0.0140283331275,1.21846967915e-07,0.0,0.0,0.0,1.21846967915e-07,0.0,0.0,0.0,1.21846967915e-07,-0.08825985,0.73549875,10.1793027,9e-08,0.0,0.0,0.0,9e-08,0.0,0.0,0.0,9e-08
1538769518035037024,934,1538769518034767904,base_link,0.00943427126064,-0.0315614466156,-0.950389749675,0.309312452589,1.0,0.0,0.0,0.0,1.0,0.0,0.0,0.0,1.0,-0.234967947006,0.0200446993113,-0.0840531885624,1.21846967915e-07,0.0,0.0,0.0,1.21846967915e-07,0.0,0.0,0.0,1.21846967915e-07,-0.02941995,0.50013915,10.8657682,9e-08,0.0,0.0,0.0,9e-08,0.0,0.0,0.0,9e-08
1538769518472788896,935,1538769518469601056,base_link,0.00825207135798,-0.0178004542144,-0.953070295623,0.302112659035,1.0,0.0,0.0,0.0,1.0,0.0,0.0,0.0,1.0,-0.00527951307595,-0.0159945562482,-0.0213640909642,1.21846967915e-07,0.0,0.0,0.0,1.21846967915e-07,0.0,0.0,0.0,1.21846967915e-07,-0.12748645,0.51975245,9.56148375,9e-08,0.0,0.0,0.0,9e-08,0.0,0.0,0.0,9e-08
1538769518939081792,936,1538769518937788928,base_link,0.00964209001671,-0.0162727153971,-0.954225946083,0.298487977406,1.0,0.0,0.0,0.0,1.0,0.0,0.0,0.0,1.0,0.0581405088305,0.0225295014679,0.00923796836287,1.21846967915e-07,0.0,0.0,0.0,1.21846967915e-07,0.0,0.0,0.0,1.21846967915e-07,-0.2157463,0.2157463,10.44408225,9e-08,0.0,0.0,0.0,9e-08,0.0,0.0,0.0,9e-08
1538769519279559840,937,1538769519279214848,base_link,0.0157420243668,-0.0209709195454,-0.951038351834,0.307958540299,1.0,0.0,0.0,0.0,1.0,0.0,0.0,0.0,1.0,-0.108877934515,0.026774417609,0.102083437145,1.21846967915e-07,0.0,0.0,0.0,1.21846967915e-07,0.0,0.0,0.0,1.21846967915e-07,-0.2157463,0.4314926,9.75761675,9e-08,0.0,0.0,0.0,9e-08,0.0,0.0,0.0,9e-08
1538769519757047328,938,1538769519755476000,base_link,0.012880042853,0.0281376276172,-0.947905633575,0.317044615542,1.0,0.0,0.0,0.0,1.0,0.0,0.0,0.0,1.0,-0.283415645361,0.0440119691193,0.0179610028863,1.21846967915e-07,0.0,0.0,0.0,1.21846967915e-07,0.0,0.0,0.0,1.21846967915e-07,-0.24516625,0.4511059,9.9047165,9e-08,0.0,0.0,0.0,9e-08,0.0,0.0,0.0,9e-08
1538769520189853504,939,1538769520189625024,base_link,0.0238300311736,0.0365872547626,-0.949507192679,0.310692120037,1.0,0.0,0.0,0.0,1.0,0.0,0.0,0.0,1.0,-0.0116145443171,0.0177185535431,-0.0255309045315,1.21846967915e-07,0.0,0.0,0.0,1.21846967915e-07,0.0,0.0,0.0,1.21846967915e-07,-0.36284605,0.32361945,8.85540495,9e-08,0.0,0.0,0.0,9e-08,0.0,0.0,0.0,9e-08
1538769520659651648,940,1538769520659388160,base_link,0.0235059654665,0.024429977747,-0.94376481007,0.328874792359,1.0,0.0,0.0,0.0,1.0,0.0,0.0,0.0,1.0,0.0429190024734,-0.0484231635928,0.137100234628,1.21846967915e-07,0.0,0.0,0.0,1.21846967915e-07,0.0,0.0,0.0,1.21846967915e-07,-0.26477955,0.22555295,10.3165958,9e-08,0.0,0.0,0.0,9e-08,0.0,0.0,0.0,9e-08
1538769521098303552,941,1538769521097989728,base_link,0.0168931394299,0.0214080555064,-0.937746686889,0.346247697795,1.0,0.0,0.0,0.0,1.0,0.0,0.0,0.0,1.0,0.0145003795624,-0.0391643680632,0.0237119086087,1.21846967915e-07,0.0,0.0,0.0,1.21846967915e-07,0.0,0.0,0.0,1.21846967915e-07,-0.26477955,0.5491724,10.07142955,9e-08,0.0,0.0,0.0,9e-08,0.0,0.0,0.0,9e-08
1538769521432983392,942,1538769521432703104,base_link,0.0157098527401,0.00625406342291,-0.93684379051,0.349339089426,1.0,0.0,0.0,0.0,1.0,0.0,0.0,0.0,1.0,0.106739975512,-0.0486538298428,0.0288051273674,1.21846967915e-07,0.0,0.0,0.0,1.21846967915e-07,0.0,0.0,0.0,1.21846967915e-07,-0.16671305,0.2941995,10.2381426,9e-08,0.0,0.0,0.0,9e-08,0.0,0.0,0.0,9e-08
1538769521889852064,943,1538769521889507232,base_link,0.0156848117421,-0.0226145586535,-0.933465520878,0.357609689116,1.0,0.0,0.0,0.0,1.0,0.0,0.0,0.0,1.0,0.0770552530885,-0.0444722622633,0.0352743342519,1.21846967915e-07,0.0,0.0,0.0,1.21846967915e-07,0.0,0.0,0.0,1.21846967915e-07,-0.02941995,0.4314926,10.983448,9e-08,0.0,0.0,0.0,9e-08,0.0,0.0,0.0,9e-08
1538769522373771136,944,1538769522373531136,base_link,0.0117829208694,-0.035189865257,-0.933465789654,0.356741440969,1.0,0.0,0.0,0.0,1.0,0.0,0.0,0.0,1.0,0.0674520656466,-0.03131429106,-0.0155004821718,1.21846967915e-07,0.0,0.0,0.0,1.21846967915e-07,0.0,0.0,0.0,1.21846967915e-07,0.0196133,0.40207265,10.5715687,9e-08,0.0,0.0,0.0,9e-08,0.0,0.0,0.0,9e-08
1538769522743314176,945,1538769522743054528,base_link,0.00799574295511,-0.0417581751029,-0.934029174884,0.354657332327,1.0,0.0,0.0,0.0,1.0,0.0,0.0,0.0,1.0,0.0327114127576,-0.0332193076611,-0.017650693655,1.21846967915e-07,0.0,0.0,0.0,1.21846967915e-07,0.0,0.0,0.0,1.21846967915e-07,0.0,0.44129925,10.99325465,9e-08,0.0,0.0,0.0,9e-08,0.0,0.0,0.0,9e-08
1538769523163628224,946,1538769523163364224,base_link,0.00574137443157,-0.0377465414272,-0.936499028034,0.348585435325,1.0,0.0,0.0,0.0,1.0,0.0,0.0,0.0,1.0,-0.054358266294,0.0107097988948,-0.0403141081333,1.21846967915e-07,0.0,0.0,0.0,1.21846967915e-07,0.0,0.0,0.0,1.21846967915e-07,0.0,0.5295591,10.0616229,9e-08,0.0,0.0,0.0,9e-08,0.0,0.0,0.0,9e-08
1538769523527303072,947,1538769523526924256,base_link,0.00896831327251,-0.0350541454891,-0.938556848845,0.343222694073,1.0,0.0,0.0,0.0,1.0,0.0,0.0,0.0,1.0,0.0156849417835,0.024927103892,-0.0120181273669,1.21846967915e-07,0.0,0.0,0.0,1.21846967915e-07,0.0,0.0,0.0,1.21846967915e-07,0.04903325,0.34323275,9.20844435,9e-08,0.0,0.0,0.0,9e-08,0.0,0.0,0.0,9e-08
1538769523822480992,948,1538769523822053376,base_link,0.0122033783085,-0.0370239985643,-0.938559438115,0.34290885409,1.0,0.0,0.0,0.0,1.0,0.0,0.0,0.0,1.0,0.0232168789953,0.0151275880635,0.0159153006971,1.21846967915e-07,0.0,0.0,0.0,1.21846967915e-07,0.0,0.0,0.0,1.21846967915e-07,0.08825985,0.40207265,9.3359308,9e-08,0.0,0.0,0.0,9e-08,0.0,0.0,0.0,9e-08
1538769524258818720,949,1538769524258420480,base_link,0.0126159775635,-0.0311741515781,-0.938641750156,0.343250162778,1.0,0.0,0.0,0.0,1.0,0.0,0.0,0.0,1.0,-0.0880882367492,-0.0100029436871,-0.0388258621097,1.21846967915e-07,0.0,0.0,0.0,1.21846967915e-07,0.0,0.0,0.0,1.21846967915e-07,0.14709975,0.5295591,9.9635564,9e-08,0.0,0.0,0.0,9e-08,0.0,0.0,0.0,9e-08
1538769524677051808,950,1538769524676745152,base_link,0.00611397881878,-0.0216188604989,-0.942020522633,0.334802298486,1.0,0.0,0.0,0.0,1.0,0.0,0.0,0.0,1.0,-0.0419826284051,-0.0184323918074,-0.0203231927007,1.21846967915e-07,0.0,0.0,0.0,1.21846967915e-07,0.0,0.0,0.0,1.21846967915e-07,0.1765197,0.38245935,10.03220295,9e-08,0.0,0.0,0.0,9e-08,0.0,0.0,0.0,9e-08
1538769524948332896,951,1538769524948055456,base_link,0.00251911339821,-0.017729820484,-0.942547810787,0.333590964977,1.0,0.0,0.0,0.0,1.0,0.0,0.0,0.0,1.0,-0.035366576165,-0.0193046107888,-0.00429867440835,1.21846967915e-07,0.0,0.0,0.0,1.21846967915e-07,0.0,0.0,0.0,1.21846967915e-07,0.24516625,0.392266,10.40485565,9e-08,0.0,0.0,0.0,9e-08,0.0,0.0,0.0,9e-08
1538769525435721824,952,1538769525435064480,base_link,0.000514389481774,-0.0224551838571,-0.942392750664,0.333753507274,1.0,0.0,0.0,0.0,1.0,0.0,0.0,0.0,1.0,0.0271459762007,-0.0305566377938,-0.00872128549963,1.21846967915e-07,0.0,0.0,0.0,1.21846967915e-07,0.0,0.0,0.0,1.21846967915e-07,0.3138128,0.42168595,10.2969825,9e-08,0.0,0.0,0.0,9e-08,0.0,0.0,0.0,9e-08
1538769525722417920,953,1538769525722073760,base_link,0.000273897135923,-0.0257901626683,-0.942895367319,0.332089022371,1.0,0.0,0.0,0.0,1.0,0.0,0.0,0.0,1.0,0.0997707545757,0.0237144380808,-0.0278576388955,1.21846967915e-07,0.0,0.0,0.0,1.21846967915e-07,0.0,0.0,0.0,1.21846967915e-07,0.3530394,0.55897905,11.1011278,9e-08,0.0,0.0,0.0,9e-08,0.0,0.0,0.0,9e-08
1538769526075046592,954,1538769526074790976,base_link,0.00499422417129,-0.0338124054194,-0.944797062022,0.325868517288,1.0,0.0,0.0,0.0,1.0,0.0,0.0,0.0,1.0,-0.0727571770549,0.0197178479284,-0.010017035529,1.21846967915e-07,0.0,0.0,0.0,1.21846967915e-07,0.0,0.0,0.0,1.21846967915e-07,0.38245935,0.4707192,8.73772515,9e-08,0.0,0.0,0.0,9e-08,0.0,0.0,0.0,9e-08
1538769526422028576,955,1538769526420905536,base_link,-0.00239451902719,-0.0145102800929,-0.945015013284,0.326696101475,1.0,0.0,0.0,0.0,1.0,0.0,0.0,0.0,1.0,-0.0406607426703,-0.016834128648,-0.00553062791005,1.21846967915e-07,0.0,0.0,0.0,1.21846967915e-07,0.0,0.0,0.0,1.21846967915e-07,0.4903325,0.5687857,10.6892485,9e-08,0.0,0.0,0.0,9e-08,0.0,0.0,0.0,9e-08
1538769526783482016,956,1538769526783203456,base_link,-0.0153644331416,0.00984332280616,-0.945716394778,0.324480421347,1.0,0.0,0.0,0.0,1.0,0.0,0.0,0.0,1.0,-0.0401975661516,-0.0127104232088,0.00555257080123,1.21846967915e-07,0.0,0.0,0.0,1.21846967915e-07,0.0,0.0,0.0,1.21846967915e-07,0.44129925,0.4118793,11.15016105,9e-08,0.0,0.0,0.0,9e-08,0.0,0.0,0.0,9e-08
1538769527136736960,957,1538769527136229824,base_link,-0.0160950062439,-0.0117876587353,-0.944033378381,0.329246081797,1.0,0.0,0.0,0.0,1.0,0.0,0.0,0.0,1.0,-0.000721415504813,-0.0226100198925,0.0106942169368,1.21846967915e-07,0.0,0.0,0.0,1.21846967915e-07,0.0,0.0,0.0,1.21846967915e-07,0.7256921,0.8433719,12.8467115,9e-08,0.0,0.0,0.0,9e-08,0.0,0.0,0.0,9e-08
1538769527518398752,958,1538769527510069248,base_link,-0.0135753062649,-0.0123456165923,-0.945709927271,0.324493498041,1.0,0.0,0.0,0.0,1.0,0.0,0.0,0.0,1.0,0.0467534810305,0.0463322103024,-0.0523540005088,1.21846967915e-07,0.0,0.0,0.0,1.21846967915e-07,0.0,0.0,0.0,1.21846967915e-07,0.55897905,0.5295591,10.1596894,9e-08,0.0,0.0,0.0,9e-08,0.0,0.0,0.0,9e-08
1538769527896536704,959,1538769527896025888,base_link,0.00848059632087,-0.0410566018033,-0.94791887154,0.315740792284,1.0,0.0,0.0,0.0,1.0,0.0,0.0,0.0,1.0,0.220279246569,0.0652362555265,0.00149668380618,1.21846967915e-07,0.0,0.0,0.0,1.21846967915e-07,0.0,0.0,0.0,1.21846967915e-07,0.42168595,0.06864655,8.30623255,9e-08,0.0,0.0,0.0,9e-08,0.0,0.0,0.0,9e-08
1538769528255000128,960,1538769528254547904,base_link,0.0296435639886,-0.0759409884074,-0.941277476489,0.327644529403,1.0,0.0,0.0,0.0,1.0,0.0,0.0,0.0,1.0,0.503238379955,0.0610141344368,0.0651580318809,1.21846967915e-07,0.0,0.0,0.0,1.21846967915e-07,0.0,0.0,0.0,1.21846967915e-07,0.2549729,-0.0588399,7.95319315,9e-08,0.0,0.0,0.0,9e-08,0.0,0.0,0.0,9e-08
1538769528646661536,961,1538769528646072384,base_link,0.0458511431907,-0.0947540022432,-0.935448948466,0.337423497315,1.0,0.0,0.0,0.0,1.0,0.0,0.0,0.0,1.0,-0.161965325475,0.0366734303534,-0.0361436977983,1.21846967915e-07,0.0,0.0,0.0,1.21846967915e-07,0.0,0.0,0.0,1.21846967915e-07,0.2941995,0.95124505,8.65927195,9e-08,0.0,0.0,0.0,9e-08,0.0,0.0,0.0,9e-08
1538769529004430560,962,1538769529002531744,base_link,0.0427333609425,-0.0599335632898,-0.94477085499,0.319358512359,1.0,0.0,0.0,0.0,1.0,0.0,0.0,0.0,1.0,-0.147276937962,0.0113721312955,-0.135879725218,1.21846967915e-07,0.0,0.0,0.0,1.21846967915e-07,0.0,0.0,0.0,1.21846967915e-07,-0.02941995,0.3530394,10.16949605,9e-08,0.0,0.0,0.0,9e-08,0.0,0.0,0.0,9e-08
1538769529390093344,963,1538769529389642880,base_link,0.0267951202826,-0.0338415270112,-0.951421271785,0.304851334544,1.0,0.0,0.0,0.0,1.0,0.0,0.0,0.0,1.0,-0.240825310349,-0.0660359486938,-0.0515156015754,1.21846967915e-07,0.0,0.0,0.0,1.21846967915e-07,0.0,0.0,0.0,1.21846967915e-07,0.04903325,0.5491724,10.32640245,9e-08,0.0,0.0,0.0,9e-08,0.0,0.0,0.0,9e-08
1538769529854288768,964,1538769529854048384,base_link,0.0066707473828,-0.0193868444324,-0.95145740605,0.307096818391,1.0,0.0,0.0,0.0,1.0,0.0,0.0,0.0,1.0,-0.0343730524182,-0.0938096195459,0.0826821327209,1.21846967915e-07,0.0,0.0,0.0,1.21846967915e-07,0.0,0.0,0.0,1.21846967915e-07,-0.08825985,0.06864655,9.4339973,9e-08,0.0,0.0,0.0,9e-08,0.0,0.0,0.0,9e-08
1538769530327915168,965,1538769530324800064,base_link,-0.00760921235852,-0.0139997969904,-0.946877552166,0.321199325616,1.0,0.0,0.0,0.0,1.0,0.0,0.0,0.0,1.0,0.114747531712,-0.0154056381434,-0.0495427288115,1.21846967915e-07,0.0,0.0,0.0,1.21846967915e-07,0.0,0.0,0.0,1.21846967915e-07,-0.04903325,0.63743225,10.99325465,9e-08,0.0,0.0,0.0,9e-08,0.0,0.0,0.0,9e-08
1538769530694295680,966,1538769530693850432,base_link,-0.00285401186546,-0.0272758313262,-0.949515801323,0.312518202158,1.0,0.0,0.0,0.0,1.0,0.0,0.0,0.0,1.0,0.0645541995764,-0.00120075978339,-0.0484715774655,1.21846967915e-07,0.0,0.0,0.0,1.21846967915e-07,0.0,0.0,0.0,1.21846967915e-07,0.0,0.44129925,10.13026945,9e-08,0.0,0.0,0.0,9e-08,0.0,0.0,0.0,9e-08
1538769531039104320,967,1538769531038562176,base_link,-0.000954406401229,-0.0175952480197,-0.951892931789,0.305923753189,1.0,0.0,0.0,0.0,1.0,0.0,0.0,0.0,1.0,0.00998069252819,0.0155545603484,-0.0334474332631,1.21846967915e-07,0.0,0.0,0.0,1.21846967915e-07,0.0,0.0,0.0,1.21846967915e-07,-0.0980665,0.6864655,7.3942141,9e-08,0.0,0.0,0.0,9e-08,0.0,0.0,0.0,9e-08
1538769531351716160,968,1538769531351424672,base_link,0.00501144811487,-0.0288797510422,-0.954199394735,0.297732027928,1.0,0.0,0.0,0.0,1.0,0.0,0.0,0.0,1.0,0.0233236588538,0.0327851772308,-0.00851420406252,1.21846967915e-07,0.0,0.0,0.0,1.21846967915e-07,0.0,0.0,0.0,1.21846967915e-07,0.0588399,0.2353596,9.14960445,9e-08,0.0,0.0,0.0,9e-08,0.0,0.0,0.0,9e-08
1538769531751445760,969,1538769531751122624,base_link,0.0307317734054,-0.0779312327485,-0.95202661128,0.294325691168,1.0,0.0,0.0,0.0,1.0,0.0,0.0,0.0,1.0,0.39184948802,0.0792545378208,-0.0994181036949,1.21846967915e-07,0.0,0.0,0.0,1.21846967915e-07,0.0,0.0,0.0,1.21846967915e-07,0.00980665,0.7649187,9.3947707,9e-08,0.0,0.0,0.0,9e-08,0.0,0.0,0.0,9e-08
1538769532200674784,970,1538769532200333024,base_link,0.0711453493937,-0.178627886722,-0.947111146324,0.256925852833,1.0,0.0,0.0,0.0,1.0,0.0,0.0,0.0,1.0,0.427345305681,-0.024734409526,-0.115097537637,1.21846967915e-07,0.0,0.0,0.0,1.21846967915e-07,0.0,0.0,0.0,1.21846967915e-07,-0.02941995,-0.14709975,8.77695175,9e-08,0.0,0.0,0.0,9e-08,0.0,0.0,0.0,9e-08
1538769532565082080,971,1538769532564656256,base_link,0.0654230279917,-0.219646892626,-0.940747849707,0.249937098567,1.0,0.0,0.0,0.0,1.0,0.0,0.0,0.0,1.0,0.122959285975,-0.102919265628,-0.00245053879917,1.21846967915e-07,0.0,0.0,0.0,1.21846967915e-07,0.0,0.0,0.0,1.21846967915e-07,0.20593965,0.8041453,11.3364874,9e-08,0.0,0.0,0.0,9e-08,0.0,0.0,0.0,9e-08
1538769532966994976,972,1538769532964167712,base_link,0.0622013703298,-0.217534713516,-0.94931921538,0.218180350294,1.0,0.0,0.0,0.0,1.0,0.0,0.0,0.0,1.0,0.0379753597081,-0.00777594186366,-0.291549921036,1.21846967915e-07,0.0,0.0,0.0,1.21846967915e-07,0.0,0.0,0.0,1.21846967915e-07,0.08825985,1.0002783,9.8262633,9e-08,0.0,0.0,0.0,9e-08,0.0,0.0,0.0,9e-08
1538769533422220256,973,1538769533421826816,base_link,0.0667154840169,-0.283661886681,-0.945459184519,0.145574409309,1.0,0.0,0.0,0.0,1.0,0.0,0.0,0.0,1.0,0.231048256159,-0.204449698329,-0.220966264606,1.21846967915e-07,0.0,0.0,0.0,1.21846967915e-07,0.0,0.0,0.0,1.21846967915e-07,0.2941995,0.67665885,11.6110736,9e-08,0.0,0.0,0.0,9e-08,0.0,0.0,0.0,9e-08
1538769533898084032,974,1538769533897868384,base_link,0.0436613600057,-0.312275760537,-0.946653452408,0.0665189902806,1.0,0.0,0.0,0.0,1.0,0.0,0.0,0.0,1.0,0.293414622545,-0.231129348278,-0.364067435265,1.21846967915e-07,0.0,0.0,0.0,1.21846967915e-07,0.0,0.0,0.0,1.21846967915e-07,0.1765197,1.0002783,12.26811915,9e-08,0.0,0.0,0.0,9e-08,0.0,0.0,0.0,9e-08
1538769534165156448,975,1538769534158684384,base_link,0.0268859435843,-0.34445547552,-0.938405779233,0.00470796386672,1.0,0.0,0.0,0.0,1.0,0.0,0.0,0.0,1.0,0.32208147645,-0.354522764683,-0.352271258831,1.21846967915e-07,0.0,0.0,0.0,1.21846967915e-07,0.0,0.0,0.0,1.21846967915e-07,0.2549729,0.59820565,11.1403544,9e-08,0.0,0.0,0.0,9e-08,0.0,0.0,0.0,9e-08
1538769534426853440,976,1538769534426327808,base_link,-0.0144576787326,-0.363754751923,-0.930506810498,-0.0403798414582,1.0,0.0,0.0,0.0,1.0,0.0,0.0,0.0,1.0,0.0089684734121,-0.379806011915,-0.129285663366,1.21846967915e-07,0.0,0.0,0.0,1.21846967915e-07,0.0,0.0,0.0,1.21846967915e-07,0.55897905,1.4121576,14.32751565,9e-08,0.0,0.0,0.0,9e-08,0.0,0.0,0.0,9e-08
1538769534818484736,977,1538769534817706752,base_link,-0.0438677370456,-0.360366671499,-0.922973638531,-0.127793373445,1.0,0.0,0.0,0.0,1.0,0.0,0.0,0.0,1.0,0.114347219467,-0.276870250702,-0.459729880095,1.21846967915e-07,0.0,0.0,0.0,1.21846967915e-07,0.0,0.0,0.0,1.21846967915e-07,0.30400615,0.9610517,10.62060195,9e-08,0.0,0.0,0.0,9e-08,0.0,0.0,0.0,9e-08
1538769535244602688,978,1538769535244271680,base_link,-0.0824851793909,-0.351506310098,-0.907153796437,-0.216128431151,1.0,0.0,0.0,0.0,1.0,0.0,0.0,0.0,1.0,0.126530617476,-0.336529970169,-0.254532754421,1.21846967915e-07,0.0,0.0,0.0,1.21846967915e-07,0.0,0.0,0.0,1.21846967915e-07,0.8237586,0.4118793,13.18994425,9e-08,0.0,0.0,0.0,9e-08,0.0,0.0,0.0,9e-08
1538769535680670176,979,1538769535678993152,base_link,-0.119955711966,-0.304811911889,-0.897375849606,-0.295663508199,1.0,0.0,0.0,0.0,1.0,0.0,0.0,0.0,1.0,-0.21995100379,-0.291517972946,-0.306297719479,1.21846967915e-07,0.0,0.0,0.0,1.21846967915e-07,0.0,0.0,0.0,1.21846967915e-07,0.77472535,0.7453054,13.7489233,9e-08,0.0,0.0,0.0,9e-08,0.0,0.0,0.0,9e-08
1538769536155017280,980,1538769536154620864,base_link,-0.163463269935,-0.294910360525,-0.866247736805,-0.368676683719,1.0,0.0,0.0,0.0,1.0,0.0,0.0,0.0,1.0,0.0474020689726,-0.272067070007,-0.218299239874,1.21846967915e-07,0.0,0.0,0.0,1.21846967915e-07,0.0,0.0,0.0,1.21846967915e-07,0.4707192,0.91201845,14.75900825,9e-08,0.0,0.0,0.0,9e-08,0.0,0.0,0.0,9e-08
1538769536617091776,981,1538769536616796160,base_link,-0.194015864063,-0.294202938356,-0.829908014788,-0.432498742824,1.0,0.0,0.0,0.0,1.0,0.0,0.0,0.0,1.0,0.185867413878,-0.183291062713,-0.395776510239,1.21846967915e-07,0.0,0.0,0.0,1.21846967915e-07,0.0,0.0,0.0,1.21846967915e-07,0.42168595,1.46119085,11.34629405,9e-08,0.0,0.0,0.0,9e-08,0.0,0.0,0.0,9e-08
1538769537034479616,982,1538769537033301792,base_link,-0.215339268889,-0.314965890945,-0.772725453123,-0.507268036556,1.0,0.0,0.0,0.0,1.0,0.0,0.0,0.0,1.0,0.231784597039,-0.220066353679,-0.339351326227,1.21846967915e-07,0.0,0.0,0.0,1.21846967915e-07,0.0,0.0,0.0,1.21846967915e-07,0.2353596,0.40207265,10.1400761,9e-08,0.0,0.0,0.0,9e-08,0.0,0.0,0.0,9e-08
1538769537459961440,983,1538769537458946848,base_link,-0.234828104488,-0.294008216096,-0.729817013338,-0.570773209999,1.0,0.0,0.0,0.0,1.0,0.0,0.0,0.0,1.0,-0.125224947929,-0.259024947882,-0.293452948332,1.21846967915e-07,0.0,0.0,0.0,1.21846967915e-07,0.0,0.0,0.0,1.21846967915e-07,0.50013915,0.9218251,12.44463885,9e-08,0.0,0.0,0.0,9e-08,0.0,0.0,0.0,9e-08
1538769537785643584,984,1538769537784470848,base_link,-0.225432758003,-0.2548749268,-0.699214756862,-0.628742846555,1.0,0.0,0.0,0.0,1.0,0.0,0.0,0.0,1.0,-0.354039937258,-0.245914056897,-0.369499057531,1.21846967915e-07,0.0,0.0,0.0,1.21846967915e-07,0.0,0.0,0.0,1.21846967915e-07,0.3530394,1.30428445,11.5914603,9e-08,0.0,0.0,0.0,9e-08,0.0,0.0,0.0,9e-08
1538769538088196704,985,1538769538087690976,base_link,-0.20162055207,-0.224407358364,-0.658771798567,-0.68920984316,1.0,0.0,0.0,0.0,1.0,0.0,0.0,0.0,1.0,-0.209385350347,-0.188658133149,-0.504435539246,1.21846967915e-07,0.0,0.0,0.0,1.21846967915e-07,0.0,0.0,0.0,1.21846967915e-07,0.2745862,1.18660465,12.8663248,9e-08,0.0,0.0,0.0,9e-08,0.0,0.0,0.0,9e-08
1538769538522504544,986,1538769538521294720,base_link,-0.215772777288,-0.186891132372,-0.605632449854,-0.74278068695,1.0,0.0,0.0,0.0,1.0,0.0,0.0,0.0,1.0,-0.187882333994,-0.278674095869,-0.0947377979755,1.21846967915e-07,0.0,0.0,0.0,1.21846967915e-07,0.0,0.0,0.0,1.21846967915e-07,-0.08825985,0.57859235,12.3171524,9e-08,0.0,0.0,0.0,9e-08,0.0,0.0,0.0,9e-08
1538769538880585056,987,1538769538879857312,base_link,-0.185498708359,-0.127614715142,-0.588439118284,-0.77655915277,1.0,0.0,0.0,0.0,1.0,0.0,0.0,0.0,1.0,-0.523340165615,-0.149389430881,-0.241131946445,1.21846967915e-07,0.0,0.0,0.0,1.21846967915e-07,0.0,0.0,0.0,1.21846967915e-07,-0.10787315,1.02969825,11.38552065,9e-08,0.0,0.0,0.0,9e-08,0.0,0.0,0.0,9e-08
1538769539178692256,988,1538769539178331424,base_link,-0.13139819075,-0.0745470249885,-0.565561043727,-0.810751480018,1.0,0.0,0.0,0.0,1.0,0.0,0.0,0.0,1.0,-0.524116754532,-0.0840226411819,-0.242620885372,1.21846967915e-07,0.0,0.0,0.0,1.21846967915e-07,0.0,0.0,0.0,1.21846967915e-07,0.02941995,1.0395049,11.58165365,9e-08,0.0,0.0,0.0,9e-08,0.0,0.0,0.0,9e-08
1538769539592430688,989,1538769539592100192,base_link,-0.0538454944361,-0.0118909359563,-0.53759253345,-0.841399748247,1.0,0.0,0.0,0.0,1.0,0.0,0.0,0.0,1.0,-0.494324207306,-0.0522544980049,-0.0929362922907,1.21846967915e-07,0.0,0.0,0.0,1.21846967915e-07,0.0,0.0,0.0,1.21846967915e-07,-0.196133,0.42168595,11.26784085,9e-08,0.0,0.0,0.0,9e-08,0.0,0.0,0.0,9e-08
1538769539867433248,990,1538769539867007520,base_link,0.00519308917562,0.0288447628347,-0.532659514009,-0.845821998778,1.0,0.0,0.0,0.0,1.0,0.0,0.0,0.0,1.0,-0.483720034361,0.00439035752788,-0.0114971790463,1.21846967915e-07,0.0,0.0,0.0,1.21846967915e-07,0.0,0.0,0.0,1.21846967915e-07,-0.1569064,0.32361945,9.85568325,9e-08,0.0,0.0,0.0,9e-08,0.0,0.0,0.0,9e-08
1538769540260345728,991,1538769540259178720,base_link,0.048892727649,0.0543635887879,-0.53409566737,-0.842256445208,1.0,0.0,0.0,0.0,1.0,0.0,0.0,0.0,1.0,-0.246408328414,0.0277754608542,0.0909376144409,1.21846967915e-07,0.0,0.0,0.0,1.21846967915e-07,0.0,0.0,0.0,1.21846967915e-07,-0.20593965,0.0784532,9.2770909,9e-08,0.0,0.0,0.0,9e-08,0.0,0.0,0.0,9e-08
1538769540822039552,992,1538769540821711200,base_link,0.0659474421358,0.0560968752248,-0.564881120262,-0.820617691399,1.0,0.0,0.0,0.0,1.0,0.0,0.0,0.0,1.0,-0.0442678146064,0.0394250005484,0.0790701210499,1.21846967915e-07,0.0,0.0,0.0,1.21846967915e-07,0.0,0.0,0.0,1.21846967915e-07,-0.1372931,0.38245935,8.67888525,9e-08,0.0,0.0,0.0,9e-08,0.0,0.0,0.0,9e-08
1538769541244247680,993,1538769541243600704,base_link,0.0578216382956,0.0363435511156,-0.574185248401,-0.815871990545,1.0,0.0,0.0,0.0,1.0,0.0,0.0,0.0,1.0,0.567667901516,0.058556213975,0.0130953509361,1.21846967915e-07,0.0,0.0,0.0,1.21846967915e-07,0.0,0.0,0.0,1.21846967915e-07,-0.0196133,0.2157463,10.58137535,9e-08,0.0,0.0,0.0,9e-08,0.0,0.0,0.0,9e-08
1538769541584850464,994,1538769541584571968,base_link,-0.031530760377,-0.0447133261613,-0.573852220988,-0.817129217493,1.0,0.0,0.0,0.0,1.0,0.0,0.0,0.0,1.0,0.535243391991,0.120825834572,-0.129516914487,1.21846967915e-07,0.0,0.0,0.0,1.21846967915e-07,0.0,0.0,0.0,1.21846967915e-07,-0.1765197,0.6276256,5.24655775,9e-08,0.0,0.0,0.0,9e-08,0.0,0.0,0.0,9e-08
1538769541960223296,995,1538769541959705248,base_link,-0.0783410395678,-0.0931089326712,-0.575833230757,-0.808461191729,1.0,0.0,0.0,0.0,1.0,0.0,0.0,0.0,1.0,0.550414443016,0.0449207499623,0.0325234532356,1.21846967915e-07,0.0,0.0,0.0,1.21846967915e-07,0.0,0.0,0.0,1.21846967915e-07,-0.26477955,0.65704555,7.07059465,9e-08,0.0,0.0,0.0,9e-08,0.0,0.0,0.0,9e-08
1538769542352353440,996,1538769542352133152,base_link,-0.130422820596,-0.136345342459,-0.551473856049,-0.812573948359,1.0,0.0,0.0,0.0,1.0,0.0,0.0,0.0,1.0,0.220978945494,-0.0101082101464,-0.190110340714,1.21846967915e-07,0.0,0.0,0.0,1.21846967915e-07,0.0,0.0,0.0,1.21846967915e-07,-0.18632635,0.55897905,8.67888525,9e-08,0.0,0.0,0.0,9e-08,0.0,0.0,0.0,9e-08
1538769542803028224,997,1538769542801426464,base_link,-0.161295604888,-0.150364488506,-0.504628390256,-0.834700207373,1.0,0.0,0.0,0.0,1.0,0.0,0.0,0.0,1.0,0.00695053394884,-0.0810555815697,-0.24091039598,1.21846967915e-07,0.0,0.0,0.0,1.21846967915e-07,0.0,0.0,0.0,1.21846967915e-07,-0.12748645,0.2353596,9.71839015,9e-08,0.0,0.0,0.0,9e-08,0.0,0.0,0.0,9e-08
1538769543215273536,998,1538769543214935712,base_link,-0.236419303596,-0.15771879772,-0.455417105143,-0.843697785985,1.0,0.0,0.0,0.0,1.0,0.0,0.0,0.0,1.0,0.229971200228,-0.270000129938,-0.0764525830746,1.21846967915e-07,0.0,0.0,0.0,1.21846967915e-07,0.0,0.0,0.0,1.21846967915e-07,0.4314926,0.73549875,17.28912395,9e-08,0.0,0.0,0.0,9e-08,0.0,0.0,0.0,9e-08
1538769543657023232,999,1538769543655872640,base_link,-0.271385010117,-0.133211435451,-0.413169966446,-0.859008421714,1.0,0.0,0.0,0.0,1.0,0.0,0.0,0.0,1.0,-0.0455581396818,-0.1817471385,-0.300603151321,1.21846967915e-07,0.0,0.0,0.0,1.21846967915e-07,0.0,0.0,0.0,1.21846967915e-07,0.16671305,1.28467115,12.97419795,9e-08,0.0,0.0,0.0,9e-08,0.0,0.0,0.0,9e-08
1538769543985577632,1000,1538769543985316416,base_link,-0.308237545583,-0.145404133949,-0.343628989861,-0.8750807795,1.0,0.0,0.0,0.0,1.0,0.0,0.0,0.0,1.0,0.379556715488,-0.18535900116,-0.4120439291,1.21846967915e-07,0.0,0.0,0.0,1.21846967915e-07,0.0,0.0,0.0,1.21846967915e-07,-0.0588399,0.67665885,9.63993695,9e-08,0.0,0.0,0.0,9e-08,0.0,0.0,0.0,9e-08
1538769544390713408,1001,1538769544390404736,base_link,-0.34910536024,-0.131115536627,-0.273102126093,-0.886763436453,1.0,0.0,0.0,0.0,1.0,0.0,0.0,0.0,1.0,-0.0197029989213,-0.307502239943,-0.228337734938,1.21846967915e-07,0.0,0.0,0.0,1.21846967915e-07,0.0,0.0,0.0,1.21846967915e-07,0.3334261,0.71588545,11.15016105,9e-08,0.0,0.0,0.0,9e-08,0.0,0.0,0.0,9e-08
1538769544724299232,1002,1538769544723545792,base_link,-0.355478764493,-0.100012422477,-0.214280660599,-0.90427659587,1.0,0.0,0.0,0.0,1.0,0.0,0.0,0.0,1.0,0.105823084712,-0.335439264774,-0.281850278378,1.21846967915e-07,0.0,0.0,0.0,1.21846967915e-07,0.0,0.0,0.0,1.21846967915e-07,0.3334261,0.91201845,12.6898051,9e-08,0.0,0.0,0.0,9e-08,0.0,0.0,0.0,9e-08
1538769545166577568,1003,1538769545164194208,base_link,-0.378841641427,-0.0516954557599,-0.129448035585,-0.91490425546,1.0,0.0,0.0,0.0,1.0,0.0,0.0,0.0,1.0,0.0877591073513,-0.350354343653,-0.24599070847,1.21846967915e-07,0.0,0.0,0.0,1.21846967915e-07,0.0,0.0,0.0,1.21846967915e-07,0.8433719,0.7649187,16.62227175,9e-08,0.0,0.0,0.0,9e-08,0.0,0.0,0.0,9e-08
1538769545478631744,1004,1538769545478265536,base_link,-0.385048638137,-0.0183794906097,-0.0746180207715,-0.919691193591,1.0,0.0,0.0,0.0,1.0,0.0,0.0,0.0,1.0,-0.112024068832,-0.343120932579,-0.274745315313,1.21846967915e-07,0.0,0.0,0.0,1.21846967915e-07,0.0,0.0,0.0,1.21846967915e-07,0.6472389,1.14737805,14.4550021,9e-08,0.0,0.0,0.0,9e-08,0.0,0.0,0.0,9e-08
1538769545886403968,1005,1538769545886114496,base_link,-0.382615789804,0.0203861916891,0.0146648298155,-0.923566187854,1.0,0.0,0.0,0.0,1.0,0.0,0.0,0.0,1.0,-0.0265519078821,-0.28976342082,-0.364018172026,1.21846967915e-07,0.0,0.0,0.0,1.21846967915e-07,0.0,0.0,0.0,1.21846967915e-07,0.6080123,1.10815145,12.5917386,9e-08,0.0,0.0,0.0,9e-08,0.0,0.0,0.0,9e-08
1538769546185733440,1006,1538769546185077728,base_link,-0.366022295984,0.0449835897758,0.0838828606273,-0.925725564726,1.0,0.0,0.0,0.0,1.0,0.0,0.0,0.0,1.0,-0.243481621146,-0.33720690012,-0.288833856583,1.21846967915e-07,0.0,0.0,0.0,1.21846967915e-07,0.0,0.0,0.0,1.21846967915e-07,0.8041453,0.71588545,14.0823494,9e-08,0.0,0.0,0.0,9e-08,0.0,0.0,0.0,9e-08
1538769546559738976,1007,1538769546559534976,base_link,-0.350890852742,0.0744888747924,0.161311382912,-0.91940505477,1.0,0.0,0.0,0.0,1.0,0.0,0.0,0.0,1.0,-0.360997706652,-0.309846103191,-0.308875918388,1.21846967915e-07,0.0,0.0,0.0,1.21846967915e-07,0.0,0.0,0.0,1.21846967915e-07,0.46091255,0.91201845,10.95402805,9e-08,0.0,0.0,0.0,9e-08,0.0,0.0,0.0,9e-08
1538769547031195488,1008,1538769547030924224,base_link,-0.311438901975,0.0908647659681,0.265244515578,-0.907961866819,1.0,0.0,0.0,0.0,1.0,0.0,0.0,0.0,1.0,0.153362736106,-0.280002981424,-0.369533568621,1.21846967915e-07,0.0,0.0,0.0,1.21846967915e-07,0.0,0.0,0.0,1.21846967915e-07,0.1176798,0.3530394,12.73883835,9e-08,0.0,0.0,0.0,9e-08,0.0,0.0,0.0,9e-08
1538769547393151648,1009,1538769547392841312,base_link,-0.251609633437,0.108165136189,0.323182625124,-0.905839879059,1.0,0.0,0.0,0.0,1.0,0.0,0.0,0.0,1.0,-0.301162302494,-0.239043831825,-0.252536922693,1.21846967915e-07,0.0,0.0,0.0,1.21846967915e-07,0.0,0.0,0.0,1.21846967915e-07,0.2353596,0.9218251,13.7881499,9e-08,0.0,0.0,0.0,9e-08,0.0,0.0,0.0,9e-08
1538769547815152000,1010,1538769547813950592,base_link,-0.18694219073,0.113049727412,0.381944293065,-0.89799272461,1.0,0.0,0.0,0.0,1.0,0.0,0.0,0.0,1.0,-0.348513126373,-0.16323658824,-0.17572055757,1.21846967915e-07,0.0,0.0,0.0,1.21846967915e-07,0.0,0.0,0.0,1.21846967915e-07,-0.0784532,0.53936575,12.93497135,9e-08,0.0,0.0,0.0,9e-08,0.0,0.0,0.0,9e-08
1538769548310974304,1011,1538769548310649984,base_link,-0.0703484277844,0.0825288422905,0.414942918588,-0.903361756558,1.0,0.0,0.0,0.0,1.0,0.0,0.0,0.0,1.0,-0.616950213909,0.00257059885189,-0.0469978526235,1.21846967915e-07,0.0,0.0,0.0,1.21846967915e-07,0.0,0.0,0.0,1.21846967915e-07,-0.3334261,0.7256921,11.07170785,9e-08,0.0,0.0,0.0,9e-08,0.0,0.0,0.0,9e-08
1538769548760232160,1012,1538769548759773568,base_link,0.00435721733853,0.0270400404153,0.43664942823,-0.899214728359,1.0,0.0,0.0,0.0,1.0,0.0,0.0,0.0,1.0,-0.183555722237,0.0848824083805,-0.111666828394,1.21846967915e-07,0.0,0.0,0.0,1.21846967915e-07,0.0,0.0,0.0,1.21846967915e-07,-0.55897905,0.4118793,8.65927195,9e-08,0.0,0.0,0.0,9e-08,0.0,0.0,0.0,9e-08
1538769549128423520,1013,1538769549127922496,base_link,0.0293237862514,-0.0037182427335,0.444802029217,-0.895141019636,1.0,0.0,0.0,0.0,1.0,0.0,0.0,0.0,1.0,-0.123469248414,0.0757679268718,0.0595468953252,1.21846967915e-07,0.0,0.0,0.0,1.21846967915e-07,0.0,0.0,0.0,1.21846967915e-07,-0.65704555,-0.0588399,8.825985,9e-08,0.0,0.0,0.0,9e-08,0.0,0.0,0.0,9e-08
1538769549450082912,1014,1538769549449821728,base_link,0.04273137576,-0.0225696041342,0.424573307509,-0.904102952681,1.0,0.0,0.0,0.0,1.0,0.0,0.0,0.0,1.0,0.0381749309599,0.0734866335988,0.127391934395,1.21846967915e-07,0.0,0.0,0.0,1.21846967915e-07,0.0,0.0,0.0,1.21846967915e-07,-0.6276256,0.0980665,8.99269805,9e-08,0.0,0.0,0.0,9e-08,0.0,0.0,0.0,9e-08
1538769549713700992,1015,1538769549713172032,base_link,0.0315511815634,-0.0304183641441,0.404816485096,-0.913347064078,1.0,0.0,0.0,0.0,1.0,0.0,0.0,0.0,1.0,-0.0226705726236,0.0994282960892,0.155876383185,1.21846967915e-07,0.0,0.0,0.0,1.21846967915e-07,0.0,0.0,0.0,1.21846967915e-07,-0.48052585,0.5687857,7.5707338,9e-08,0.0,0.0,0.0,9e-08,0.0,0.0,0.0,9e-08
1538769550131555264,1016,1538769550130760160,base_link,0.0757667428525,-0.0759216524854,0.399596905305,-0.910394209468,1.0,0.0,0.0,0.0,1.0,0.0,0.0,0.0,1.0,-0.0907064154744,0.0927369520068,-0.12320125103,1.21846967915e-07,0.0,0.0,0.0,1.21846967915e-07,0.0,0.0,0.0,1.21846967915e-07,-0.5295591,0.50013915,7.256921,9e-08,0.0,0.0,0.0,9e-08,0.0,0.0,0.0,9e-08
1538769550500424768,1017,1538769550500207744,base_link,0.0602543169072,-0.0753017302598,0.409573102268,-0.907165332568,1.0,0.0,0.0,0.0,1.0,0.0,0.0,0.0,1.0,0.0988663509488,0.0112154157832,0.069169446826,1.21846967915e-07,0.0,0.0,0.0,1.21846967915e-07,0.0,0.0,0.0,1.21846967915e-07,-0.48052585,-0.0196133,8.7475318,9e-08,0.0,0.0,0.0,9e-08,0.0,0.0,0.0,9e-08
1538769550996318880,1018,1538769550993489440,base_link,0.0463912398968,-0.0621199959215,0.37091778715,-0.925423661975,1.0,0.0,0.0,0.0,1.0,0.0,0.0,0.0,1.0,0.164548516273,-0.0207627955824,0.19905179739,1.21846967915e-07,0.0,0.0,0.0,1.21846967915e-07,0.0,0.0,0.0,1.21846967915e-07,-0.32361945,0.1176798,11.571847,9e-08,0.0,0.0,0.0,9e-08,0.0,0.0,0.0,9e-08
1538769551386917504,1019,1538769551386271904,base_link,0.0532071230536,-0.0577006913298,0.335238346103,-0.938858287271,1.0,0.0,0.0,0.0,1.0,0.0,0.0,0.0,1.0,-0.387577861547,-0.0403150096536,0.164852052927,1.21846967915e-07,0.0,0.0,0.0,1.21846967915e-07,0.0,0.0,0.0,1.21846967915e-07,-0.3138128,0.5295591,10.395049,9e-08,0.0,0.0,0.0,9e-08,0.0,0.0,0.0,9e-08
1538769551794448896,1020,1538769551794081728,base_link,0.0442831702108,-0.0514381871384,0.321063307178,-0.944622393618,1.0,0.0,0.0,0.0,1.0,0.0,0.0,0.0,1.0,0.328086644411,-0.0332278423011,0.0430409424007,1.21846967915e-07,0.0,0.0,0.0,1.21846967915e-07,0.0,0.0,0.0,1.21846967915e-07,-0.36284605,0.2549729,10.1400761,9e-08,0.0,0.0,0.0,9e-08,0.0,0.0,0.0,9e-08
1538769552101657088,1021,1538769552101288416,base_link,0.00951564101596,-0.0302553987235,0.312470243331,-0.949397919977,1.0,0.0,0.0,0.0,1.0,0.0,0.0,0.0,1.0,0.224057435989,-0.0556087344885,0.0859210416675,1.21846967915e-07,0.0,0.0,0.0,1.21846967915e-07,0.0,0.0,0.0,1.21846967915e-07,-0.04903325,0.4511059,12.7682583,9e-08,0.0,0.0,0.0,9e-08,0.0,0.0,0.0,9e-08
1538769552563480832,1022,1538769552563173120,base_link,-0.0068920193446,-0.0190418276581,0.301454953444,-0.953265346015,1.0,0.0,0.0,0.0,1.0,0.0,0.0,0.0,1.0,0.0723989903927,-0.0202790461481,-0.0199313499033,1.21846967915e-07,0.0,0.0,0.0,1.21846967915e-07,0.0,0.0,0.0,1.21846967915e-07,-0.14709975,0.7256921,11.07170785,9e-08,0.0,0.0,0.0,9e-08,0.0,0.0,0.0,9e-08
1538769552890657568,1023,1538769552890178432,base_link,-0.0391604442063,-0.00911560846373,0.319558859773,-0.946712997921,1.0,0.0,0.0,0.0,1.0,0.0,0.0,0.0,1.0,0.222934961319,0.00451804697514,-0.148226886988,1.21846967915e-07,0.0,0.0,0.0,1.21846967915e-07,0.0,0.0,0.0,1.21846967915e-07,-0.196133,0.50013915,9.54187045,9e-08,0.0,0.0,0.0,9e-08,0.0,0.0,0.0,9e-08
1538769553314720256,1024,1538769553314404992,base_link,-0.0749581725284,0.00446386802757,0.33968144305,-0.937538193089,1.0,0.0,0.0,0.0,1.0,0.0,0.0,0.0,1.0,0.132839143276,-0.0360383987427,-0.0638627484441,1.21846967915e-07,0.0,0.0,0.0,1.21846967915e-07,0.0,0.0,0.0,1.21846967915e-07,-0.26477955,0.20593965,7.84532,9e-08,0.0,0.0,0.0,9e-08,0.0,0.0,0.0,9e-08
1538769553679440928,1025,1538769553679008800,base_link,-0.0712059179686,0.0124581257531,0.341708164618,-0.937021900802,1.0,0.0,0.0,0.0,1.0,0.0,0.0,0.0,1.0,-0.0223173834383,-0.0486089885235,0.0249708537012,1.21846967915e-07,0.0,0.0,0.0,1.21846967915e-07,0.0,0.0,0.0,1.21846967915e-07,-0.04903325,0.53936575,12.01314625,9e-08,0.0,0.0,0.0,9e-08,0.0,0.0,0.0,9e-08
1538769553988804224,1026,1538769553987760992,base_link,-0.0483725973061,-0.000351923657134,0.358293492149,-0.932354943926,1.0,0.0,0.0,0.0,1.0,0.0,0.0,0.0,1.0,-0.347369283438,0.0151895852759,-0.189563304186,1.21846967915e-07,0.0,0.0,0.0,1.21846967915e-07,0.0,0.0,0.0,1.21846967915e-07,-0.196133,0.77472535,9.6301303,9e-08,0.0,0.0,0.0,9e-08,0.0,0.0,0.0,9e-08
1538769554385991872,1027,1538769554384471744,base_link,-0.0580041763393,0.000626316436647,0.384533077169,-0.921286836885,1.0,0.0,0.0,0.0,1.0,0.0,0.0,0.0,1.0,0.461383014917,0.00671616662294,-0.0274942517281,1.21846967915e-07,0.0,0.0,0.0,1.21846967915e-07,0.0,0.0,0.0,1.21846967915e-07,-0.0588399,-0.0980665,9.7478101,9e-08,0.0,0.0,0.0,9e-08,0.0,0.0,0.0,9e-08
1538769554807100128,1028,1538769554806708896,base_link,-0.0408637788974,0.00168929908297,0.367919967871,-0.928957585191,1.0,0.0,0.0,0.0,1.0,0.0,0.0,0.0,1.0,-0.475652545691,-0.061461314559,0.053366035223,1.21846967915e-07,0.0,0.0,0.0,1.21846967915e-07,0.0,0.0,0.0,1.21846967915e-07,0.1765197,0.85317855,11.6699135,9e-08,0.0,0.0,0.0,9e-08,0.0,0.0,0.0,9e-08
1538769555323665408,1029,1538769555323350944,base_link,-0.0173732504035,-0.00162377922185,0.383872658721,-0.923221162776,1.0,0.0,0.0,0.0,1.0,0.0,0.0,0.0,1.0,0.0626282691956,-0.0502044185996,0.00336270639673,1.21846967915e-07,0.0,0.0,0.0,1.21846967915e-07,0.0,0.0,0.0,1.21846967915e-07,0.1765197,0.02941995,10.3558224,9e-08,0.0,0.0,0.0,9e-08,0.0,0.0,0.0,9e-08
1538769555629976992,1030,1538769555629667584,base_link,-0.0232876817118,0.0135929213816,0.369292653811,-0.928921876268,1.0,0.0,0.0,0.0,1.0,0.0,0.0,0.0,1.0,-0.00919425860047,-0.0706192031503,0.156843245029,1.21846967915e-07,0.0,0.0,0.0,1.21846967915e-07,0.0,0.0,0.0,1.21846967915e-07,0.0392266,0.34323275,10.52253545,9e-08,0.0,0.0,0.0,9e-08,0.0,0.0,0.0,9e-08
1538769555926286400,1031,1538769555925849120,base_link,-0.0035576139716,0.01981122295,0.356944088915,-0.933908869332,1.0,0.0,0.0,0.0,1.0,0.0,0.0,0.0,1.0,-0.0940593481064,-0.0579145029187,-0.00239340169355,1.21846967915e-07,0.0,0.0,0.0,1.21846967915e-07,0.0,0.0,0.0,1.21846967915e-07,0.08825985,0.6668522,10.787315,9e-08,0.0,0.0,0.0,9e-08,0.0,0.0,0.0,9e-08
1538769556334606240,1032,1538769556334141472,base_link,0.0037925380838,0.0277277642682,0.365866548462,-0.930246449313,1.0,0.0,0.0,0.0,1.0,0.0,0.0,0.0,1.0,0.025924436748,-0.0555469207466,-0.0369625501335,1.21846967915e-07,0.0,0.0,0.0,1.21846967915e-07,0.0,0.0,0.0,1.21846967915e-07,0.20593965,0.18632635,10.93441475,9e-08,0.0,0.0,0.0,9e-08,0.0,0.0,0.0,9e-08
1538769556705420672,1033,1538769556705077792,base_link,-0.0220657077192,0.0468003489037,0.352514285871,-0.934374930176,1.0,0.0,0.0,0.0,1.0,0.0,0.0,0.0,1.0,0.250428140163,-0.0300855152309,0.151281937957,1.21846967915e-07,0.0,0.0,0.0,1.21846967915e-07,0.0,0.0,0.0,1.21846967915e-07,0.3334261,0.392266,11.8660465,9e-08,0.0,0.0,0.0,9e-08,0.0,0.0,0.0,9e-08
1538769557037975232,1034,1538769557037677632,base_link,-0.013296928483,0.0428890660818,0.335402677314,-0.941004125259,1.0,0.0,0.0,0.0,1.0,0.0,0.0,0.0,1.0,-0.0785712078214,0.06630179286,-0.00656991638243,1.21846967915e-07,0.0,0.0,0.0,1.21846967915e-07,0.0,0.0,0.0,1.21846967915e-07,0.1765197,0.784532,10.67944185,9e-08,0.0,0.0,0.0,9e-08,0.0,0.0,0.0,9e-08
1538769557499432352,1035,1538769557499158976,base_link,-0.0124044403655,0.026904069757,0.350017863332,-0.936274423574,1.0,0.0,0.0,0.0,1.0,0.0,0.0,0.0,1.0,0.054089538753,0.0709354579449,-0.0459449365735,1.21846967915e-07,0.0,0.0,0.0,1.21846967915e-07,0.0,0.0,0.0,1.21846967915e-07,0.0196133,0.2549729,8.89463155,9e-08,0.0,0.0,0.0,9e-08,0.0,0.0,0.0,9e-08
1538769557895358720,1036,1538769557895082784,base_link,-0.0400502538397,0.0241280966034,0.350967267822,-0.935219647483,1.0,0.0,0.0,0.0,1.0,0.0,0.0,0.0,1.0,0.0612975172698,0.0530546009541,-0.0264007523656,1.21846967915e-07,0.0,0.0,0.0,1.21846967915e-07,0.0,0.0,0.0,1.21846967915e-07,-0.196133,0.53936575,9.16921775,9e-08,0.0,0.0,0.0,9e-08,0.0,0.0,0.0,9e-08
1538769558266336672,1037,1538769558265998432,base_link,-0.0419093379268,0.00944892263787,0.357202838255,-0.933038293747,1.0,0.0,0.0,0.0,1.0,0.0,0.0,0.0,1.0,-0.046392519027,0.0763850361109,-0.064812913537,1.21846967915e-07,0.0,0.0,0.0,1.21846967915e-07,0.0,0.0,0.0,1.21846967915e-07,-0.1176798,0.42168595,7.99241975,9e-08,0.0,0.0,0.0,9e-08,0.0,0.0,0.0,9e-08
1538769558701862944,1038,1538769558701540256,base_link,-0.0501428081208,0.00334509056732,0.358223797745,-0.932282264066,1.0,0.0,0.0,0.0,1.0,0.0,0.0,0.0,1.0,0.0501324608922,0.023778680712,0.0428808033466,1.21846967915e-07,0.0,0.0,0.0,1.21846967915e-07,0.0,0.0,0.0,1.21846967915e-07,-0.0980665,0.3530394,9.05153795,9e-08,0.0,0.0,0.0,9e-08,0.0,0.0,0.0,9e-08
1538769559099863296,1039,1538769559099600736,base_link,-0.0485315814972,-0.00294389471285,0.359039596638,-0.932055034388,1.0,0.0,0.0,0.0,1.0,0.0,0.0,0.0,1.0,0.00737567618489,0.0384614281356,-0.0484061986208,1.21846967915e-07,0.0,0.0,0.0,1.21846967915e-07,0.0,0.0,0.0,1.21846967915e-07,-0.0784532,0.6276256,8.9436648,9e-08,0.0,0.0,0.0,9e-08,0.0,0.0,0.0,9e-08
1538769559600889248,1040,1538769559600689408,base_link,-0.0313415596197,-0.0126393730205,0.376872732611,-0.925648365366,1.0,0.0,0.0,0.0,1.0,0.0,0.0,0.0,1.0,-0.248137846589,-0.00866691488773,0.0116305211559,1.21846967915e-07,0.0,0.0,0.0,1.21846967915e-07,0.0,0.0,0.0,1.21846967915e-07,0.0,0.3726527,9.87529655,9e-08,0.0,0.0,0.0,9e-08,0.0,0.0,0.0,9e-08
1538769559897758752,1041,1538769559897504320,base_link,-0.00639845576514,-0.0228058753408,0.372069182105,-0.927902729569,1.0,0.0,0.0,0.0,1.0,0.0,0.0,0.0,1.0,0.0134402932599,0.00242034625262,0.0257507450879,1.21846967915e-07,0.0,0.0,0.0,1.21846967915e-07,0.0,0.0,0.0,1.21846967915e-07,0.0,0.4511059,9.73800345,9e-08,0.0,0.0,0.0,9e-08,0.0,0.0,0.0,9e-08
1538769560338680032,1042,1538769560338243200,base_link,-0.0018353003112,-0.0206987908629,0.367606582792,-0.929749209205,1.0,0.0,0.0,0.0,1.0,0.0,0.0,0.0,1.0,-0.0329164713621,-0.0399480760098,-0.0136824175715,1.21846967915e-07,0.0,0.0,0.0,1.21846967915e-07,0.0,0.0,0.0,1.21846967915e-07,-0.00980665,0.55897905,10.9049948,9e-08,0.0,0.0,0.0,9e-08,0.0,0.0,0.0,9e-08
1538769560722950080,1043,1538769560722682816,base_link,-0.0164245866106,-0.00610128904632,0.3675445364,-0.929840857883,1.0,0.0,0.0,0.0,1.0,0.0,0.0,0.0,1.0,0.0626858174801,-0.0476603209972,0.0238958504051,1.21846967915e-07,0.0,0.0,0.0,1.21846967915e-07,0.0,0.0,0.0,1.21846967915e-07,0.1176798,0.4511059,10.2577559,9e-08,0.0,0.0,0.0,9e-08,0.0,0.0,0.0,9e-08
1538769560985446528,1044,1538769560985115584,base_link,-0.0172080402415,-0.000387986462611,0.366517976191,-0.930251743318,1.0,0.0,0.0,0.0,1.0,0.0,0.0,0.0,1.0,0.0130195710808,-0.0351452976465,-0.0165962763131,1.21846967915e-07,0.0,0.0,0.0,1.21846967915e-07,0.0,0.0,0.0,1.21846967915e-07,0.0980665,0.50013915,10.5127288,9e-08,0.0,0.0,0.0,9e-08,0.0,0.0,0.0,9e-08
1538769561508739456,1045,1538769561508397408,base_link,-0.0116479546523,0.00650092352148,0.374296645068,-0.927213074021,1.0,0.0,0.0,0.0,1.0,0.0,0.0,0.0,1.0,0.00510897859931,-0.0268452130258,-0.0425962284207,1.21846967915e-07,0.0,0.0,0.0,1.21846967915e-07,0.0,0.0,0.0,1.21846967915e-07,0.16671305,0.40207265,10.20872265,9e-08,0.0,0.0,0.0,9e-08,0.0,0.0,0.0,9e-08
1538769561866374016,1046,1538769561865915904,base_link,-0.0345465192455,0.0230061265481,0.377455752632,-0.925096973811,1.0,0.0,0.0,0.0,1.0,0.0,0.0,0.0,1.0,0.304383546114,-0.0515166297555,-0.0151833537966,1.21846967915e-07,0.0,0.0,0.0,1.21846967915e-07,0.0,0.0,0.0,1.21846967915e-07,0.24516625,0.26477955,10.44408225,9e-08,0.0,0.0,0.0,9e-08,0.0,0.0,0.0,9e-08
1538769562372380512,1047,1538769562371764320,base_link,-0.0347976335264,0.0309574298781,0.369767501523,-0.927956225828,1.0,0.0,0.0,0.0,1.0,0.0,0.0,0.0,1.0,-0.11776445806,0.0151265989989,0.0013022031635,1.21846967915e-07,0.0,0.0,0.0,1.21846967915e-07,0.0,0.0,0.0,1.21846967915e-07,0.2353596,0.5491724,9.4928372,9e-08,0.0,0.0,0.0,9e-08,0.0,0.0,0.0,9e-08
1538769562793985312,1048,1538769562793656192,base_link,-0.0222397400024,0.0176245699864,0.375247874931,-0.926490043582,1.0,0.0,0.0,0.0,1.0,0.0,0.0,0.0,1.0,-0.015045683831,0.0128415226936,-0.0343047305942,1.21846967915e-07,0.0,0.0,0.0,1.21846967915e-07,0.0,0.0,0.0,1.21846967915e-07,0.26477955,0.4118793,9.2378643,9e-08,0.0,0.0,0.0,9e-08,0.0,0.0,0.0,9e-08
1538769563241112768,1049,1538769563240729760,base_link,-0.0286194607901,0.0209291186073,0.374622495971,-0.926499262801,1.0,0.0,0.0,0.0,1.0,0.0,0.0,0.0,1.0,0.0259901173413,-0.00613271817565,0.038168836385,1.21846967915e-07,0.0,0.0,0.0,1.21846967915e-07,0.0,0.0,0.0,1.21846967915e-07,0.3334261,0.38245935,10.13026945,9e-08,0.0,0.0,0.0,9e-08,0.0,0.0,0.0,9e-08
1538769563524764960,1050,1538769563524464288,base_link,-0.0270547155628,0.0210451638771,0.368199148021,-0.929114917995,1.0,0.0,0.0,0.0,1.0,0.0,0.0,0.0,1.0,-0.0892408639193,0.00252731190994,0.0221695192158,1.21846967915e-07,0.0,0.0,0.0,1.21846967915e-07,0.0,0.0,0.0,1.21846967915e-07,0.3726527,0.5099458,10.32640245,9e-08,0.0,0.0,0.0,9e-08,0.0,0.0,0.0,9e-08
1538769563873326080,1051,1538769563872154720,base_link,-0.0203663352591,0.0174529018247,0.366170681422,-0.930161083186,1.0,0.0,0.0,0.0,1.0,0.0,0.0,0.0,1.0,0.018759470433,-0.00146142393351,-0.00298888748512,1.21846967915e-07,0.0,0.0,0.0,1.21846967915e-07,0.0,0.0,0.0,1.21846967915e-07,0.32361945,0.55897905,10.4538889,9e-08,0.0,0.0,0.0,9e-08,0.0,0.0,0.0,9e-08
1538769564228573344,1052,1538769564228307872,base_link,-0.0195755145419,0.017450399501,0.365552003259,-0.930421418337,1.0,0.0,0.0,0.0,1.0,0.0,0.0,0.0,1.0,0.00162497535348,0.000798430293798,0.0011841095984,1.21846967915e-07,0.0,0.0,0.0,1.21846967915e-07,0.0,0.0,0.0,1.21846967915e-07,0.2745862,0.5491724,9.7281968,9e-08,0.0,0.0,0.0,9e-08,0.0,0.0,0.0,9e-08
1538769564564862496,1053,1538769564564353088,base_link,-0.0245076210438,0.0186838897468,0.366631898688,-0.929855547727,1.0,0.0,0.0,0.0,1.0,0.0,0.0,0.0,1.0,0.0532179921865,0.00549994874746,-0.0264227204025,1.21846967915e-07,0.0,0.0,0.0,1.21846967915e-07,0.0,0.0,0.0,1.21846967915e-07,0.2353596,0.4707192,9.65955025,9e-08,0.0,0.0,0.0,9e-08,0.0,0.0,0.0,9e-08
1538769565003976512,1054,1538769565003208992,base_link,-0.025328818368,0.0227994813082,0.371401376873,-0.92784678254,1.0,0.0,0.0,0.0,1.0,0.0,0.0,0.0,1.0,-0.0254976414144,-0.0306299030781,-0.0418356396258,1.21846967915e-07,0.0,0.0,0.0,1.21846967915e-07,0.0,0.0,0.0,1.21846967915e-07,0.38245935,0.5099458,10.8853815,9e-08,0.0,0.0,0.0,9e-08,0.0,0.0,0.0,9e-08
1538769565407889632,1055,1538769565404602944,base_link,-0.0304588357874,0.0308996653793,0.370707084773,-0.927735806844,1.0,0.0,0.0,0.0,1.0,0.0,0.0,0.0,1.0,0.00123265199363,-0.0429202392697,0.0445954278111,1.21846967915e-07,0.0,0.0,0.0,1.21846967915e-07,0.0,0.0,0.0,1.21846967915e-07,0.34323275,0.3334261,10.2381426,9e-08,0.0,0.0,0.0,9e-08,0.0,0.0,0.0,9e-08
1538769565739032352,1056,1538769565738744096,base_link,-0.0231464556061,0.0351212738547,0.35935234351,-0.932253522884,1.0,0.0,0.0,0.0,1.0,0.0,0.0,0.0,1.0,-0.0618704371154,-0.021735213697,0.0526392236352,1.21846967915e-07,0.0,0.0,0.0,1.21846967915e-07,0.0,0.0,0.0,1.21846967915e-07,0.4314926,0.6472389,10.6892485,9e-08,0.0,0.0,0.0,9e-08,0.0,0.0,0.0,9e-08
1538769566097528704,1057,1538769566096490176,base_link,-0.00666795574055,0.0256966359342,0.360009627938,-0.932570795736,1.0,0.0,0.0,0.0,1.0,0.0,0.0,0.0,1.0,-0.120896600187,0.0434051379561,-0.0748749151826,1.21846967915e-07,0.0,0.0,0.0,1.21846967915e-07,0.0,0.0,0.0,1.21846967915e-07,0.392266,0.67665885,9.95374975,9e-08,0.0,0.0,0.0,9e-08,0.0,0.0,0.0,9e-08
1538769566498312864,1058,1538769566497921824,base_link,0.0122327753792,0.0109079979435,0.368903709826,-0.929323101867,1.0,0.0,0.0,0.0,1.0,0.0,0.0,0.0,1.0,-0.152419671416,0.0180258527398,0.0226581431925,1.21846967915e-07,0.0,0.0,0.0,1.21846967915e-07,0.0,0.0,0.0,1.21846967915e-07,0.3726527,0.2941995,9.1005712,9e-08,0.0,0.0,0.0,9e-08,0.0,0.0,0.0,9e-08
1538769566824878496,1059,1538769566824627136,base_link,0.0422276486837,-0.00162821081065,0.357841413682,-0.932825652129,1.0,0.0,0.0,0.0,1.0,0.0,0.0,0.0,1.0,-0.247253164649,-0.0203992202878,0.0802665576339,1.21846967915e-07,0.0,0.0,0.0,1.21846967915e-07,0.0,0.0,0.0,1.21846967915e-07,0.2941995,0.4314926,9.60071035,9e-08,0.0,0.0,0.0,9e-08,0.0,0.0,0.0,9e-08
1538769567247094016,1060,1538769567246624288,base_link,0.0926082507247,-0.0159257575139,0.340028139984,-0.935708793463,1.0,0.0,0.0,0.0,1.0,0.0,0.0,0.0,1.0,-0.177963316441,-0.0225619226694,0.0803828909993,1.21846967915e-07,0.0,0.0,0.0,1.21846967915e-07,0.0,0.0,0.0,1.21846967915e-07,0.46091255,0.4118793,10.28717585,9e-08,0.0,0.0,0.0,9e-08,0.0,0.0,0.0,9e-08
1538769567658850016,1061,1538769567658453600,base_link,0.125854841405,-0.0189194028654,0.31227738724,-0.941427346378,1.0,0.0,0.0,0.0,1.0,0.0,0.0,0.0,1.0,-0.179215937853,-0.085042655468,0.207771331072,1.21846967915e-07,0.0,0.0,0.0,1.21846967915e-07,0.0,0.0,0.0,1.21846967915e-07,0.5687857,0.2549729,11.179581,9e-08,0.0,0.0,0.0,9e-08,0.0,0.0,0.0,9e-08
1538769568157535936,1062,1538769568157257056,base_link,0.179988485311,-0.0224459187417,0.253401637861,-0.950204154809,1.0,0.0,0.0,0.0,1.0,0.0,0.0,0.0,1.0,-0.205989867449,-0.0994379743934,0.226286679506,1.21846967915e-07,0.0,0.0,0.0,1.21846967915e-07,0.0,0.0,0.0,1.21846967915e-07,0.6276256,0.40207265,10.7284751,9e-08,0.0,0.0,0.0,9e-08,0.0,0.0,0.0,9e-08
1538769568585770752,1063,1538769568582860480,base_link,0.203581655769,-0.0185037186598,0.202516149329,-0.95770524228,1.0,0.0,0.0,0.0,1.0,0.0,0.0,0.0,1.0,-0.0518920868635,-0.103356301785,0.248397290707,1.21846967915e-07,0.0,0.0,0.0,1.21846967915e-07,0.0,0.0,0.0,1.21846967915e-07,0.51975245,0.0588399,9.610517,9e-08,0.0,0.0,0.0,9e-08,0.0,0.0,0.0,9e-08
1538769568859873120,1064,1538769568859597312,base_link,0.232702186353,-0.0109676116615,0.153058291449,-0.960365848716,1.0,0.0,0.0,0.0,1.0,0.0,0.0,0.0,1.0,-0.247820466757,-0.216956093907,0.387087643147,1.21846967915e-07,0.0,0.0,0.0,1.21846967915e-07,0.0,0.0,0.0,1.21846967915e-07,0.81395195,0.14709975,12.6898051,9e-08,0.0,0.0,0.0,9e-08,0.0,0.0,0.0,9e-08
1538769569181024032,1065,1538769569180506240,base_link,0.266648873937,-0.00183316433303,0.0818110830037,-0.960313471859,1.0,0.0,0.0,0.0,1.0,0.0,0.0,0.0,1.0,-0.197763517499,-0.224918857217,0.350312530994,1.21846967915e-07,0.0,0.0,0.0,1.21846967915e-07,0.0,0.0,0.0,1.21846967915e-07,0.5099458,0.71588545,11.2384209,9e-08,0.0,0.0,0.0,9e-08,0.0,0.0,0.0,9e-08
1538769569590585376,1066,1538769569589253152,base_link,0.288738510676,0.0363947991951,0.0171516436838,-0.95656223643,1.0,0.0,0.0,0.0,1.0,0.0,0.0,0.0,1.0,-0.0482043176889,-0.263899952173,0.268764197826,1.21846967915e-07,0.0,0.0,0.0,1.21846967915e-07,0.0,0.0,0.0,1.21846967915e-07,0.67665885,0.1372931,13.2585908,9e-08,0.0,0.0,0.0,9e-08,0.0,0.0,0.0,9e-08
1538769569980870816,1067,1538769569980159936,base_link,0.327895964155,0.065102843688,-0.0643437162005,-0.94026897355,1.0,0.0,0.0,0.0,1.0,0.0,0.0,0.0,1.0,-0.444601714611,-0.289664745331,0.443327903748,1.21846967915e-07,0.0,0.0,0.0,1.21846967915e-07,0.0,0.0,0.0,1.21846967915e-07,0.87279185,-0.53936575,11.75817335,9e-08,0.0,0.0,0.0,9e-08,0.0,0.0,0.0,9e-08
1538769570378091648,1068,1538769570375458688,base_link,0.342606572127,0.0893524457251,-0.184098183629,-0.916921335755,1.0,0.0,0.0,0.0,1.0,0.0,0.0,0.0,1.0,0.0309114828706,-0.349912166595,0.570978105068,1.21846967915e-07,0.0,0.0,0.0,1.21846967915e-07,0.0,0.0,0.0,1.21846967915e-07,1.1375714,0.0196133,13.05265115,9e-08,0.0,0.0,0.0,9e-08,0.0,0.0,0.0,9e-08
1538769570777043168,1069,1538769570775806560,base_link,0.339748811322,0.125186142197,-0.290758793013,-0.88564016355,1.0,0.0,0.0,0.0,1.0,0.0,0.0,0.0,1.0,-0.0427639186382,-0.387984335423,0.354443699121,1.21846967915e-07,0.0,0.0,0.0,1.21846967915e-07,0.0,0.0,0.0,1.21846967915e-07,1.02969825,0.22555295,13.09187775,9e-08,0.0,0.0,0.0,9e-08,0.0,0.0,0.0,9e-08
1538769571206779136,1070,1538769571206375168,base_link,0.31604183353,0.169153462241,-0.379729588717,-0.852824779848,1.0,0.0,0.0,0.0,1.0,0.0,0.0,0.0,1.0,0.199671685696,-0.388108313084,0.327624887228,1.21846967915e-07,0.0,0.0,0.0,1.21846967915e-07,0.0,0.0,0.0,1.21846967915e-07,1.2552512,0.24516625,13.7096967,9e-08,0.0,0.0,0.0,9e-08,0.0,0.0,0.0,9e-08
1538769571644340416,1071,1538769571644112512,base_link,0.302365115009,0.215977871498,-0.465418500112,-0.803314705456,1.0,0.0,0.0,0.0,1.0,0.0,0.0,0.0,1.0,0.307923227549,-0.358325332403,0.2991527915,1.21846967915e-07,0.0,0.0,0.0,1.21846967915e-07,0.0,0.0,0.0,1.21846967915e-07,1.20621795,-0.32361945,12.9251647,9e-08,0.0,0.0,0.0,9e-08,0.0,0.0,0.0,9e-08
1538769571925667904,1072,1538769571925281952,base_link,0.249861159171,0.213551543125,-0.534983173954,-0.778304659598,1.0,0.0,0.0,0.0,1.0,0.0,0.0,0.0,1.0,0.295010060072,-0.337359249592,0.462831497192,1.21846967915e-07,0.0,0.0,0.0,1.21846967915e-07,0.0,0.0,0.0,1.21846967915e-07,1.8044236,-0.2353596,16.9655045,9e-08,0.0,0.0,0.0,9e-08,0.0,0.0,0.0,9e-08
1538769572161956640,1073,1538769572161737472,base_link,0.214367892599,0.206874704856,-0.596220448195,-0.745500127611,1.0,0.0,0.0,0.0,1.0,0.0,0.0,0.0,1.0,0.300261110067,-0.279417484999,0.439259618521,1.21846967915e-07,0.0,0.0,0.0,1.21846967915e-07,0.0,0.0,0.0,1.21846967915e-07,1.0787315,0.32361945,14.3961622,9e-08,0.0,0.0,0.0,9e-08,0.0,0.0,0.0,9e-08
1538769572418650784,1074,1538769572418280896,base_link,0.167898089004,0.189250244818,-0.645954413796,-0.720234317318,1.0,0.0,0.0,0.0,1.0,0.0,0.0,0.0,1.0,0.437287867069,-0.232377886772,0.315991997719,1.21846967915e-07,0.0,0.0,0.0,1.21846967915e-07,0.0,0.0,0.0,1.21846967915e-07,0.87279185,0.44129925,12.5917386,9e-08,0.0,0.0,0.0,9e-08,0.0,0.0,0.0,9e-08
1538769572869006912,1075,1538769572868697632,base_link,0.0980974476678,0.159133793094,-0.698674790946,-0.690584435933,1.0,0.0,0.0,0.0,1.0,0.0,0.0,0.0,1.0,0.286107480526,-0.0981030538678,0.148398295045,1.21846967915e-07,0.0,0.0,0.0,1.21846967915e-07,0.0,0.0,0.0,1.21846967915e-07,0.53936575,1.0395049,12.8663248,9e-08,0.0,0.0,0.0,9e-08,0.0,0.0,0.0,9e-08
1538769573252145760,1076,1538769573251913792,base_link,0.0372008887811,0.115627056445,-0.713574917145,-0.689969068374,1.0,0.0,0.0,0.0,1.0,0.0,0.0,0.0,1.0,0.580202877522,-0.0254016574472,0.0415240526199,1.21846967915e-07,0.0,0.0,0.0,1.21846967915e-07,0.0,0.0,0.0,1.21846967915e-07,0.44129925,-0.00980665,11.4933938,9e-08,0.0,0.0,0.0,9e-08,0.0,0.0,0.0,9e-08
1538769573660663552,1077,1538769573660364288,base_link,-0.0349130405439,0.0284119712381,-0.74504595325,-0.665492574741,1.0,0.0,0.0,0.0,1.0,0.0,0.0,0.0,1.0,0.452661395073,0.0559851229191,0.152647972107,1.21846967915e-07,0.0,0.0,0.0,1.21846967915e-07,0.0,0.0,0.0,1.21846967915e-07,0.196133,0.38245935,9.42419065,9e-08,0.0,0.0,0.0,9e-08,0.0,0.0,0.0,9e-08
1538769574101344896,1078,1538769574100651648,base_link,-0.0674840058805,-0.0304889640836,-0.756424829861,-0.649875225555,1.0,0.0,0.0,0.0,1.0,0.0,0.0,0.0,1.0,0.329542547464,0.06800018996,-0.0550929009914,1.21846967915e-07,0.0,0.0,0.0,1.21846967915e-07,0.0,0.0,0.0,1.21846967915e-07,0.10787315,0.65704555,8.7083052,9e-08,0.0,0.0,0.0,9e-08,0.0,0.0,0.0,9e-08
1538769574421549184,1079,1538769574421096800,base_link,-0.0709817004432,-0.0589038951731,-0.750237281085,-0.654702948982,1.0,0.0,0.0,0.0,1.0,0.0,0.0,0.0,1.0,0.00449034757912,0.105756551027,-0.0492675453424,1.21846967915e-07,0.0,0.0,0.0,1.21846967915e-07,0.0,0.0,0.0,1.21846967915e-07,0.02941995,0.51975245,8.6886919,9e-08,0.0,0.0,0.0,9e-08,0.0,0.0,0.0,9e-08
1538769574902765184,1080,1538769574902322336,base_link,-0.0475001572612,-0.0771282607089,-0.736047729053,-0.670841789855,1.0,0.0,0.0,0.0,1.0,0.0,0.0,0.0,1.0,0.0685851797462,0.0903483256698,-0.133080050349,1.21846967915e-07,0.0,0.0,0.0,1.21846967915e-07,0.0,0.0,0.0,1.21846967915e-07,-0.0588399,0.3530394,8.7279185,9e-08,0.0,0.0,0.0,9e-08,0.0,0.0,0.0,9e-08
1538769575198434144,1081,1538769575197979872,base_link,-0.0471157919284,-0.0911509138864,-0.727053965488,-0.678869755046,1.0,0.0,0.0,0.0,1.0,0.0,0.0,0.0,1.0,-0.0279670190066,0.0497538335621,-0.0588664337993,1.21846967915e-07,0.0,0.0,0.0,1.21846967915e-07,0.0,0.0,0.0,1.21846967915e-07,-0.06864655,0.5687857,9.2967042,9e-08,0.0,0.0,0.0,9e-08,0.0,0.0,0.0,9e-08
1538769575564681632,1082,1538769575563444512,base_link,-0.0453014578529,-0.100346302836,-0.717772755976,-0.687517758463,1.0,0.0,0.0,0.0,1.0,0.0,0.0,0.0,1.0,-0.106256656349,0.00613938085735,-0.0863312259316,1.21846967915e-07,0.0,0.0,0.0,1.21846967915e-07,0.0,0.0,0.0,1.21846967915e-07,-0.1176798,0.61781895,8.91424485,9e-08,0.0,0.0,0.0,9e-08,0.0,0.0,0.0,9e-08
1538769575957991328,1083,1538769575957590688,base_link,-0.0190484598567,-0.078064662945,-0.708183493852,-0.701440805494,1.0,0.0,0.0,0.0,1.0,0.0,0.0,0.0,1.0,-0.0507068708539,-0.0296050310135,-0.0579327121377,1.21846967915e-07,0.0,0.0,0.0,1.21846967915e-07,0.0,0.0,0.0,1.21846967915e-07,-0.10787315,0.3726527,9.8262633,9e-08,0.0,0.0,0.0,9e-08,0.0,0.0,0.0,9e-08
1538769576371420224,1084,1538769576371177344,base_link,0.0103497390965,-0.0398984028612,-0.708218694111,-0.704788820613,1.0,0.0,0.0,0.0,1.0,0.0,0.0,0.0,1.0,-0.44712138176,-0.0326128862798,0.0084011554718,1.21846967915e-07,0.0,0.0,0.0,1.21846967915e-07,0.0,0.0,0.0,1.21846967915e-07,-0.0980665,0.5491724,10.20872265,9e-08,0.0,0.0,0.0,9e-08,0.0,0.0,0.0,9e-08
1538769576781176352,1085,1538769576780523872,base_link,0.0663499519665,0.0301301458076,-0.711901354288,-0.698488596865,1.0,0.0,0.0,0.0,1.0,0.0,0.0,0.0,1.0,-0.280298620462,-0.070128723979,0.0700588971376,1.21846967915e-07,0.0,0.0,0.0,1.21846967915e-07,0.0,0.0,0.0,1.21846967915e-07,0.10787315,0.1372931,11.76798,9e-08,0.0,0.0,0.0,9e-08,0.0,0.0,0.0,9e-08
1538769577187796480,1086,1538769577186274784,base_link,0.122021869196,0.105286746513,-0.733095682891,-0.660754178325,1.0,0.0,0.0,0.0,1.0,0.0,0.0,0.0,1.0,-0.548026382923,-0.0858170539141,0.254350483418,1.21846967915e-07,0.0,0.0,0.0,1.21846967915e-07,0.0,0.0,0.0,1.21846967915e-07,0.1372931,0.12748645,11.38552065,9e-08,0.0,0.0,0.0,9e-08,0.0,0.0,0.0,9e-08
1538769577549097440,1087,1538769577548499360,base_link,0.177291537657,0.182616949316,-0.749343049654,-0.611313139425,1.0,0.0,0.0,0.0,1.0,0.0,0.0,0.0,1.0,-0.594693183899,-0.143014162779,0.233210682869,1.21846967915e-07,0.0,0.0,0.0,1.21846967915e-07,0.0,0.0,0.0,1.21846967915e-07,0.1176798,0.36284605,11.99353295,9e-08,0.0,0.0,0.0,9e-08,0.0,0.0,0.0,9e-08
1538769577984247712,1088,1538769577982929152,base_link,0.189333610486,0.228210473956,-0.780424554266,-0.550463694185,1.0,0.0,0.0,0.0,1.0,0.0,0.0,0.0,1.0,-0.131119072437,-0.218713477254,0.251352399588,1.21846967915e-07,0.0,0.0,0.0,1.21846967915e-07,0.0,0.0,0.0,1.21846967915e-07,0.4511059,0.65704555,15.21011415,9e-08,0.0,0.0,0.0,9e-08,0.0,0.0,0.0,9e-08
1538769578374718368,1089,1538769578366879904,base_link,0.185117824717,0.264117919072,-0.804493597823,-0.498761633307,1.0,0.0,0.0,0.0,1.0,0.0,0.0,0.0,1.0,0.0390147827566,-0.214670151472,0.238737627864,1.21846967915e-07,0.0,0.0,0.0,1.21846967915e-07,0.0,0.0,0.0,1.21846967915e-07,0.28439285,-0.2157463,10.69905515,9e-08,0.0,0.0,0.0,9e-08,0.0,0.0,0.0,9e-08
1538769578788566272,1090,1538769578787145600,base_link,0.161587662512,0.276358860112,-0.847684064189,-0.423021199328,1.0,0.0,0.0,0.0,1.0,0.0,0.0,0.0,1.0,-0.0544672757387,-0.26778498292,0.406449943781,1.21846967915e-07,0.0,0.0,0.0,1.21846967915e-07,0.0,0.0,0.0,1.21846967915e-07,0.3726527,-0.10787315,12.87613145,9e-08,0.0,0.0,0.0,9e-08,0.0,0.0,0.0,9e-08
1538769579091460736,1091,1538769579091032352,base_link,0.152072122796,0.313078735436,-0.867748366991,-0.354779574483,1.0,0.0,0.0,0.0,1.0,0.0,0.0,0.0,1.0,-0.211247384548,-0.318364024162,0.359703332186,1.21846967915e-07,0.0,0.0,0.0,1.21846967915e-07,0.0,0.0,0.0,1.21846967915e-07,0.3726527,0.16671305,13.1212977,9e-08,0.0,0.0,0.0,9e-08,0.0,0.0,0.0,9e-08
1538769579479449312,1092,1538769579479047264,base_link,0.120688150388,0.336792211727,-0.892745925653,-0.273879697506,1.0,0.0,0.0,0.0,1.0,0.0,0.0,0.0,1.0,0.0297076553106,-0.372582823038,0.343826591969,1.21846967915e-07,0.0,0.0,0.0,1.21846967915e-07,0.0,0.0,0.0,1.21846967915e-07,0.5295591,-0.3138128,13.69989005,9e-08,0.0,0.0,0.0,9e-08,0.0,0.0,0.0,9e-08
1538769579794095392,1093,1538769579793553472,base_link,0.0932944551714,0.365022327969,-0.905059500472,-0.197286961871,1.0,0.0,0.0,0.0,1.0,0.0,0.0,0.0,1.0,-0.314102590084,-0.447026878595,0.400497108698,1.21846967915e-07,0.0,0.0,0.0,1.21846967915e-07,0.0,0.0,0.0,1.21846967915e-07,0.81395195,0.59820565,15.97503285,9e-08,0.0,0.0,0.0,9e-08,0.0,0.0,0.0,9e-08
1538769580210766016,1094,1538769580210546080,base_link,0.0366014170103,0.399662090148,-0.911560028947,-0.0893804430362,1.0,0.0,0.0,0.0,1.0,0.0,0.0,0.0,1.0,0.0754266679287,-0.468631446362,0.370380997658,1.21846967915e-07,0.0,0.0,0.0,1.21846967915e-07,0.0,0.0,0.0,1.21846967915e-07,1.2748645,-0.5099458,15.3768272,9e-08,0.0,0.0,0.0,9e-08,0.0,0.0,0.0,9e-08
1538769580591491392,1095,1538769580590029920,base_link,-0.00796637904566,0.409004651391,-0.912242086508,0.0215895240583,1.0,0.0,0.0,0.0,1.0,0.0,0.0,0.0,1.0,-0.132718503475,-0.502273380756,0.466966897249,1.21846967915e-07,0.0,0.0,0.0,1.21846967915e-07,0.0,0.0,0.0,1.21846967915e-07,1.1571847,-0.0196133,15.0237878,9e-08,0.0,0.0,0.0,9e-08,0.0,0.0,0.0,9e-08
1538769580954775520,1096,1538769580954230368,base_link,-0.067321428841,0.417999123055,-0.900412035802,0.100013619707,1.0,0.0,0.0,0.0,1.0,0.0,0.0,0.0,1.0,0.0573991984129,-0.488628685474,0.110070414841,1.21846967915e-07,0.0,0.0,0.0,1.21846967915e-07,0.0,0.0,0.0,1.21846967915e-07,1.7455837,0.57859235,16.867438,9e-08,0.0,0.0,0.0,9e-08,0.0,0.0,0.0,9e-08
1538769581182315776,1097,1538769581181861216,base_link,-0.107355312116,0.393645403614,-0.901802688617,0.142372904643,1.0,0.0,0.0,0.0,1.0,0.0,0.0,0.0,1.0,0.251535266638,-0.514774441719,0.246729537845,1.21846967915e-07,0.0,0.0,0.0,1.21846967915e-07,0.0,0.0,0.0,1.21846967915e-07,1.8240369,-0.30400615,17.3969971,9e-08,0.0,0.0,0.0,9e-08,0.0,0.0,0.0,9e-08
1538769581719624544,1098,1538769581719394848,base_link,-0.160320000976,0.273126234124,-0.900358513584,0.298419343437,1.0,0.0,0.0,0.0,1.0,0.0,0.0,0.0,1.0,0.372651278973,-0.344061136246,0.356302529573,1.21846967915e-07,0.0,0.0,0.0,1.21846967915e-07,0.0,0.0,0.0,1.21846967915e-07,1.12776475,0.4511059,16.09271265,9e-08,0.0,0.0,0.0,9e-08,0.0,0.0,0.0,9e-08
1538769582111873280,1099,1538769582111614080,base_link,-0.154549970758,0.151574388087,-0.901088941922,0.375736916153,1.0,0.0,0.0,0.0,1.0,0.0,0.0,0.0,1.0,0.784175693989,-0.203684836626,0.221121892333,1.21846967915e-07,0.0,0.0,0.0,1.21846967915e-07,0.0,0.0,0.0,1.21846967915e-07,0.46091255,0.2157463,15.95541955,9e-08,0.0,0.0,0.0,9e-08,0.0,0.0,0.0,9e-08
1538769582564787680,1100,1538769582564208544,base_link,-0.0995865221442,-0.00229399158814,-0.894903090335,0.435000828871,1.0,0.0,0.0,0.0,1.0,0.0,0.0,0.0,1.0,0.682791531086,0.0363260284066,0.0747863724828,1.21846967915e-07,0.0,0.0,0.0,1.21846967915e-07,0.0,0.0,0.0,1.21846967915e-07,-0.1765197,0.38245935,11.964113,9e-08,0.0,0.0,0.0,9e-08,0.0,0.0,0.0,9e-08
1538769582960173408,1101,1538769582959877952,base_link,-0.0340494989704,-0.0958067994418,-0.885947847915,0.452502043726,1.0,0.0,0.0,0.0,1.0,0.0,0.0,0.0,1.0,0.359454959631,0.110152006149,0.030908215791,1.21846967915e-07,0.0,0.0,0.0,1.21846967915e-07,0.0,0.0,0.0,1.21846967915e-07,-0.42168595,0.42168595,8.3160392,9e-08,0.0,0.0,0.0,9e-08,0.0,0.0,0.0,9e-08
1538769583379073504,1102,1538769583378749952,base_link,0.0147665640011,-0.120800087365,-0.886542865729,0.446353038195,1.0,0.0,0.0,0.0,1.0,0.0,0.0,0.0,1.0,0.132764875889,0.147623047233,-0.105560496449,1.21846967915e-07,0.0,0.0,0.0,1.21846967915e-07,0.0,0.0,0.0,1.21846967915e-07,-0.5687857,0.46091255,6.5900688,9e-08,0.0,0.0,0.0,9e-08,0.0,0.0,0.0,9e-08
1538769583773293792,1103,1538769583772989920,base_link,0.0507644885504,-0.115910898715,-0.89286298108,0.432184367229,1.0,0.0,0.0,0.0,1.0,0.0,0.0,0.0,1.0,-0.0172423031181,0.152714043856,-0.108830831945,1.21846967915e-07,0.0,0.0,0.0,1.21846967915e-07,0.0,0.0,0.0,1.21846967915e-07,-0.67665885,0.42168595,6.40374245,9e-08,0.0,0.0,0.0,9e-08,0.0,0.0,0.0,9e-08
1538769584167757408,1104,1538769584163781440,base_link,0.0743062045919,-0.0949326244902,-0.901543234251,0.415555268939,1.0,0.0,0.0,0.0,1.0,0.0,0.0,0.0,1.0,-0.144018441439,0.119506530464,-0.12119089067,1.21846967915e-07,0.0,0.0,0.0,1.21846967915e-07,0.0,0.0,0.0,1.21846967915e-07,-0.6864655,0.51975245,6.7077486,9e-08,0.0,0.0,0.0,9e-08,0.0,0.0,0.0,9e-08
1538769584499039232,1105,1538769584498271296,base_link,0.0823922307137,-0.0695693483041,-0.908799075916,0.403058141846,1.0,0.0,0.0,0.0,1.0,0.0,0.0,0.0,1.0,-0.113780327141,0.0720667392015,-0.0882240459323,1.21846967915e-07,0.0,0.0,0.0,1.21846967915e-07,0.0,0.0,0.0,1.21846967915e-07,-0.77472535,0.2745862,7.060788,9e-08,0.0,0.0,0.0,9e-08,0.0,0.0,0.0,9e-08
1538769584901894112,1106,1538769584901605888,base_link,0.0796828023251,-0.0379940529897,-0.915669277901,0.392118446977,1.0,0.0,0.0,0.0,1.0,0.0,0.0,0.0,1.0,-0.100865319371,0.0243928637356,-0.0717226266861,1.21846967915e-07,0.0,0.0,0.0,1.21846967915e-07,0.0,0.0,0.0,1.21846967915e-07,-0.6668522,0.30400615,8.7867584,9e-08,0.0,0.0,0.0,9e-08,0.0,0.0,0.0,9e-08
1538769585233233568,1107,1538769585232959744,base_link,0.0757354927268,-0.0282207562481,-0.919026033872,0.385822333626,1.0,0.0,0.0,0.0,1.0,0.0,0.0,0.0,1.0,-0.125027164817,-0.0236213132739,-0.0184462480247,1.21846967915e-07,0.0,0.0,0.0,1.21846967915e-07,0.0,0.0,0.0,1.21846967915e-07,-0.5099458,0.30400615,10.2773692,9e-08,0.0,0.0,0.0,9e-08,0.0,0.0,0.0,9e-08
1538769585602907456,1108,1538769585602636736,base_link,0.0678285707628,-0.0147626693112,-0.920569821519,0.384359925451,1.0,0.0,0.0,0.0,1.0,0.0,0.0,0.0,1.0,-0.00857876054943,-0.00944919418544,-0.00838331319392,1.21846967915e-07,0.0,0.0,0.0,1.21846967915e-07,0.0,0.0,0.0,1.21846967915e-07,-0.4707192,0.4707192,10.2185293,9e-08,0.0,0.0,0.0,9e-08,0.0,0.0,0.0,9e-08
1538769585964147456,1109,1538769585963883136,base_link,0.0626625847701,-0.0121566051857,-0.922134854932,0.381566411965,1.0,0.0,0.0,0.0,1.0,0.0,0.0,0.0,1.0,0.0236322283745,-0.0498208105564,-0.026187337935,1.21846967915e-07,0.0,0.0,0.0,1.21846967915e-07,0.0,0.0,0.0,1.21846967915e-07,-0.4707192,0.44129925,10.58137535,9e-08,0.0,0.0,0.0,9e-08,0.0,0.0,0.0,9e-08
1538769586386211456,1110,1538769586384460640,base_link,0.0597994194285,-0.0215984943125,-0.924134758598,0.376739276463,1.0,0.0,0.0,0.0,1.0,0.0,0.0,0.0,1.0,-0.0733479112387,-0.0343424640596,-0.0102174161002,1.21846967915e-07,0.0,0.0,0.0,1.21846967915e-07,0.0,0.0,0.0,1.21846967915e-07,-0.392266,0.3138128,9.4339973,9e-08,0.0,0.0,0.0,9e-08,0.0,0.0,0.0,9e-08
1538769586872507456,1111,1538769586872195872,base_link,0.0378405367022,-0.0130432792093,-0.922141725017,0.384776046074,1.0,0.0,0.0,0.0,1.0,0.0,0.0,0.0,1.0,-0.0896604508162,-0.0767893567681,0.0486415103078,1.21846967915e-07,0.0,0.0,0.0,1.21846967915e-07,0.0,0.0,0.0,1.21846967915e-07,-0.18632635,0.51975245,11.40513395,9e-08,0.0,0.0,0.0,9e-08,0.0,0.0,0.0,9e-08
1538769587283762048,1112,1538769587283463776,base_link,0.0209234281905,-0.0107759091721,-0.923128175667,0.383771365821,1.0,0.0,0.0,0.0,1.0,0.0,0.0,0.0,1.0,-0.00302940793335,-0.0737200155854,-0.014387874864,1.21846967915e-07,0.0,0.0,0.0,1.21846967915e-07,0.0,0.0,0.0,1.21846967915e-07,-0.22555295,0.30400615,10.8853815,9e-08,0.0,0.0,0.0,9e-08,0.0,0.0,0.0,9e-08
1538769587709670272,1113,1538769587708542752,base_link,0.0101709695698,-0.0188813200153,-0.920755721191,0.389549674659,1.0,0.0,0.0,0.0,1.0,0.0,0.0,0.0,1.0,-0.0499218255281,-0.0518564246595,0.032179556787,1.21846967915e-07,0.0,0.0,0.0,1.21846967915e-07,0.0,0.0,0.0,1.21846967915e-07,-0.14709975,0.55897905,10.83634825,9e-08,0.0,0.0,0.0,9e-08,0.0,0.0,0.0,9e-08
1538769588024581792,1114,1538769588024325504,base_link,0.00337750354352,-0.0213050568324,-0.921192066434,0.388509798799,1.0,0.0,0.0,0.0,1.0,0.0,0.0,0.0,1.0,0.0891327410936,-0.0242021158338,-0.0250752270222,1.21846967915e-07,0.0,0.0,0.0,1.21846967915e-07,0.0,0.0,0.0,1.21846967915e-07,-0.04903325,0.3530394,10.5519554,9e-08,0.0,0.0,0.0,9e-08,0.0,0.0,0.0,9e-08
1538769588490136768,1115,1538769588489548640,base_link,0.000813992481632,-0.0312001064083,-0.921117863239,0.38803063384,1.0,0.0,0.0,0.0,1.0,0.0,0.0,0.0,1.0,-8.42437148094e-05,-0.0207031257451,0.0374074019492,1.21846967915e-07,0.0,0.0,0.0,1.21846967915e-07,0.0,0.0,0.0,1.21846967915e-07,-0.04903325,0.3138128,10.99325465,9e-08,0.0,0.0,0.0,9e-08,0.0,0.0,0.0,9e-08
1538769589001095872,1116,1538769589000528448,base_link,-0.00140195661786,-0.0285983957143,-0.920619437433,0.389409832567,1.0,0.0,0.0,0.0,1.0,0.0,0.0,0.0,1.0,-0.0620934069157,0.00533954845741,-0.0300125218928,1.21846967915e-07,0.0,0.0,0.0,1.21846967915e-07,0.0,0.0,0.0,1.21846967915e-07,0.0196133,0.61781895,10.42446895,9e-08,0.0,0.0,0.0,9e-08,0.0,0.0,0.0,9e-08
1538769589381844320,1117,1538769589381531296,base_link,0.00040990704917,-0.0310319219036,-0.921222388784,0.387796547434,1.0,0.0,0.0,0.0,1.0,0.0,0.0,0.0,1.0,0.0523910671473,-0.00635407585651,0.0357667319477,1.21846967915e-07,0.0,0.0,0.0,1.21846967915e-07,0.0,0.0,0.0,1.21846967915e-07,-0.0196133,0.2745862,9.610517,9e-08,0.0,0.0,0.0,9e-08,0.0,0.0,0.0,9e-08
1538769589855976128,1118,1538769589855305728,base_link,0.00856093518567,-0.0328383580556,-0.918507302116,0.393945032447,1.0,0.0,0.0,0.0,1.0,0.0,0.0,0.0,1.0,0.0326453857124,0.0564442649484,-0.0110044246539,1.21846967915e-07,0.0,0.0,0.0,1.21846967915e-07,0.0,0.0,0.0,1.21846967915e-07,-0.0196133,0.5687857,8.93385815,9e-08,0.0,0.0,0.0,9e-08,0.0,0.0,0.0,9e-08
1538769590218111680,1119,1538769590217867840,base_link,0.0192635793068,-0.0386754517435,-0.920599616336,0.38811012657,1.0,0.0,0.0,0.0,1.0,0.0,0.0,0.0,1.0,0.0523459762335,0.0186523273587,-0.0144503749907,1.21846967915e-07,0.0,0.0,0.0,1.21846967915e-07,0.0,0.0,0.0,1.21846967915e-07,0.02941995,0.36284605,9.36535075,9e-08,0.0,0.0,0.0,9e-08,0.0,0.0,0.0,9e-08
1538769590581357568,1120,1538769590581042944,base_link,0.0189586488487,-0.0347201873175,-0.920699295282,0.388262650655,1.0,0.0,0.0,0.0,1.0,0.0,0.0,0.0,1.0,-0.0478513874114,0.0115650305524,0.00176591752097,1.21846967915e-07,0.0,0.0,0.0,1.21846967915e-07,0.0,0.0,0.0,1.21846967915e-07,0.0392266,0.53936575,9.67916355,9e-08,0.0,0.0,0.0,9e-08,0.0,0.0,0.0,9e-08
1538769590906549184,1121,1538769590906169728,base_link,0.0199209396821,-0.0349509842641,-0.922046841967,0.384982085401,1.0,0.0,0.0,0.0,1.0,0.0,0.0,0.0,1.0,0.0590428188443,-0.0178831778467,-0.0429486967623,1.21846967915e-07,0.0,0.0,0.0,1.21846967915e-07,0.0,0.0,0.0,1.21846967915e-07,0.1372931,0.5099458,9.8458766,9e-08,0.0,0.0,0.0,9e-08,0.0,0.0,0.0,9e-08
1538769591322041312,1122,1538769591321763008,base_link,0.0167569033149,-0.0443017282244,-0.925899200168,0.374789586563,1.0,0.0,0.0,0.0,1.0,0.0,0.0,0.0,1.0,0.00573120638728,-0.0361100360751,-0.0301321260631,1.21846967915e-07,0.0,0.0,0.0,1.21846967915e-07,0.0,0.0,0.0,1.21846967915e-07,0.22555295,0.3726527,10.95402805,9e-08,0.0,0.0,0.0,9e-08,0.0,0.0,0.0,9e-08
1538769591782442752,1123,1538769591781748064,base_link,0.00361199843133,-0.035189196447,-0.926103273763,0.37560804071,1.0,0.0,0.0,0.0,1.0,0.0,0.0,0.0,1.0,-0.105706684291,-0.03673639521,0.00458999536932,1.21846967915e-07,0.0,0.0,0.0,1.21846967915e-07,0.0,0.0,0.0,1.21846967915e-07,0.2157463,0.4903325,10.73828175,9e-08,0.0,0.0,0.0,9e-08,0.0,0.0,0.0,9e-08
1538769592232250816,1124,1538769592231709344,base_link,-0.00771429421359,-0.0243073216258,-0.927094479443,0.37395918222,1.0,0.0,0.0,0.0,1.0,0.0,0.0,0.0,1.0,-0.0102352444082,0.0117130530998,-0.00981635600328,1.21846967915e-07,0.0,0.0,0.0,1.21846967915e-07,0.0,0.0,0.0,1.21846967915e-07,0.26477955,0.4903325,10.0616229,9e-08,0.0,0.0,0.0,9e-08,0.0,0.0,0.0,9e-08
1538769592562741856,1125,1538769592562264032,base_link,-0.00471895742068,-0.0229005053911,-0.9279951058,0.371858013097,1.0,0.0,0.0,0.0,1.0,0.0,0.0,0.0,1.0,0.0695123448968,0.00678107980639,0.0104501955211,1.21846967915e-07,0.0,0.0,0.0,1.21846967915e-07,0.0,0.0,0.0,1.21846967915e-07,0.3138128,0.18632635,9.52225715,9e-08,0.0,0.0,0.0,9e-08,0.0,0.0,0.0,9e-08
1538769592960920928,1126,1538769592960634016,base_link,0.00204278984574,-0.0305480435991,-0.925972335428,0.376348080989,1.0,0.0,0.0,0.0,1.0,0.0,0.0,0.0,1.0,0.0556450411677,0.0185782276094,0.00385933602229,1.21846967915e-07,0.0,0.0,0.0,1.21846967915e-07,0.0,0.0,0.0,1.21846967915e-07,0.196133,0.5099458,9.48303055,9e-08,0.0,0.0,0.0,9e-08,0.0,0.0,0.0,9e-08
1538769593490804832,1127,1538769593490570720,base_link,0.00437533239726,-0.0328714208417,-0.927765587759,0.371687153837,1.0,0.0,0.0,0.0,1.0,0.0,0.0,0.0,1.0,0.0616506114602,-0.0211311914027,0.00486330268905,1.21846967915e-07,0.0,0.0,0.0,1.21846967915e-07,0.0,0.0,0.0,1.21846967915e-07,0.2745862,0.30400615,9.58109705,9e-08,0.0,0.0,0.0,9e-08,0.0,0.0,0.0,9e-08
1538769593731392992,1128,1538769593730278208,base_link,0.00835532648455,-0.0473534582856,-0.926792858701,0.372481993617,1.0,0.0,0.0,0.0,1.0,0.0,0.0,0.0,1.0,0.0735729709268,-0.0345237627625,0.0232274252921,1.21846967915e-07,0.0,0.0,0.0,1.21846967915e-07,0.0,0.0,0.0,1.21846967915e-07,0.3530394,0.40207265,9.83606995,9e-08,0.0,0.0,0.0,9e-08,0.0,0.0,0.0,9e-08
1538769594090428128,1129,1538769594090117696,base_link,-0.00406841420102,-0.0415343678747,-0.925788058023,0.375732372725,1.0,0.0,0.0,0.0,1.0,0.0,0.0,0.0,1.0,-0.0756314322352,-0.0441881641746,0.000781227368861,1.21846967915e-07,0.0,0.0,0.0,1.21846967915e-07,0.0,0.0,0.0,1.21846967915e-07,0.4511059,0.6472389,11.0422879,9e-08,0.0,0.0,0.0,9e-08,0.0,0.0,0.0,9e-08
1538769594558520384,1130,1538769594557712640,base_link,-0.0117994628143,-0.0342617769168,-0.93004018345,0.365666734183,1.0,0.0,0.0,0.0,1.0,0.0,0.0,0.0,1.0,-0.0204116273671,-0.00743652414531,-0.0315781719983,1.21846967915e-07,0.0,0.0,0.0,1.21846967915e-07,0.0,0.0,0.0,1.21846967915e-07,0.46091255,0.32361945,10.24794925,9e-08,0.0,0.0,0.0,9e-08,0.0,0.0,0.0,9e-08
1538769594824079296,1131,1538769594823236832,base_link,-0.0152418752302,-0.0292021850547,-0.929375329127,0.367663453769,1.0,0.0,0.0,0.0,1.0,0.0,0.0,0.0,1.0,-0.0437885224819,-0.0131845092401,0.0677746459842,1.21846967915e-07,0.0,0.0,0.0,1.21846967915e-07,0.0,0.0,0.0,1.21846967915e-07,0.48052585,0.5099458,10.13026945,9e-08,0.0,0.0,0.0,9e-08,0.0,0.0,0.0,9e-08
1538769595224614080,1132,1538769595224329248,base_link,-0.0227126119141,-0.0108791836978,-0.927717307247,0.372433052314,1.0,0.0,0.0,0.0,1.0,0.0,0.0,0.0,1.0,-0.0379792675376,0.00211005145684,-0.00346011808142,1.21846967915e-07,0.0,0.0,0.0,1.21846967915e-07,0.0,0.0,0.0,1.21846967915e-07,0.4707192,0.69627215,10.40485565,9e-08,0.0,0.0,0.0,9e-08,0.0,0.0,0.0,9e-08
1538769595764682176,1133,1538769595764107520,base_link,-0.013260153676,-0.0277224347258,-0.928348551958,0.370438390309,1.0,0.0,0.0,0.0,1.0,0.0,0.0,0.0,1.0,0.0934953093529,0.00593466125429,0.0550910122693,1.21846967915e-07,0.0,0.0,0.0,1.21846967915e-07,0.0,0.0,0.0,1.21846967915e-07,0.48052585,0.2941995,9.3555441,9e-08,0.0,0.0,0.0,9e-08,0.0,0.0,0.0,9e-08
1538769596070850912,1134,1538769596070397120,base_link,-0.00694929791672,-0.0406233360914,-0.925993974225,0.375282042632,1.0,0.0,0.0,0.0,1.0,0.0,0.0,0.0,1.0,0.142149955034,0.00865062512457,0.00384104554541,1.21846967915e-07,0.0,0.0,0.0,1.21846967915e-07,0.0,0.0,0.0,1.21846967915e-07,0.40207265,0.38245935,9.6889702,9e-08,0.0,0.0,0.0,9e-08,0.0,0.0,0.0,9e-08
1538769596467134176,1135,1538769596466612544,base_link,-0.00220003505935,-0.0493654325194,-0.923918364855,0.379385119637,1.0,0.0,0.0,0.0,1.0,0.0,0.0,0.0,1.0,0.045881293714,-0.00532319396734,0.0483864247799,1.21846967915e-07,0.0,0.0,0.0,1.21846967915e-07,0.0,0.0,0.0,1.21846967915e-07,0.4707192,0.2549729,9.9831697,9e-08,0.0,0.0,0.0,9e-08,0.0,0.0,0.0,9e-08
1538769596856978048,1136,1538769596855817440,base_link,-0.008724013785,-0.0354020480198,-0.923344358805,0.382237860032,1.0,0.0,0.0,0.0,1.0,0.0,0.0,0.0,1.0,-0.119922310114,-0.0120145212859,-0.0377222336829,1.21846967915e-07,0.0,0.0,0.0,1.21846967915e-07,0.0,0.0,0.0,1.21846967915e-07,0.61781895,0.6668522,11.4737805,9e-08,0.0,0.0,0.0,9e-08,0.0,0.0,0.0,9e-08
1538769597230678304,1137,1538769597229247680,base_link,-0.00990283814683,-0.0318580438905,-0.923522329154,0.382090966119,1.0,0.0,0.0,0.0,1.0,0.0,0.0,0.0,1.0,-0.0282538421452,-0.00575483217835,0.0728616118431,1.21846967915e-07,0.0,0.0,0.0,1.21846967915e-07,0.0,0.0,0.0,1.21846967915e-07,0.4118793,0.2941995,9.56148375,9e-08,0.0,0.0,0.0,9e-08,0.0,0.0,0.0,9e-08
1538769597837087840,1138,1538769597836770400,base_link,-0.00614161375316,-0.0335745925348,-0.921559126954,0.386734796526,1.0,0.0,0.0,0.0,1.0,0.0,0.0,0.0,1.0,0.0588697344065,0.00843726936728,-0.0404970832169,1.21846967915e-07,0.0,0.0,0.0,1.21846967915e-07,0.0,0.0,0.0,1.21846967915e-07,0.53936575,0.55897905,10.01258965,9e-08,0.0,0.0,0.0,9e-08,0.0,0.0,0.0,9e-08
1538769598235047680,1139,1538769598234798208,base_link,-0.00560732210138,-0.0300222575448,-0.923156039482,0.383210319222,1.0,0.0,0.0,0.0,1.0,0.0,0.0,0.0,1.0,0.0223503746092,-0.0121313910931,0.00437252549455,1.21846967915e-07,0.0,0.0,0.0,1.21846967915e-07,0.0,0.0,0.0,1.21846967915e-07,0.61781895,0.3334261,10.18910935,9e-08,0.0,0.0,0.0,9e-08,0.0,0.0,0.0,9e-08
1538769598540633216,1140,1538769598540370688,base_link,-0.00577892548504,-0.0410051276732,-0.920870522373,0.387663081231,1.0,0.0,0.0,0.0,1.0,0.0,0.0,0.0,1.0,0.0335800237954,-0.0265966076404,0.0447057113051,1.21846967915e-07,0.0,0.0,0.0,1.21846967915e-07,0.0,0.0,0.0,1.21846967915e-07,0.67665885,0.51975245,10.69905515,9e-08,0.0,0.0,0.0,9e-08,0.0,0.0,0.0,9e-08
1538769598944166592,1141,1538769598943924192,base_link,-0.0139646043856,-0.0299560987864,-0.920453689141,0.389451701905,1.0,0.0,0.0,0.0,1.0,0.0,0.0,0.0,1.0,-0.143494144082,-0.00612775236368,-0.0162786096334,1.21846967915e-07,0.0,0.0,0.0,1.21846967915e-07,0.0,0.0,0.0,1.21846967915e-07,0.69627215,0.63743225,10.11065615,9e-08,0.0,0.0,0.0,9e-08,0.0,0.0,0.0,9e-08
1538769599380827968,1142,1538769599378978848,base_link,-0.0138438329247,-0.0344016488499,-0.922557981179,0.384072449167,1.0,0.0,0.0,0.0,1.0,0.0,0.0,0.0,1.0,0.129194408655,-0.024341410026,0.00780435698107,1.21846967915e-07,0.0,0.0,0.0,1.21846967915e-07,0.0,0.0,0.0,1.21846967915e-07,0.7649187,0.46091255,11.0422879,9e-08,0.0,0.0,0.0,9e-08,0.0,0.0,0.0,9e-08
1538769599831043200,1143,1538769599830539520,base_link,-0.00140834962344,-0.0732722279464,-0.921960949691,0.380285687883,1.0,0.0,0.0,0.0,1.0,0.0,0.0,0.0,1.0,0.0897993892431,-0.0191744305193,-0.0250074528158,1.21846967915e-07,0.0,0.0,0.0,1.21846967915e-07,0.0,0.0,0.0,1.21846967915e-07,0.1569064,0.53936575,10.03220295,9e-08,0.0,0.0,0.0,9e-08,0.0,0.0,0.0,9e-08
1538769600259008544,1144,1538769600257198176,base_link,0.00188338838294,-0.0508158445733,-0.925894546362,0.374344082103,1.0,0.0,0.0,0.0,1.0,0.0,0.0,0.0,1.0,0.0298812426627,0.162904173136,-0.0552572011948,1.21846967915e-07,0.0,0.0,0.0,1.21846967915e-07,0.0,0.0,0.0,1.21846967915e-07,-0.59820565,0.55897905,8.8455983,9e-08,0.0,0.0,0.0,9e-08,0.0,0.0,0.0,9e-08
1538769600703996128,1145,1538769600703272288,base_link,0.067936206425,-0.0793995256392,-0.927880508501,0.357935956743,1.0,0.0,0.0,0.0,1.0,0.0,0.0,0.0,1.0,0.379506766796,0.235604718328,-0.117985360324,1.21846967915e-07,0.0,0.0,0.0,1.21846967915e-07,0.0,0.0,0.0,1.21846967915e-07,-0.81395195,0.59820565,6.50180895,9e-08,0.0,0.0,0.0,9e-08,0.0,0.0,0.0,9e-08
1538769600990974848,1146,1538769600990524128,base_link,0.115735908194,-0.121282282172,-0.927669453569,0.333654300887,1.0,0.0,0.0,0.0,1.0,0.0,0.0,0.0,1.0,0.490897595882,0.146945044398,-0.204846307635,1.21846967915e-07,0.0,0.0,0.0,1.21846967915e-07,0.0,0.0,0.0,1.21846967915e-07,-0.95124505,0.588399,5.295591,9e-08,0.0,0.0,0.0,9e-08,0.0,0.0,0.0,9e-08
1538769601262409696,1147,1538769601262013568,base_link,0.152078060388,-0.181346288745,-0.923810349243,0.300932261045,1.0,0.0,0.0,0.0,1.0,0.0,0.0,0.0,1.0,0.491495132446,0.0174639821053,-0.159155800939,1.21846967915e-07,0.0,0.0,0.0,1.21846967915e-07,0.0,0.0,0.0,1.21846967915e-07,-0.79433865,0.2745862,7.75706015,9e-08,0.0,0.0,0.0,9e-08,0.0,0.0,0.0,9e-08
1538769601663773088,1148,1538769601663531648,base_link,0.159842847667,-0.240368977984,-0.922966669408,0.254569333648,1.0,0.0,0.0,0.0,1.0,0.0,0.0,0.0,1.0,0.323193252087,-0.181524589658,-0.228880211711,1.21846967915e-07,0.0,0.0,0.0,1.21846967915e-07,0.0,0.0,0.0,1.21846967915e-07,-0.7060788,0.55897905,10.3362091,9e-08,0.0,0.0,0.0,9e-08,0.0,0.0,0.0,9e-08
1538769602113996704,1149,1538769602113521024,base_link,0.143023646058,-0.30987142132,-0.925565960315,0.163864553896,1.0,0.0,0.0,0.0,1.0,0.0,0.0,0.0,1.0,0.161869943142,-0.337024152279,-0.376690685749,1.21846967915e-07,0.0,0.0,0.0,1.21846967915e-07,0.0,0.0,0.0,1.21846967915e-07,-0.44129925,0.8629852,13.1016844,9e-08,0.0,0.0,0.0,9e-08,0.0,0.0,0.0,9e-08
1538769602540933472,1150,1538769602540517504,base_link,0.102294974252,-0.335998375184,-0.93450609784,0.0577856661847,1.0,0.0,0.0,0.0,1.0,0.0,0.0,0.0,1.0,0.0340208820999,-0.350463777781,-0.360594898462,1.21846967915e-07,0.0,0.0,0.0,1.21846967915e-07,0.0,0.0,0.0,1.21846967915e-07,-0.51975245,0.6472389,12.7290317,9e-08,0.0,0.0,0.0,9e-08,0.0,0.0,0.0,9e-08
1538769602864770560,1151,1538769602864277728,base_link,0.067965508696,-0.342172067427,-0.936996930721,-0.0183226013464,1.0,0.0,0.0,0.0,1.0,0.0,0.0,0.0,1.0,0.0670087561011,-0.37415382266,-0.366265624762,1.21846967915e-07,0.0,0.0,0.0,1.21846967915e-07,0.0,0.0,0.0,1.21846967915e-07,-0.5491724,0.53936575,12.7290317,9e-08,0.0,0.0,0.0,9e-08,0.0,0.0,0.0,9e-08
1538769603322004160,1152,1538769603320927552,base_link,0.0126373853935,-0.346233474942,-0.928954826497,-0.130405550678,1.0,0.0,0.0,0.0,1.0,0.0,0.0,0.0,1.0,0.130704909563,-0.377030670643,-0.388488650322,1.21846967915e-07,0.0,0.0,0.0,1.21846967915e-07,0.0,0.0,0.0,1.21846967915e-07,-0.4511059,0.63743225,14.1019627,9e-08,0.0,0.0,0.0,9e-08,0.0,0.0,0.0,9e-08
1538769603759167072,1153,1538769603758909088,base_link,-0.0360579772513,-0.344110413398,-0.909332963885,-0.231087443321,1.0,0.0,0.0,0.0,1.0,0.0,0.0,0.0,1.0,-0.087080091238,-0.348830103874,-0.390957832336,1.21846967915e-07,0.0,0.0,0.0,1.21846967915e-07,0.0,0.0,0.0,1.21846967915e-07,-0.73549875,1.0591182,13.26839745,9e-08,0.0,0.0,0.0,9e-08,0.0,0.0,0.0,9e-08
1538769604167307648,1154,1538769604166754048,base_link,-0.0745129953457,-0.324171176403,-0.879639568132,-0.339992782411,1.0,0.0,0.0,0.0,1.0,0.0,0.0,0.0,1.0,0.0189187377691,-0.34029057622,-0.401654034853,1.21846967915e-07,0.0,0.0,0.0,1.21846967915e-07,0.0,0.0,0.0,1.21846967915e-07,-0.6080123,0.5099458,13.91563635,9e-08,0.0,0.0,0.0,9e-08,0.0,0.0,0.0,9e-08
1538769604585191072,1155,1538769604584661088,base_link,-0.124554242087,-0.31332716321,-0.837170907124,-0.430647421724,1.0,0.0,0.0,0.0,1.0,0.0,0.0,0.0,1.0,0.196676194668,-0.391780763865,-0.376708954573,1.21846967915e-07,0.0,0.0,0.0,1.21846967915e-07,0.0,0.0,0.0,1.21846967915e-07,-0.50013915,0.71588545,15.0237878,9e-08,0.0,0.0,0.0,9e-08,0.0,0.0,0.0,9e-08
1538769605040265920,1156,1538769605039945504,base_link,-0.181542072618,-0.310897693482,-0.773931900995,-0.520974579686,1.0,0.0,0.0,0.0,1.0,0.0,0.0,0.0,1.0,0.00143710151315,-0.389827758074,-0.340666204691,1.21846967915e-07,0.0,0.0,0.0,1.21846967915e-07,0.0,0.0,0.0,1.21846967915e-07,-0.40207265,0.55897905,15.36702055,9e-08,0.0,0.0,0.0,9e-08,0.0,0.0,0.0,9e-08
1538769605371191232,1157,1538769605370826144,base_link,-0.198536454895,-0.284122056083,-0.732933276762,-0.585377438188,1.0,0.0,0.0,0.0,1.0,0.0,0.0,0.0,1.0,-0.0822007805109,-0.235610574484,-0.487874686718,1.21846967915e-07,0.0,0.0,0.0,1.21846967915e-07,0.0,0.0,0.0,1.21846967915e-07,-0.3138128,1.2160246,14.8276548,9e-08,0.0,0.0,0.0,9e-08,0.0,0.0,0.0,9e-08
1538769605716236384,1158,1538769605715975584,base_link,-0.211387223977,-0.277103629911,-0.663845143857,-0.661693769661,1.0,0.0,0.0,0.0,1.0,0.0,0.0,0.0,1.0,0.127361148596,-0.328571557999,-0.497620373964,1.21846967915e-07,0.0,0.0,0.0,1.21846967915e-07,0.0,0.0,0.0,1.21846967915e-07,-0.81395195,0.0784532,12.5328987,9e-08,0.0,0.0,0.0,9e-08,0.0,0.0,0.0,9e-08
1538769606101469312,1159,1538769606101166080,base_link,-0.253746886803,-0.26378179938,-0.600439464504,-0.71098813578,1.0,0.0,0.0,0.0,1.0,0.0,0.0,0.0,1.0,0.121041364968,-0.284093886614,-0.207404077053,1.21846967915e-07,0.0,0.0,0.0,1.21846967915e-07,0.0,0.0,0.0,1.21846967915e-07,-0.8629852,0.392266,10.26756255,9e-08,0.0,0.0,0.0,9e-08,0.0,0.0,0.0,9e-08
1538769606507851136,1160,1538769606507012448,base_link,-0.285137886902,-0.235280179777,-0.540923105866,-0.755474563435,1.0,0.0,0.0,0.0,1.0,0.0,0.0,0.0,1.0,0.0776308700442,-0.358906954527,-0.3810069561,1.21846967915e-07,0.0,0.0,0.0,1.21846967915e-07,0.0,0.0,0.0,1.21846967915e-07,-0.42168595,0.8629852,12.3171524,9e-08,0.0,0.0,0.0,9e-08,0.0,0.0,0.0,9e-08
1538769606826063776,1161,1538769606825607840,base_link,-0.304248209962,-0.2155355725,-0.464360936347,-0.803334528399,1.0,0.0,0.0,0.0,1.0,0.0,0.0,0.0,1.0,0.10821454972,-0.364164233208,-0.459950953722,1.21846967915e-07,0.0,0.0,0.0,1.21846967915e-07,0.0,0.0,0.0,1.21846967915e-07,-0.50013915,0.4511059,11.8268199,9e-08,0.0,0.0,0.0,9e-08,0.0,0.0,0.0,9e-08
1538769607207841888,1162,1538769607207589312,base_link,-0.322193805204,-0.178780654721,-0.370888348928,-0.852449682982,1.0,0.0,0.0,0.0,1.0,0.0,0.0,0.0,1.0,-0.0735925585032,-0.417390555143,-0.446731388569,1.21846967915e-07,0.0,0.0,0.0,1.21846967915e-07,0.0,0.0,0.0,1.21846967915e-07,-0.18632635,0.77472535,13.3174307,9e-08,0.0,0.0,0.0,9e-08,0.0,0.0,0.0,9e-08
1538769607547136800,1163,1538769607546824448,base_link,-0.308284800067,-0.133883773071,-0.283974035963,-0.89799463487,1.0,0.0,0.0,0.0,1.0,0.0,0.0,0.0,1.0,-0.20099824667,-0.417731821537,-0.480948209763,1.21846967915e-07,0.0,0.0,0.0,1.21846967915e-07,0.0,0.0,0.0,1.21846967915e-07,-0.2157463,0.63743225,13.22917085,9e-08,0.0,0.0,0.0,9e-08,0.0,0.0,0.0,9e-08
1538769607944006496,1164,1538769607943205600,base_link,-0.265524456636,-0.0713212928027,-0.186972146563,-0.943107338817,1.0,0.0,0.0,0.0,1.0,0.0,0.0,0.0,1.0,-0.137544289231,-0.384275048971,-0.40350279212,1.21846967915e-07,0.0,0.0,0.0,1.21846967915e-07,0.0,0.0,0.0,1.21846967915e-07,-0.0392266,0.38245935,13.8077632,9e-08,0.0,0.0,0.0,9e-08,0.0,0.0,0.0,9e-08
1538769608350426464,1165,1538769608350087872,base_link,-0.241577579933,-0.0143284725528,-0.107769476686,-0.964272112862,1.0,0.0,0.0,0.0,1.0,0.0,0.0,0.0,1.0,-0.326689362526,-0.320861905813,-0.274496287107,1.21846967915e-07,0.0,0.0,0.0,1.21846967915e-07,0.0,0.0,0.0,1.21846967915e-07,0.12748645,0.28439285,14.19022255,9e-08,0.0,0.0,0.0,9e-08,0.0,0.0,0.0,9e-08
1538769608859197056,1166,1538769608858917024,base_link,-0.179280007217,0.0391438005225,-0.03769590087,-0.982296014932,1.0,0.0,0.0,0.0,1.0,0.0,0.0,0.0,1.0,-0.341071546078,-0.178759142756,-0.19010001421,1.21846967915e-07,0.0,0.0,0.0,1.21846967915e-07,0.0,0.0,0.0,1.21846967915e-07,0.0588399,0.2353596,12.64077185,9e-08,0.0,0.0,0.0,9e-08,0.0,0.0,0.0,9e-08
1538769609348433952,1167,1538769609348045280,base_link,-0.0764739275627,0.0577831881097,0.00843743193549,-0.995360061142,1.0,0.0,0.0,0.0,1.0,0.0,0.0,0.0,1.0,-0.47908064723,-0.0307806171477,-0.153024315834,1.21846967915e-07,0.0,0.0,0.0,1.21846967915e-07,0.0,0.0,0.0,1.21846967915e-07,-0.04903325,0.1569064,10.64021525,9e-08,0.0,0.0,0.0,9e-08,0.0,0.0,0.0,9e-08
1538769609761158912,1168,1538769609760879776,base_link,-0.00335552948664,0.050025875425,0.0339819173739,-0.998164005312,1.0,0.0,0.0,0.0,1.0,0.0,0.0,0.0,1.0,-0.235331356525,0.0692797079682,-0.0495211109519,1.21846967915e-07,0.0,0.0,0.0,1.21846967915e-07,0.0,0.0,0.0,1.21846967915e-07,-0.30400615,0.1176798,8.18855275,9e-08,0.0,0.0,0.0,9e-08,0.0,0.0,0.0,9e-08
1538769610022234016,1169,1538769610021977472,base_link,0.0301424242066,0.0414127809528,0.0360781119916,-0.998035463133,1.0,0.0,0.0,0.0,1.0,0.0,0.0,0.0,1.0,-0.266375601292,0.0605794899166,0.0335558317602,1.21846967915e-07,0.0,0.0,0.0,1.21846967915e-07,0.0,0.0,0.0,1.21846967915e-07,-0.2353596,0.08825985,8.6102387,9e-08,0.0,0.0,0.0,9e-08,0.0,0.0,0.0,9e-08
1538769610342148000,1170,1538769610341655200,base_link,0.0697888529936,0.0331836743658,0.0280505535145,-0.996615034103,1.0,0.0,0.0,0.0,1.0,0.0,0.0,0.0,1.0,-0.182036161423,0.0281864888966,0.0857258737087,1.21846967915e-07,0.0,0.0,0.0,1.21846967915e-07,0.0,0.0,0.0,1.21846967915e-07,0.0,1.12530725333e-15,9.18883105,9e-08,0.0,0.0,0.0,9e-08,0.0,0.0,0.0,9e-08
1538769610667021728,1171,1538769610665700864,base_link,0.104954963349,0.0262260566323,0.00874120766637,-0.994092672194,1.0,0.0,0.0,0.0,1.0,0.0,0.0,0.0,1.0,-0.159644916654,0.0311382897198,0.154509350657,1.21846967915e-07,0.0,0.0,0.0,1.21846967915e-07,0.0,0.0,0.0,1.21846967915e-07,0.0784532,-0.02941995,9.022118,9e-08,0.0,0.0,0.0,9e-08,0.0,0.0,0.0,9e-08
1538769611049027232,1172,1538769611048607392,base_link,0.130071386795,0.0160520080731,-0.0304257508879,-0.990907685436,1.0,0.0,0.0,0.0,1.0,0.0,0.0,0.0,1.0,-0.186856284738,0.00657246541232,0.273335158825,1.21846967915e-07,0.0,0.0,0.0,1.21846967915e-07,0.0,0.0,0.0,1.21846967915e-07,0.30400615,-0.0196133,9.8262633,9e-08,0.0,0.0,0.0,9e-08,0.0,0.0,0.0,9e-08
1538769611461720416,1173,1538769611460781184,base_link,0.152316626001,0.0117872074653,-0.0916645348788,-0.984001178978,1.0,0.0,0.0,0.0,1.0,0.0,0.0,0.0,1.0,-0.0659681111574,-0.0718951299787,0.296859532595,1.21846967915e-07,0.0,0.0,0.0,1.21846967915e-07,0.0,0.0,0.0,1.21846967915e-07,0.0784532,0.08825985,9.7870367,9e-08,0.0,0.0,0.0,9e-08,0.0,0.0,0.0,9e-08
1538769611863878592,1174,1538769611863613376,base_link,0.161764899196,0.0263544934034,-0.154642605688,-0.97428087458,1.0,0.0,0.0,0.0,1.0,0.0,0.0,0.0,1.0,0.0473687425256,-0.108226753771,0.261042773724,1.21846967915e-07,0.0,0.0,0.0,1.21846967915e-07,0.0,0.0,0.0,1.21846967915e-07,0.26477955,0.0196133,10.4931155,9e-08,0.0,0.0,0.0,9e-08,0.0,0.0,0.0,9e-08
1538769612289635264,1175,1538769612289152192,base_link,0.128094464004,0.0358157265151,-0.218557811317,-0.966716879514,1.0,0.0,0.0,0.0,1.0,0.0,0.0,0.0,1.0,0.348102480173,-0.0976542532444,0.284057378769,1.21846967915e-07,0.0,0.0,0.0,1.21846967915e-07,0.0,0.0,0.0,1.21846967915e-07,0.51975245,0.1372931,11.6306869,9e-08,0.0,0.0,0.0,9e-08,0.0,0.0,0.0,9e-08
