%time,field.header.seq,field.header.stamp,field.header.frame_id,field.orientation.x,field.orientation.y,field.orientation.z,field.orientation.w,field.orientation_covariance0,field.orientation_covariance1,field.orientation_covariance2,field.orientation_covariance3,field.orientation_covariance4,field.orientation_covariance5,field.orientation_covariance6,field.orientation_covariance7,field.orientation_covariance8,field.angular_velocity.x,field.angular_velocity.y,field.angular_velocity.z,field.angular_velocity_covariance0,field.angular_velocity_covariance1,field.angular_velocity_covariance2,field.angular_velocity_covariance3,field.angular_velocity_covariance4,field.angular_velocity_covariance5,field.angular_velocity_covariance6,field.angular_velocity_covariance7,field.angular_velocity_covariance8,field.linear_acceleration.x,field.linear_acceleration.y,field.linear_acceleration.z,field.linear_acceleration_covariance0,field.linear_acceleration_covariance1,field.linear_acceleration_covariance2,field.linear_acceleration_covariance3,field.linear_acceleration_covariance4,field.linear_acceleration_covariance5,field.linear_acceleration_covariance6,field.linear_acceleration_covariance7,field.linear_acceleration_covariance8
1536692144815328696,2533,1536692144815126904,base_link,-0.00570186757533,-0.0243759772976,-0.986003686358,-0.164833342883,1.0,0.0,0.0,0.0,1.0,0.0,0.0,0.0,1.0,1.19835186005,-0.00392702966928,-0.0465687327087,1.21846967915e-07,0.0,0.0,0.0,1.21846967915e-07,0.0,0.0,0.0,1.21846967915e-07,-0.40207265,0.12748645,8.46313895,9e-08,0.0,0.0,0.0,9e-08,0.0,0.0,0.0,9e-08
1536692145302239320,2534,1536692145301961560,base_link,-0.0277791010858,-0.23293968656,-0.958537940336,-0.161778987831,1.0,0.0,0.0,0.0,1.0,0.0,0.0,0.0,1.0,0.344503939152,0.0932438373566,-0.0817186832428,1.21846967915e-07,0.0,0.0,0.0,1.21846967915e-07,0.0,0.0,0.0,1.21846967915e-07,-1.3533177,0.53936575,7.87473995,9e-08,0.0,0.0,0.0,9e-08,0.0,0.0,0.0,9e-08
1536692145691413272,2535,1536692145691163192,base_link,-0.00440870100245,-0.276876046727,-0.941414305523,-0.19250798285,1.0,0.0,0.0,0.0,1.0,0.0,0.0,0.0,1.0,0.204759195447,0.108409002423,-0.27747130394,1.21846967915e-07,0.0,0.0,0.0,1.21846967915e-07,0.0,0.0,0.0,1.21846967915e-07,-1.63771055,0.48052585,4.1384063,9e-08,0.0,0.0,0.0,9e-08,0.0,0.0,0.0,9e-08
1536692146060852152,2536,1536692146060626840,base_link,0.0227097804267,-0.314627864978,-0.920235079605,-0.231648377324,1.0,0.0,0.0,0.0,1.0,0.0,0.0,0.0,1.0,-0.0137960314751,0.0872504785657,-0.250878304243,1.21846967915e-07,0.0,0.0,0.0,1.21846967915e-07,0.0,0.0,0.0,1.21846967915e-07,-1.9809433,0.6472389,5.8643767,9e-08,0.0,0.0,0.0,9e-08,0.0,0.0,0.0,9e-08
1536692146443526008,2537,1536692146441894360,base_link,0.0488550435643,-0.314407424868,-0.909141750754,-0.268742316993,1.0,0.0,0.0,0.0,1.0,0.0,0.0,0.0,1.0,-0.00680098868906,0.0390493273735,-0.169687449932,1.21846967915e-07,0.0,0.0,0.0,1.21846967915e-07,0.0,0.0,0.0,1.21846967915e-07,-2.2163029,0.93163175,7.75706015,9e-08,0.0,0.0,0.0,9e-08,0.0,0.0,0.0,9e-08
1536692146736267288,2538,1536692146736000216,base_link,0.0685526228094,-0.290130918294,-0.90895191224,-0.291429252806,1.0,0.0,0.0,0.0,1.0,0.0,0.0,0.0,1.0,-0.278509527445,0.0450337938964,-0.243243917823,1.21846967915e-07,0.0,0.0,0.0,1.21846967915e-07,0.0,0.0,0.0,1.21846967915e-07,-2.1378497,1.1571847,6.54103555,9e-08,0.0,0.0,0.0,9e-08,0.0,0.0,0.0,9e-08
1536692147194703992,2539,1536692147194408888,base_link,0.0983441356391,-0.253230364142,-0.903750103145,-0.330815000759,1.0,0.0,0.0,0.0,1.0,0.0,0.0,0.0,1.0,-0.168392598629,0.00738714123145,-0.164857417345,1.21846967915e-07,0.0,0.0,0.0,1.21846967915e-07,0.0,0.0,0.0,1.21846967915e-07,-2.353596,0.4707192,9.1005712,9e-08,0.0,0.0,0.0,9e-08,0.0,0.0,0.0,9e-08
1536692147537789272,2540,1536692147537297048,base_link,0.118327045129,-0.222483069768,-0.901962146709,-0.350662629834,1.0,0.0,0.0,0.0,1.0,0.0,0.0,0.0,1.0,-0.295632898808,0.014770725742,-0.167554974556,1.21846967915e-07,0.0,0.0,0.0,1.21846967915e-07,0.0,0.0,0.0,1.21846967915e-07,-2.40262925,0.0392266,9.30651085,9e-08,0.0,0.0,0.0,9e-08,0.0,0.0,0.0,9e-08
1536692147966200120,2541,1536692147965240024,base_link,0.142467987797,-0.188180796233,-0.895360668122,-0.377650810091,1.0,0.0,0.0,0.0,1.0,0.0,0.0,0.0,1.0,-0.0739471316338,-0.0073140123859,-0.131621718407,1.21846967915e-07,0.0,0.0,0.0,1.21846967915e-07,0.0,0.0,0.0,1.21846967915e-07,-2.5301157,0.00980665,8.4141057,9e-08,0.0,0.0,0.0,9e-08,0.0,0.0,0.0,9e-08
1536692148346651192,2542,1536692148346070328,base_link,0.158955458895,-0.155115179535,-0.89999367308,-0.375078433905,1.0,0.0,0.0,0.0,1.0,0.0,0.0,0.0,1.0,-0.262399703264,0.0144230276346,0.022362915799,1.21846967915e-07,0.0,0.0,0.0,1.21846967915e-07,0.0,0.0,0.0,1.21846967915e-07,-2.65760215,0.7256921,7.87473995,9e-08,0.0,0.0,0.0,9e-08,0.0,0.0,0.0,9e-08
1536692148698541720,2543,1536692148697894872,base_link,0.170194750415,-0.117464802365,-0.902151631076,-0.378626731338,1.0,0.0,0.0,0.0,1.0,0.0,0.0,0.0,1.0,-0.0734856724739,-0.0452703796327,-0.101581938565,1.21846967915e-07,0.0,0.0,0.0,1.21846967915e-07,0.0,0.0,0.0,1.21846967915e-07,-2.745862,0.8237586,9.6889702,9e-08,0.0,0.0,0.0,9e-08,0.0,0.0,0.0,9e-08
1536692149085551928,2544,1536692149082110264,base_link,0.152370176483,-0.0934251649684,-0.904590651362,-0.387002353143,1.0,0.0,0.0,0.0,1.0,0.0,0.0,0.0,1.0,0.182389065623,-0.199546083808,0.00544054387137,1.21846967915e-07,0.0,0.0,0.0,1.21846967915e-07,0.0,0.0,0.0,1.21846967915e-07,-2.57914895,0.12748645,13.0232312,9e-08,0.0,0.0,0.0,9e-08,0.0,0.0,0.0,9e-08
1536692149423365336,2545,1536692149422960984,base_link,0.11141236306,-0.0781791923989,-0.913769297657,-0.382754451173,1.0,0.0,0.0,0.0,1.0,0.0,0.0,0.0,1.0,-0.178435772657,-0.300178259611,0.0558084137738,1.21846967915e-07,0.0,0.0,0.0,1.21846967915e-07,0.0,0.0,0.0,1.21846967915e-07,-1.81423025,0.50013915,16.30845895,9e-08,0.0,0.0,0.0,9e-08,0.0,0.0,0.0,9e-08
1536692149801548568,2546,1536692149801085144,base_link,0.0823234860796,-0.00520109053622,-0.920957027345,-0.380833226074,1.0,0.0,0.0,0.0,1.0,0.0,0.0,0.0,1.0,-0.214733317494,-0.279800534248,-0.0345606952906,1.21846967915e-07,0.0,0.0,0.0,1.21846967915e-07,0.0,0.0,0.0,1.21846967915e-07,-0.89240515,0.588399,14.50403535,9e-08,0.0,0.0,0.0,9e-08,0.0,0.0,0.0,9e-08
1536692150261918488,2547,1536692150261599608,base_link,0.0243292343114,0.0107658048511,-0.926188973437,-0.376119889514,1.0,0.0,0.0,0.0,1.0,0.0,0.0,0.0,1.0,0.128709971905,-0.226186946034,0.0437851734459,1.21846967915e-07,0.0,0.0,0.0,1.21846967915e-07,0.0,0.0,0.0,1.21846967915e-07,-0.40207265,0.196133,14.44519545,9e-08,0.0,0.0,0.0,9e-08,0.0,0.0,0.0,9e-08
1536692150686512696,2548,1536692150686089016,base_link,-0.0277420394486,0.000474179002786,-0.929419529533,-0.367980288229,1.0,0.0,0.0,0.0,1.0,0.0,0.0,0.0,1.0,0.0696687698364,-0.169086247683,0.0493008233607,1.21846967915e-07,0.0,0.0,0.0,1.21846967915e-07,0.0,0.0,0.0,1.21846967915e-07,-0.0392266,0.5295591,14.91591465,9e-08,0.0,0.0,0.0,9e-08,0.0,0.0,0.0,9e-08
1536692151103360280,2549,1536692151103005400,base_link,-0.0584631777463,-0.0087798740509,-0.929003928023,-0.365317221571,1.0,0.0,0.0,0.0,1.0,0.0,0.0,0.0,1.0,0.107256688178,-0.117491714656,-0.00220311200246,1.21846967915e-07,0.0,0.0,0.0,1.21846967915e-07,0.0,0.0,0.0,1.21846967915e-07,-0.0196133,0.4314926,11.76798,9e-08,0.0,0.0,0.0,9e-08,0.0,0.0,0.0,9e-08
1536692151472560952,2550,1536692151469895576,base_link,-0.0721166816007,-0.0131242270768,-0.929328582589,-0.361905131881,1.0,0.0,0.0,0.0,1.0,0.0,0.0,0.0,1.0,0.15255112946,-0.030119009316,-0.00264142872766,1.21846967915e-07,0.0,0.0,0.0,1.21846967915e-07,0.0,0.0,0.0,1.21846967915e-07,-0.1569064,0.28439285,11.6895268,9e-08,0.0,0.0,0.0,9e-08,0.0,0.0,0.0,9e-08
1536692151903653336,2551,1536692151903447928,base_link,-0.0749715533111,-0.0295184585845,-0.927072675454,-0.366120446335,1.0,0.0,0.0,0.0,1.0,0.0,0.0,0.0,1.0,-0.0296643152833,0.0346069484949,-0.0742815062404,1.21846967915e-07,0.0,0.0,0.0,1.21846967915e-07,0.0,0.0,0.0,1.21846967915e-07,-0.2941995,0.30400615,9.22805765,9e-08,0.0,0.0,0.0,9e-08,0.0,0.0,0.0,9e-08
1536692152342900824,2552,1536692152342372952,base_link,-0.0730822512199,-0.0659459755251,-0.921125795954,-0.376613038671,1.0,0.0,0.0,0.0,1.0,0.0,0.0,0.0,1.0,0.141614049673,0.0902121290565,-0.0460858084261,1.21846967915e-07,0.0,0.0,0.0,1.21846967915e-07,0.0,0.0,0.0,1.21846967915e-07,-0.48052585,0.08825985,7.1392412,9e-08,0.0,0.0,0.0,9e-08,0.0,0.0,0.0,9e-08
1536692152683050744,2553,1536692152682756120,base_link,-0.064072195263,-0.0920926285287,-0.918136530661,-0.380051328942,1.0,0.0,0.0,0.0,1.0,0.0,0.0,0.0,1.0,0.124441429973,0.109626151621,-0.0307058766484,1.21846967915e-07,0.0,0.0,0.0,1.21846967915e-07,0.0,0.0,0.0,1.21846967915e-07,-0.59820565,6.85752872626e-16,5.59959715,9e-08,0.0,0.0,0.0,9e-08,0.0,0.0,0.0,9e-08
1536692153151344344,2554,1536692153149986808,base_link,-0.0597856323078,-0.120684614303,-0.914044408305,-0.382601256776,1.0,0.0,0.0,0.0,1.0,0.0,0.0,0.0,1.0,0.11578977108,0.070743791759,-0.0625587403774,1.21846967915e-07,0.0,0.0,0.0,1.21846967915e-07,0.0,0.0,0.0,1.21846967915e-07,-0.38245935,0.2157463,7.89435325,9e-08,0.0,0.0,0.0,9e-08,0.0,0.0,0.0,9e-08
1536692153566939480,2555,1536692153566591928,base_link,-0.067541399675,-0.16766186858,-0.900348098042,-0.395854720202,1.0,0.0,0.0,0.0,1.0,0.0,0.0,0.0,1.0,0.235671132803,0.0242532994598,-0.120321057737,1.21846967915e-07,0.0,0.0,0.0,1.21846967915e-07,0.0,0.0,0.0,1.21846967915e-07,-0.4118793,0.46091255,8.69849855,9e-08,0.0,0.0,0.0,9e-08,0.0,0.0,0.0,9e-08
1536692153947702744,2556,1536692153947372376,base_link,-0.0820689044393,-0.208038945739,-0.879800112889,-0.419447557319,1.0,0.0,0.0,0.0,1.0,0.0,0.0,0.0,1.0,0.216903910041,-0.0390127524734,-0.17295858264,1.21846967915e-07,0.0,0.0,0.0,1.21846967915e-07,0.0,0.0,0.0,1.21846967915e-07,-0.0980665,0.5687857,9.20844435,9e-08,0.0,0.0,0.0,9e-08,0.0,0.0,0.0,9e-08
1536692154414472024,2557,1536692154406050968,base_link,-0.113996297631,-0.259942219593,-0.843462894068,-0.456075906982,1.0,0.0,0.0,0.0,1.0,0.0,0.0,0.0,1.0,0.34163659811,-0.123094797134,-0.226134434342,1.21846967915e-07,0.0,0.0,0.0,1.21846967915e-07,0.0,0.0,0.0,1.21846967915e-07,0.1176798,0.71588545,10.07142955,9e-08,0.0,0.0,0.0,9e-08,0.0,0.0,0.0,9e-08
1536692154791093560,2558,1536692154790736536,base_link,-0.147218714736,-0.287142754922,-0.806252357145,-0.495815313323,1.0,0.0,0.0,0.0,1.0,0.0,0.0,0.0,1.0,0.211821869016,-0.19068774581,-0.264900028706,1.21846967915e-07,0.0,0.0,0.0,1.21846967915e-07,0.0,0.0,0.0,1.21846967915e-07,0.3726527,0.81395195,10.6304086,9e-08,0.0,0.0,0.0,9e-08,0.0,0.0,0.0,9e-08
1536692155218850904,2559,1536692155218499928,base_link,-0.19375058652,-0.296387073581,-0.754782430566,-0.552194617274,1.0,0.0,0.0,0.0,1.0,0.0,0.0,0.0,1.0,0.0872265473008,-0.280132263899,-0.273461580276,1.21846967915e-07,0.0,0.0,0.0,1.21846967915e-07,0.0,0.0,0.0,1.21846967915e-07,1.06892485,0.980665,12.99381125,9e-08,0.0,0.0,0.0,9e-08,0.0,0.0,0.0,9e-08
1536692155725457464,2560,1536692155725140344,base_link,-0.262405745404,-0.292681438575,-0.682857627872,-0.615781016555,1.0,0.0,0.0,0.0,1.0,0.0,0.0,0.0,1.0,0.0941361784935,-0.372356384993,-0.232161566615,1.21846967915e-07,0.0,0.0,0.0,1.21846967915e-07,0.0,0.0,0.0,1.21846967915e-07,1.6867438,1.22583125,15.2591474,9e-08,0.0,0.0,0.0,9e-08,0.0,0.0,0.0,9e-08
1536692156306312312,2561,1536692156305732920,base_link,-0.31354264096,-0.249997538239,-0.594392772228,-0.697057727521,1.0,0.0,0.0,0.0,1.0,0.0,0.0,0.0,1.0,-0.13087515533,-0.352704912424,-0.320856302977,1.21846967915e-07,0.0,0.0,0.0,1.21846967915e-07,0.0,0.0,0.0,1.21846967915e-07,1.83384355,1.4121576,15.26895405,9e-08,0.0,0.0,0.0,9e-08,0.0,0.0,0.0,9e-08
1536692156729536152,2562,1536692156728822872,base_link,-0.33416327397,-0.207455259868,-0.520305121979,-0.758010423098,1.0,0.0,0.0,0.0,1.0,0.0,0.0,0.0,1.0,-0.0670017823577,-0.387505412102,-0.285589456558,1.21846967915e-07,0.0,0.0,0.0,1.21846967915e-07,0.0,0.0,0.0,1.21846967915e-07,1.87307015,0.7453054,15.5925735,9e-08,0.0,0.0,0.0,9e-08,0.0,0.0,0.0,9e-08
1536692157181821848,2563,1536692157181435160,base_link,-0.355550406151,-0.145275438135,-0.446614363634,-0.808093166631,1.0,0.0,0.0,0.0,1.0,0.0,0.0,0.0,1.0,-0.0515678711236,-0.357171863317,-0.255950778723,1.21846967915e-07,0.0,0.0,0.0,1.21846967915e-07,0.0,0.0,0.0,1.21846967915e-07,1.3925443,1.26505785,15.48470035,9e-08,0.0,0.0,0.0,9e-08,0.0,0.0,0.0,9e-08
1536692157557260824,2564,1536692157556979896,base_link,-0.378017563875,-0.112967331368,-0.379226996745,-0.836975500469,1.0,0.0,0.0,0.0,1.0,0.0,0.0,0.0,1.0,0.00142629258335,-0.322303920984,-0.298321336508,1.21846967915e-07,0.0,0.0,0.0,1.21846967915e-07,0.0,0.0,0.0,1.21846967915e-07,1.0002783,1.0787315,15.11204765,9e-08,0.0,0.0,0.0,9e-08,0.0,0.0,0.0,9e-08
1536692157888082424,2565,1536692157887821784,base_link,-0.396039572319,-0.0869464068996,-0.31601594839,-0.85774524181,1.0,0.0,0.0,0.0,1.0,0.0,0.0,0.0,1.0,0.0876642912626,-0.335725963116,-0.255483210087,1.21846967915e-07,0.0,0.0,0.0,1.21846967915e-07,0.0,0.0,0.0,1.21846967915e-07,0.95124505,0.2941995,13.79795655,9e-08,0.0,0.0,0.0,9e-08,0.0,0.0,0.0,9e-08
1536692158354338936,2566,1536692158354086424,base_link,-0.408241904034,-0.0441867015572,-0.231039034738,-0.882047077895,1.0,0.0,0.0,0.0,1.0,0.0,0.0,0.0,1.0,-0.230754628778,-0.234449028969,-0.290021657944,1.21846967915e-07,0.0,0.0,0.0,1.21846967915e-07,0.0,0.0,0.0,1.21846967915e-07,0.784532,0.8629852,11.87585315,9e-08,0.0,0.0,0.0,9e-08,0.0,0.0,0.0,9e-08
1536692158740691736,2567,1536692158740466264,base_link,-0.386753581818,-0.021609157855,-0.160974014433,-0.907767634323,1.0,0.0,0.0,0.0,1.0,0.0,0.0,0.0,1.0,-0.159654304385,-0.202303230762,-0.328255236149,1.21846967915e-07,0.0,0.0,0.0,1.21846967915e-07,0.0,0.0,0.0,1.21846967915e-07,0.3334261,0.5491724,11.7875933,9e-08,0.0,0.0,0.0,9e-08,0.0,0.0,0.0,9e-08
1536692159045200120,2568,1536692159044679256,base_link,-0.386231132493,-0.00676918561209,-0.104868750699,-0.916396331041,1.0,0.0,0.0,0.0,1.0,0.0,0.0,0.0,1.0,-0.0220764484257,-0.203683584929,-0.260341703892,1.21846967915e-07,0.0,0.0,0.0,1.21846967915e-07,0.0,0.0,0.0,1.21846967915e-07,0.06864655,0.46091255,10.73828175,9e-08,0.0,0.0,0.0,9e-08,0.0,0.0,0.0,9e-08
1536692159483278776,2569,1536692159482981496,base_link,-0.373194379354,0.00919136602378,-0.0291766700991,-0.927248723877,1.0,0.0,0.0,0.0,1.0,0.0,0.0,0.0,1.0,-0.108151510358,-0.164731457829,-0.356052219868,1.21846967915e-07,0.0,0.0,0.0,1.21846967915e-07,0.0,0.0,0.0,1.21846967915e-07,-0.0196133,1.01008495,10.85596155,9e-08,0.0,0.0,0.0,9e-08,0.0,0.0,0.0,9e-08
1536692159936622488,2570,1536692159936260216,base_link,-0.344331615691,0.0222137882736,0.057470219015,-0.936824135029,1.0,0.0,0.0,0.0,1.0,0.0,0.0,0.0,1.0,-0.258514553308,-0.182710826397,-0.319370508194,1.21846967915e-07,0.0,0.0,0.0,1.21846967915e-07,0.0,0.0,0.0,1.21846967915e-07,-0.3530394,0.7256921,11.179581,9e-08,0.0,0.0,0.0,9e-08,0.0,0.0,0.0,9e-08
1536692160272998616,2571,1536692160272582936,base_link,-0.293624920374,0.0321106725162,0.118827085299,-0.947962781255,1.0,0.0,0.0,0.0,1.0,0.0,0.0,0.0,1.0,-0.36205804348,-0.185851186514,-0.240671828389,1.21846967915e-07,0.0,0.0,0.0,1.21846967915e-07,0.0,0.0,0.0,1.21846967915e-07,-0.34323275,0.4118793,12.6113519,9e-08,0.0,0.0,0.0,9e-08,0.0,0.0,0.0,9e-08
1536692160745048952,2572,1536692160744690456,base_link,-0.179697037004,0.033163576773,0.175786081441,-0.967320218769,1.0,0.0,0.0,0.0,1.0,0.0,0.0,0.0,1.0,-0.562684714794,-0.072232849896,-0.197466522455,1.21846967915e-07,0.0,0.0,0.0,1.21846967915e-07,0.0,0.0,0.0,1.21846967915e-07,-0.61781895,0.71588545,11.22861425,9e-08,0.0,0.0,0.0,9e-08,0.0,0.0,0.0,9e-08
1536692161102045400,2573,1536692161101679960,base_link,-0.0862753396247,0.0208781072804,0.204205721132,-0.974895221994,1.0,0.0,0.0,0.0,1.0,0.0,0.0,0.0,1.0,-0.579483866692,-0.0155682181939,-0.116608805954,1.21846967915e-07,0.0,0.0,0.0,1.21846967915e-07,0.0,0.0,0.0,1.21846967915e-07,-0.8433719,0.4707192,10.8657682,9e-08,0.0,0.0,0.0,9e-08,0.0,0.0,0.0,9e-08
1536692161586304088,2574,1536692161585856536,base_link,0.0449908582094,-0.0106407192171,0.221197812251,-0.97413249901,1.0,0.0,0.0,0.0,1.0,0.0,0.0,0.0,1.0,-0.349049001932,0.00495749618858,-0.0179125592113,1.21846967915e-07,0.0,0.0,0.0,1.21846967915e-07,0.0,0.0,0.0,1.21846967915e-07,-0.8825985,0.0784532,9.0809579,9e-08,0.0,0.0,0.0,9e-08,0.0,0.0,0.0,9e-08
1536692162088358328,2575,1536692162088061240,base_link,0.130883287499,-0.0342474670442,0.201112639459,-0.970180592624,1.0,0.0,0.0,0.0,1.0,0.0,0.0,0.0,1.0,-0.302453458309,0.00696255359799,0.154402464628,1.21846967915e-07,0.0,0.0,0.0,1.21846967915e-07,0.0,0.0,0.0,1.21846967915e-07,-0.8041453,0.08825985,9.77723005,9e-08,0.0,0.0,0.0,9e-08,0.0,0.0,0.0,9e-08
1536692162462234392,2576,1536692162461738488,base_link,0.156785599149,-0.0494020789148,0.168921679205,-0.971824663606,1.0,0.0,0.0,0.0,1.0,0.0,0.0,0.0,1.0,-0.0807905942202,0.0350948870182,0.172473713756,1.21846967915e-07,0.0,0.0,0.0,1.21846967915e-07,0.0,0.0,0.0,1.21846967915e-07,-0.7649187,0.20593965,8.62004535,9e-08,0.0,0.0,0.0,9e-08,0.0,0.0,0.0,9e-08
1536692162916797528,2577,1536692162916514808,base_link,0.157817596969,-0.0618551876402,0.127136468374,-0.977294152371,1.0,0.0,0.0,0.0,1.0,0.0,0.0,0.0,1.0,0.0343816354871,-0.00166828650981,0.161508232355,1.21846967915e-07,0.0,0.0,0.0,1.21846967915e-07,0.0,0.0,0.0,1.21846967915e-07,-0.79433865,0.06864655,8.20816605,9e-08,0.0,0.0,0.0,9e-08,0.0,0.0,0.0,9e-08
1536692163288162872,2578,1536692163287821752,base_link,0.149759246137,-0.0620082410207,0.0987372943458,-0.981823860449,1.0,0.0,0.0,0.0,1.0,0.0,0.0,0.0,1.0,0.053987685591,-0.0242117270827,0.159346312284,1.21846967915e-07,0.0,0.0,0.0,1.21846967915e-07,0.0,0.0,0.0,1.21846967915e-07,-0.6668522,0.1372931,9.0809579,9e-08,0.0,0.0,0.0,9e-08,0.0,0.0,0.0,9e-08
1536692163657282424,2579,1536692163656905112,base_link,0.131599712076,-0.0578439267917,0.0660853228985,-0.987404844029,1.0,0.0,0.0,0.0,1.0,0.0,0.0,0.0,1.0,0.110112950206,-0.0578706525266,0.180112332106,1.21846967915e-07,0.0,0.0,0.0,1.21846967915e-07,0.0,0.0,0.0,1.21846967915e-07,-0.5491724,0.2353596,10.14988275,9e-08,0.0,0.0,0.0,9e-08,0.0,0.0,0.0,9e-08
1536692164118487512,2580,1536692164118198872,base_link,0.101326525843,-0.0466946315969,0.0276015488736,-0.99337339457,1.0,0.0,0.0,0.0,1.0,0.0,0.0,0.0,1.0,0.111737236381,-0.0589866936207,0.15420538187,1.21846967915e-07,0.0,0.0,0.0,1.21846967915e-07,0.0,0.0,0.0,1.21846967915e-07,-0.32361945,0.2157463,10.62060195,9e-08,0.0,0.0,0.0,9e-08,0.0,0.0,0.0,9e-08
1536692164595866904,2581,1536692164595527256,base_link,0.0638986276599,-0.0319330309691,-0.0039509540396,-0.997437535327,1.0,0.0,0.0,0.0,1.0,0.0,0.0,0.0,1.0,0.179848536849,-0.080410823226,0.0884482637048,1.21846967915e-07,0.0,0.0,0.0,1.21846967915e-07,0.0,0.0,0.0,1.21846967915e-07,-0.14709975,0.4118793,10.8069283,9e-08,0.0,0.0,0.0,9e-08,0.0,0.0,0.0,9e-08
1536692164997108568,2582,1536692164996803608,base_link,0.0303913717894,-0.0149877711221,-0.0191269662348,-0.999242658417,1.0,0.0,0.0,0.0,1.0,0.0,0.0,0.0,1.0,0.150422170758,-0.0862383469939,0.0659454315901,1.21846967915e-07,0.0,0.0,0.0,1.21846967915e-07,0.0,0.0,0.0,1.21846967915e-07,-0.0588399,0.12748645,11.8856598,9e-08,0.0,0.0,0.0,9e-08,0.0,0.0,0.0,9e-08
1536692165487001464,2583,1536692165486581240,base_link,-0.0135476756492,0.0015407261498,-0.0327684915356,-0.999369957828,1.0,0.0,0.0,0.0,1.0,0.0,0.0,0.0,1.0,0.196210697293,-0.0500009246171,0.0412814095616,1.21846967915e-07,0.0,0.0,0.0,1.21846967915e-07,0.0,0.0,0.0,1.21846967915e-07,0.06864655,0.42168595,11.3953273,9e-08,0.0,0.0,0.0,9e-08,0.0,0.0,0.0,9e-08
1536692165931485848,2584,1536692165931246040,base_link,-0.0460399112217,0.00840122862995,-0.0388663649819,-0.998147860592,1.0,0.0,0.0,0.0,1.0,0.0,0.0,0.0,1.0,0.0988325029612,-0.0226220693439,-0.00304432259873,1.21846967915e-07,0.0,0.0,0.0,1.21846967915e-07,0.0,0.0,0.0,1.21846967915e-07,0.04903325,0.36284605,11.0226746,9e-08,0.0,0.0,0.0,9e-08,0.0,0.0,0.0,9e-08
1536692166448483736,2585,1536692166448109976,base_link,-0.0567793776348,0.0125473258606,-0.0309209882513,-0.997828922899,1.0,0.0,0.0,0.0,1.0,0.0,0.0,0.0,1.0,0.0586829856038,-0.0230799354613,-0.0419328436255,1.21846967915e-07,0.0,0.0,0.0,1.21846967915e-07,0.0,0.0,0.0,1.21846967915e-07,0.02941995,0.4314926,10.2969825,9e-08,0.0,0.0,0.0,9e-08,0.0,0.0,0.0,9e-08
1536692166801809336,2586,1536692166799901272,base_link,-0.0671041855384,0.0150664597741,-0.0250521860625,-0.997317611419,1.0,0.0,0.0,0.0,1.0,0.0,0.0,0.0,1.0,-0.00140508171171,-0.0195068530738,-0.0276787113398,1.21846967915e-07,0.0,0.0,0.0,1.21846967915e-07,0.0,0.0,0.0,1.21846967915e-07,0.1372931,0.2157463,9.8458766,9e-08,0.0,0.0,0.0,9e-08,0.0,0.0,0.0,9e-08
1536692167147688760,2587,1536692167147428664,base_link,-0.0549751033513,0.0166389846721,-0.0193252503906,-0.998162019363,1.0,0.0,0.0,0.0,1.0,0.0,0.0,0.0,1.0,-0.0786521583796,0.0237604994327,-0.0370334871113,1.21846967915e-07,0.0,0.0,0.0,1.21846967915e-07,0.0,0.0,0.0,1.21846967915e-07,0.16671305,0.24516625,10.07142955,9e-08,0.0,0.0,0.0,9e-08,0.0,0.0,0.0,9e-08
1536692167612847000,2588,1536692167612378840,base_link,-0.0324833951755,0.00991597170095,-0.01479481219,-0.999313572446,1.0,0.0,0.0,0.0,1.0,0.0,0.0,0.0,1.0,-0.141450598836,0.03598247841,-0.0306975580752,1.21846967915e-07,0.0,0.0,0.0,1.21846967915e-07,0.0,0.0,0.0,1.21846967915e-07,0.2549729,0.51975245,9.56148375,9e-08,0.0,0.0,0.0,9e-08,0.0,0.0,0.0,9e-08
1536692168008635928,2589,1536692168008149528,base_link,-0.0169505443952,0.00463728994854,-0.0106984215547,-0.999788336781,1.0,0.0,0.0,0.0,1.0,0.0,0.0,0.0,1.0,0.0136029021814,0.00880523771048,-0.0129743013531,1.21846967915e-07,0.0,0.0,0.0,1.21846967915e-07,0.0,0.0,0.0,1.21846967915e-07,0.3138128,0.3530394,9.4339973,9e-08,0.0,0.0,0.0,9e-08,0.0,0.0,0.0,9e-08
1536692168301076376,2590,1536692168299559480,base_link,-0.01702449217,0.00477033382866,-0.0113470478044,-0.99977930319,1.0,0.0,0.0,0.0,1.0,0.0,0.0,0.0,1.0,-0.00911368057132,0.00847447477281,0.0403002649546,1.21846967915e-07,0.0,0.0,0.0,1.21846967915e-07,0.0,0.0,0.0,1.21846967915e-07,0.40207265,0.2549729,10.002783,9e-08,0.0,0.0,0.0,9e-08,0.0,0.0,0.0,9e-08
1536692168678139128,2591,1536692168676376440,base_link,-0.00881964650054,0.00418645040587,-0.01946903019,-0.999762794033,1.0,0.0,0.0,0.0,1.0,0.0,0.0,0.0,1.0,-0.0139734996483,0.0122010847554,0.0280040632933,1.21846967915e-07,0.0,0.0,0.0,1.21846967915e-07,0.0,0.0,0.0,1.21846967915e-07,0.36284605,0.28439285,10.1008495,9e-08,0.0,0.0,0.0,9e-08,0.0,0.0,0.0,9e-08
1536692169231628056,2592,1536692169231135192,base_link,-0.00876683819375,0.00263560822478,-0.0223136133034,-0.99970910708,1.0,0.0,0.0,0.0,1.0,0.0,0.0,0.0,1.0,0.0820293277502,0.0148843470961,0.00873979087919,1.21846967915e-07,0.0,0.0,0.0,1.21846967915e-07,0.0,0.0,0.0,1.21846967915e-07,0.392266,0.53936575,9.42419065,9e-08,0.0,0.0,0.0,9e-08,0.0,0.0,0.0,9e-08
1536692169717011992,2593,1536692169716522520,base_link,-0.0263947315996,0.00520252270364,-0.0257030536563,-0.999307562732,1.0,0.0,0.0,0.0,1.0,0.0,0.0,0.0,1.0,0.111065730453,-0.0253726355731,0.0343238972127,1.21846967915e-07,0.0,0.0,0.0,1.21846967915e-07,0.0,0.0,0.0,1.21846967915e-07,0.46091255,0.4707192,9.65955025,9e-08,0.0,0.0,0.0,9e-08,0.0,0.0,0.0,9e-08
1536692170060600696,2594,1536692170060326680,base_link,-0.0392203942437,0.00948402399888,-0.0292104962963,-0.998758509786,1.0,0.0,0.0,0.0,1.0,0.0,0.0,0.0,1.0,0.0468884557486,-0.0281763318926,0.0143073070794,1.21846967915e-07,0.0,0.0,0.0,1.21846967915e-07,0.0,0.0,0.0,1.21846967915e-07,0.50013915,0.6864655,10.3558224,9e-08,0.0,0.0,0.0,9e-08,0.0,0.0,0.0,9e-08
1536692170428600664,2595,1536692170428201784,base_link,-0.0480241191998,0.0130120129508,-0.0300121297271,-0.998310394398,1.0,0.0,0.0,0.0,1.0,0.0,0.0,0.0,1.0,0.0286381430924,-0.0212580040097,-0.003839306999,1.21846967915e-07,0.0,0.0,0.0,1.21846967915e-07,0.0,0.0,0.0,1.21846967915e-07,0.5099458,0.61781895,10.0616229,9e-08,0.0,0.0,0.0,9e-08,0.0,0.0,0.0,9e-08
1536692170818389784,2596,1536692170812008312,base_link,-0.0421409446526,0.0166344781679,-0.032529625125,-0.99844341773,1.0,0.0,0.0,0.0,1.0,0.0,0.0,0.0,1.0,-0.128983899951,-0.0280442479998,0.0158850867301,1.21846967915e-07,0.0,0.0,0.0,1.21846967915e-07,0.0,0.0,0.0,1.21846967915e-07,0.38245935,0.2745862,9.9635564,9e-08,0.0,0.0,0.0,9e-08,0.0,0.0,0.0,9e-08
1536692171427742936,2597,1536692171427076216,base_link,-0.0530896953715,0.0160568558509,-0.0298758563928,-0.998013574472,1.0,0.0,0.0,0.0,1.0,0.0,0.0,0.0,1.0,0.0874649137259,0.00422758795321,-0.0233889110386,1.21846967915e-07,0.0,0.0,0.0,1.21846967915e-07,0.0,0.0,0.0,1.21846967915e-07,0.46091255,0.2157463,9.62032365,9e-08,0.0,0.0,0.0,9e-08,0.0,0.0,0.0,9e-08
1536692171878338392,2598,1536692171878028504,base_link,-0.0745277395376,0.0165942137612,-0.0309309155806,-0.996600986639,1.0,0.0,0.0,0.0,1.0,0.0,0.0,0.0,1.0,0.197209715843,0.00783561635762,-0.0231537166983,1.21846967915e-07,0.0,0.0,0.0,1.21846967915e-07,0.0,0.0,0.0,1.21846967915e-07,0.57859235,0.57859235,10.13026945,9e-08,0.0,0.0,0.0,9e-08,0.0,0.0,0.0,9e-08
1536692172247234424,2599,1536692172246960696,base_link,-0.13238299757,0.0128480714515,-0.0188691328825,-0.990935731942,1.0,0.0,0.0,0.0,1.0,0.0,0.0,0.0,1.0,0.404749900103,-0.00731268012896,-0.0837082639337,1.21846967915e-07,0.0,0.0,0.0,1.21846967915e-07,0.0,0.0,0.0,1.21846967915e-07,0.48052585,0.34323275,10.81673495,9e-08,0.0,0.0,0.0,9e-08,0.0,0.0,0.0,9e-08
1536692172556329048,2600,1536692172555949080,base_link,-0.191658546983,0.0115245176549,-0.00975436570942,-0.981345524885,1.0,0.0,0.0,0.0,1.0,0.0,0.0,0.0,1.0,0.341252774,-0.00631274934858,-0.0782083421946,1.21846967915e-07,0.0,0.0,0.0,1.21846967915e-07,0.0,0.0,0.0,1.21846967915e-07,0.46091255,0.22555295,9.73800345,9e-08,0.0,0.0,0.0,9e-08,0.0,0.0,0.0,9e-08
1536692172954507672,2601,1536692172954290808,base_link,-0.265144619715,0.0092088301513,0.0141339561694,-0.964061076575,1.0,0.0,0.0,0.0,1.0,0.0,0.0,0.0,1.0,0.229248076677,-0.00312881218269,-0.258150339127,1.21846967915e-07,0.0,0.0,0.0,1.21846967915e-07,0.0,0.0,0.0,1.21846967915e-07,0.5295591,1.48080415,7.256921,9e-08,0.0,0.0,0.0,9e-08,0.0,0.0,0.0,9e-08
1536692173470243832,2602,1536692173470067704,base_link,-0.320443160721,0.0157461257068,0.111539755684,-0.940546183435,1.0,0.0,0.0,0.0,1.0,0.0,0.0,0.0,1.0,0.346082448959,-0.235266819596,-0.304028302431,1.21846967915e-07,0.0,0.0,0.0,1.21846967915e-07,0.0,0.0,0.0,1.21846967915e-07,0.784532,0.34323275,10.4342756,9e-08,0.0,0.0,0.0,9e-08,0.0,0.0,0.0,9e-08
1536692173918379064,2603,1536692173917978552,base_link,-0.351632851305,0.0677233954851,0.181917504526,-0.915791407,1.0,0.0,0.0,0.0,1.0,0.0,0.0,0.0,1.0,-0.0256720818579,-0.332309216261,-0.241679653525,1.21846967915e-07,0.0,0.0,0.0,1.21846967915e-07,0.0,0.0,0.0,1.21846967915e-07,1.4317709,1.1179581,14.13138265,9e-08,0.0,0.0,0.0,9e-08,0.0,0.0,0.0,9e-08
1536692174289247352,2604,1536692174287668952,base_link,-0.35073263388,0.110281714446,0.251417197019,-0.89532896526,1.0,0.0,0.0,0.0,1.0,0.0,0.0,0.0,1.0,0.0679711550474,-0.335427761078,-0.271720975637,1.21846967915e-07,0.0,0.0,0.0,1.21846967915e-07,0.0,0.0,0.0,1.21846967915e-07,1.73577705,1.0002783,15.0630144,9e-08,0.0,0.0,0.0,9e-08,0.0,0.0,0.0,9e-08
1536692174694170200,2605,1536692174692982232,base_link,-0.35132682841,0.151871465678,0.329963719968,-0.86291857151,1.0,0.0,0.0,0.0,1.0,0.0,0.0,0.0,1.0,-0.0136303398758,-0.338204830885,-0.335164934397,1.21846967915e-07,0.0,0.0,0.0,1.21846967915e-07,0.0,0.0,0.0,1.21846967915e-07,1.6867438,1.04931155,13.95486295,9e-08,0.0,0.0,0.0,9e-08,0.0,0.0,0.0,9e-08
1536692174976412984,2606,1536692174976134232,base_link,-0.33903897937,0.181575586876,0.383572998581,-0.839615764191,1.0,0.0,0.0,0.0,1.0,0.0,0.0,0.0,1.0,-0.0458906628191,-0.383425712585,-0.284286022186,1.21846967915e-07,0.0,0.0,0.0,1.21846967915e-07,0.0,0.0,0.0,1.21846967915e-07,1.7259704,1.2748645,15.28856735,9e-08,0.0,0.0,0.0,9e-08,0.0,0.0,0.0,9e-08
1536692175345182552,2607,1536692175344785368,base_link,-0.327312977935,0.222870184984,0.452076132109,-0.799263577237,1.0,0.0,0.0,0.0,1.0,0.0,0.0,0.0,1.0,0.0112786162645,-0.331969290972,-0.324764460325,1.21846967915e-07,0.0,0.0,0.0,1.21846967915e-07,0.0,0.0,0.0,1.21846967915e-07,1.5494507,1.18660465,14.1411893,9e-08,0.0,0.0,0.0,9e-08,0.0,0.0,0.0,9e-08
1536692175777468536,2608,1536692175777170968,base_link,-0.302378552269,0.257060785865,0.529184679183,-0.749967025152,1.0,0.0,0.0,0.0,1.0,0.0,0.0,0.0,1.0,-0.0686469599605,-0.336530029774,-0.31314560771,1.21846967915e-07,0.0,0.0,0.0,1.21846967915e-07,0.0,0.0,0.0,1.21846967915e-07,1.46119085,1.2356379,14.121576,9e-08,0.0,0.0,0.0,9e-08,0.0,0.0,0.0,9e-08
1536692176265875576,2609,1536692176265597240,base_link,-0.238701030208,0.262926369117,0.620269015713,-0.699398234733,1.0,0.0,0.0,0.0,1.0,0.0,0.0,0.0,1.0,-0.333594113588,-0.241106763482,-0.292892366648,1.21846967915e-07,0.0,0.0,0.0,1.21846967915e-07,0.0,0.0,0.0,1.21846967915e-07,0.83356525,0.87279185,12.66038515,9e-08,0.0,0.0,0.0,9e-08,0.0,0.0,0.0,9e-08
1536692176695514008,2610,1536692176695259032,base_link,0.18290424782,-0.252138877124,-0.684059435755,0.659571611826,1.0,0.0,0.0,0.0,1.0,0.0,0.0,0.0,1.0,-0.368268221617,-0.185753211379,-0.221968576312,1.21846967915e-07,0.0,0.0,0.0,1.21846967915e-07,0.0,0.0,0.0,1.21846967915e-07,0.2745862,0.65704555,12.7290317,9e-08,0.0,0.0,0.0,9e-08,0.0,0.0,0.0,9e-08
1536692177113506584,2611,1536692177113188920,base_link,0.113496602925,-0.192252704441,-0.74115441301,0.633125228399,1.0,0.0,0.0,0.0,1.0,0.0,0.0,0.0,1.0,-0.439205348492,-0.0613538846374,-0.224691718817,1.21846967915e-07,0.0,0.0,0.0,1.21846967915e-07,0.0,0.0,0.0,1.21846967915e-07,-0.12748645,0.4707192,11.22861425,9e-08,0.0,0.0,0.0,9e-08,0.0,0.0,0.0,9e-08
1536692177553238616,2612,1536692177552960664,base_link,0.0568174022091,-0.120321155795,-0.781880752191,0.609062469396,1.0,0.0,0.0,0.0,1.0,0.0,0.0,0.0,1.0,-0.404472589493,0.0115776592866,-0.154803365469,1.21846967915e-07,0.0,0.0,0.0,1.21846967915e-07,0.0,0.0,0.0,1.21846967915e-07,-0.50013915,0.2157463,9.4339973,9e-08,0.0,0.0,0.0,9e-08,0.0,0.0,0.0,9e-08
1536692178036062904,2613,1536692178035634968,base_link,0.00385195239084,-0.0335038882436,-0.797625461502,0.602209494361,1.0,0.0,0.0,0.0,1.0,0.0,0.0,0.0,1.0,-0.424340099096,0.109533786774,-0.0196788199246,1.21846967915e-07,0.0,0.0,0.0,1.21846967915e-07,0.0,0.0,0.0,1.21846967915e-07,-0.57859235,0.392266,8.46313895,9e-08,0.0,0.0,0.0,9e-08,0.0,0.0,0.0,9e-08
1536692178345301976,2614,1536692178345084760,base_link,-0.00862052135403,0.0131953612595,-0.802094149761,0.596989567725,1.0,0.0,0.0,0.0,1.0,0.0,0.0,0.0,1.0,-0.214226141572,0.132333323359,-0.0458471439779,1.21846967915e-07,0.0,0.0,0.0,1.21846967915e-07,0.0,0.0,0.0,1.21846967915e-07,-0.7649187,0.3726527,6.85484835,9e-08,0.0,0.0,0.0,9e-08,0.0,0.0,0.0,9e-08
1536692178782103288,2615,1536692178781850616,base_link,-0.0130097740108,0.0629122141851,-0.801381106861,0.594694140422,1.0,0.0,0.0,0.0,1.0,0.0,0.0,0.0,1.0,-0.155627578497,0.0863851979375,0.0448003932834,1.21846967915e-07,0.0,0.0,0.0,1.21846967915e-07,0.0,0.0,0.0,1.21846967915e-07,-0.784532,0.2941995,7.5903471,9e-08,0.0,0.0,0.0,9e-08,0.0,0.0,0.0,9e-08
1536692179191920504,2616,1536692179191582936,base_link,-0.0162803177545,0.093025196061,-0.787585343023,0.608925768552,1.0,0.0,0.0,0.0,1.0,0.0,0.0,0.0,1.0,-0.137503683567,0.0400978289545,0.0956407636404,1.21846967915e-07,0.0,0.0,0.0,1.21846967915e-07,0.0,0.0,0.0,1.21846967915e-07,-0.7649187,0.3726527,8.62004535,9e-08,0.0,0.0,0.0,9e-08,0.0,0.0,0.0,9e-08
1536692179631483096,2617,1536692179628277016,base_link,-0.0157273393968,0.108110267762,-0.771067164964,0.627311922343,1.0,0.0,0.0,0.0,1.0,0.0,0.0,0.0,1.0,-0.0093497838825,0.0233256556094,0.120018288493,1.21846967915e-07,0.0,0.0,0.0,1.21846967915e-07,0.0,0.0,0.0,1.21846967915e-07,-0.50013915,0.1372931,8.6886919,9e-08,0.0,0.0,0.0,9e-08,0.0,0.0,0.0,9e-08
1536692180082764344,2618,1536692180082440952,base_link,-0.00782696277774,0.103291956436,-0.752266253725,0.650665039706,1.0,0.0,0.0,0.0,1.0,0.0,0.0,0.0,1.0,0.109381631017,-0.00744650000706,0.119368374348,1.21846967915e-07,0.0,0.0,0.0,1.21846967915e-07,0.0,0.0,0.0,1.21846967915e-07,-0.48052585,0.34323275,9.36535075,9e-08,0.0,0.0,0.0,9e-08,0.0,0.0,0.0,9e-08
1536692180525500728,2619,1536692180525035992,base_link,0.0114226139953,0.0733500166811,-0.737551519219,0.671198223657,1.0,0.0,0.0,0.0,1.0,0.0,0.0,0.0,1.0,0.113551050425,-0.0460125058889,0.0997248142958,1.21846967915e-07,0.0,0.0,0.0,1.21846967915e-07,0.0,0.0,0.0,1.21846967915e-07,-0.2745862,0.42168595,10.7677017,9e-08,0.0,0.0,0.0,9e-08,0.0,0.0,0.0,9e-08
1536692180852427960,2620,1536692180852130136,base_link,0.0145491396109,0.0577686096945,-0.729792459552,0.681068334495,1.0,0.0,0.0,0.0,1.0,0.0,0.0,0.0,1.0,0.045318081975,-0.0585046447814,0.0639574229717,1.21846967915e-07,0.0,0.0,0.0,1.21846967915e-07,0.0,0.0,0.0,1.21846967915e-07,-0.18632635,0.5099458,10.9638347,9e-08,0.0,0.0,0.0,9e-08,0.0,0.0,0.0,9e-08
1536692181180005432,2621,1536692181178985368,base_link,0.0239475934965,0.0372875324902,-0.71975394299,0.692813405064,1.0,0.0,0.0,0.0,1.0,0.0,0.0,0.0,1.0,0.113931544125,-0.02811319381,0.0966357290745,1.21846967915e-07,0.0,0.0,0.0,1.21846967915e-07,0.0,0.0,0.0,1.21846967915e-07,0.0392266,0.4511059,10.75789505,9e-08,0.0,0.0,0.0,9e-08,0.0,0.0,0.0,9e-08
1536692181621232824,2622,1536692181620820600,base_link,0.029318037621,0.00587416083554,-0.711023230517,0.702532499298,1.0,0.0,0.0,0.0,1.0,0.0,0.0,0.0,1.0,0.197787448764,-0.102192126215,0.0391057357192,1.21846967915e-07,0.0,0.0,0.0,1.21846967915e-07,0.0,0.0,0.0,1.21846967915e-07,0.24516625,0.34323275,12.36618565,9e-08,0.0,0.0,0.0,9e-08,0.0,0.0,0.0,9e-08
1536692182003709848,2623,1536692182003320824,base_link,-0.0280114925488,0.0127756439733,0.704196035702,-0.709337777443,1.0,0.0,0.0,0.0,1.0,0.0,0.0,0.0,1.0,-0.00955378264189,-0.0318483226001,0.00710508320481,1.21846967915e-07,0.0,0.0,0.0,1.21846967915e-07,0.0,0.0,0.0,1.21846967915e-07,0.0784532,0.69627215,10.36562905,9e-08,0.0,0.0,0.0,9e-08,0.0,0.0,0.0,9e-08
1536692182492487576,2624,1536692182491432760,base_link,0.0231932320055,-0.0178538312886,-0.711105738889,0.702475581652,1.0,0.0,0.0,0.0,1.0,0.0,0.0,0.0,1.0,0.105505548418,-0.0233378298581,-0.0379504188895,1.21846967915e-07,0.0,0.0,0.0,1.21846967915e-07,0.0,0.0,0.0,1.21846967915e-07,0.24516625,0.26477955,10.8657682,9e-08,0.0,0.0,0.0,9e-08,0.0,0.0,0.0,9e-08
1536692182950552472,2625,1536692182950200344,base_link,0.0292612276222,-0.0399709315394,-0.708319830861,0.704151349071,1.0,0.0,0.0,0.0,1.0,0.0,0.0,0.0,1.0,0.00837127678096,-0.055917493999,0.0748824849725,1.21846967915e-07,0.0,0.0,0.0,1.21846967915e-07,0.0,0.0,0.0,1.21846967915e-07,0.40207265,0.4314926,11.40513395,9e-08,0.0,0.0,0.0,9e-08,0.0,0.0,0.0,9e-08
1536692183342225336,2626,1536692183342046264,base_link,-0.0113872844722,0.031809585063,0.701124050785,-0.712238404933,1.0,0.0,0.0,0.0,1.0,0.0,0.0,0.0,1.0,-0.25980502367,-0.0141488676891,0.0100684706122,1.21846967915e-07,0.0,0.0,0.0,1.21846967915e-07,0.0,0.0,0.0,1.21846967915e-07,0.40207265,0.4707192,10.26756255,9e-08,0.0,0.0,0.0,9e-08,0.0,0.0,0.0,9e-08
1536692183745033656,2627,1536692183744843736,base_link,-0.0156010225327,0.0373538183105,0.702861218111,-0.710174209916,1.0,0.0,0.0,0.0,1.0,0.0,0.0,0.0,1.0,0.134463474154,0.00793116632849,-0.0195554122329,1.21846967915e-07,0.0,0.0,0.0,1.21846967915e-07,0.0,0.0,0.0,1.21846967915e-07,0.4314926,0.40207265,9.3751574,9e-08,0.0,0.0,0.0,9e-08,0.0,0.0,0.0,9e-08
1536692184247547640,2628,1536692184245710584,base_link,0.0469593111063,-0.0667570195111,-0.704332884385,0.705162046213,1.0,0.0,0.0,0.0,1.0,0.0,0.0,0.0,1.0,0.209156498313,0.00408811401576,-0.0464469492435,1.21846967915e-07,0.0,0.0,0.0,1.21846967915e-07,0.0,0.0,0.0,1.21846967915e-07,0.2941995,0.7649187,9.97336305,9e-08,0.0,0.0,0.0,9e-08,0.0,0.0,0.0,9e-08
1536692184639973816,2629,1536692184639602456,base_link,0.0813933438973,-0.0975293397876,-0.710844036232,0.691783136253,1.0,0.0,0.0,0.0,1.0,0.0,0.0,0.0,1.0,0.386164993048,0.0212536416948,-0.0863326340914,1.21846967915e-07,0.0,0.0,0.0,1.21846967915e-07,0.0,0.0,0.0,1.21846967915e-07,0.26477955,0.42168595,9.6301303,9e-08,0.0,0.0,0.0,9e-08,0.0,0.0,0.0,9e-08
1536692185060790296,2630,1536692185060476856,base_link,0.135170227087,-0.146044397027,-0.719775350045,0.665074047963,1.0,0.0,0.0,0.0,1.0,0.0,0.0,0.0,1.0,0.280509531498,-0.0242609847337,-0.163036808372,1.21846967915e-07,0.0,0.0,0.0,1.21846967915e-07,0.0,0.0,0.0,1.21846967915e-07,0.3138128,0.8237586,8.5710121,9e-08,0.0,0.0,0.0,9e-08,0.0,0.0,0.0,9e-08
1536692185297475512,2631,1536692185296949784,base_link,0.155935818449,-0.166095084512,-0.731458328905,0.642701452076,1.0,0.0,0.0,0.0,1.0,0.0,0.0,0.0,1.0,0.215848788619,-0.0411858558655,-0.213066443801,1.21846967915e-07,0.0,0.0,0.0,1.21846967915e-07,0.0,0.0,0.0,1.21846967915e-07,0.24516625,0.7453054,9.87529655,9e-08,0.0,0.0,0.0,9e-08,0.0,0.0,0.0,9e-08
1536692185702349432,2632,1536692185701978328,base_link,0.189835633049,-0.217961589405,-0.750877694638,0.593833196836,1.0,0.0,0.0,0.0,1.0,0.0,0.0,0.0,1.0,0.254849672318,-0.114225901663,-0.237998336554,1.21846967915e-07,0.0,0.0,0.0,1.21846967915e-07,0.0,0.0,0.0,1.21846967915e-07,0.4511059,0.87279185,11.03248125,9e-08,0.0,0.0,0.0,9e-08,0.0,0.0,0.0,9e-08
1536692186139236120,2633,1536692186138985624,base_link,0.211918046436,-0.280854231152,-0.775951137405,0.523556563132,1.0,0.0,0.0,0.0,1.0,0.0,0.0,0.0,1.0,0.321006715298,-0.235989585519,-0.289280593395,1.21846967915e-07,0.0,0.0,0.0,1.21846967915e-07,0.0,0.0,0.0,1.21846967915e-07,0.81395195,0.65704555,11.64049355,9e-08,0.0,0.0,0.0,9e-08,0.0,0.0,0.0,9e-08
1536692186650521688,2634,1536692186648956792,base_link,0.194990574222,-0.339789976277,-0.80615767861,0.443431218122,1.0,0.0,0.0,0.0,1.0,0.0,0.0,0.0,1.0,0.00441270461306,-0.307122528553,-0.23556753993,1.21846967915e-07,0.0,0.0,0.0,1.21846967915e-07,0.0,0.0,0.0,1.21846967915e-07,1.569064,1.2944778,12.8270982,9e-08,0.0,0.0,0.0,9e-08,0.0,0.0,0.0,9e-08
1536692186881239352,2635,1536692186879637496,base_link,0.180452573821,-0.353238616402,-0.825982335944,0.400515329534,1.0,0.0,0.0,0.0,1.0,0.0,0.0,0.0,1.0,0.0159886926413,-0.310702174902,-0.337367355824,1.21846967915e-07,0.0,0.0,0.0,1.21846967915e-07,0.0,0.0,0.0,1.21846967915e-07,1.61809725,1.0983448,11.7091401,9e-08,0.0,0.0,0.0,9e-08,0.0,0.0,0.0,9e-08
1536692187346817784,2636,1536692187344884280,base_link,0.136683638474,-0.358798255439,-0.870485736007,0.307954506827,1.0,0.0,0.0,0.0,1.0,0.0,0.0,0.0,1.0,-0.0698295682669,-0.345498859882,-0.33511146903,1.21846967915e-07,0.0,0.0,0.0,1.21846967915e-07,0.0,0.0,0.0,1.21846967915e-07,1.93191005,1.08853815,14.17060925,9e-08,0.0,0.0,0.0,9e-08,0.0,0.0,0.0,9e-08
1536692187787595608,2637,1536692187787372024,base_link,0.0848255354141,-0.357140898993,-0.904342094986,0.217762214455,1.0,0.0,0.0,0.0,1.0,0.0,0.0,0.0,1.0,-0.0654276683927,-0.354482680559,-0.300901204348,1.21846967915e-07,0.0,0.0,0.0,1.21846967915e-07,0.0,0.0,0.0,1.21846967915e-07,1.81423025,0.81395195,14.13138265,9e-08,0.0,0.0,0.0,9e-08,0.0,0.0,0.0,9e-08
1536692188286953208,2638,1536692188286070360,base_link,0.0186820848115,-0.374364164804,-0.9196042167,0.117603301164,1.0,0.0,0.0,0.0,1.0,0.0,0.0,0.0,1.0,0.0356157533824,-0.389237940311,-0.228813678026,1.21846967915e-07,0.0,0.0,0.0,1.21846967915e-07,0.0,0.0,0.0,1.21846967915e-07,1.63771055,0.9022118,15.5141203,9e-08,0.0,0.0,0.0,9e-08,0.0,0.0,0.0,9e-08
1536692188756776696,2639,1536692188755363800,base_link,-0.0426898342283,-0.354528150369,-0.933444995607,0.0341732179472,1.0,0.0,0.0,0.0,1.0,0.0,0.0,0.0,1.0,-0.142423406243,-0.338800907135,-0.249552100897,1.21846967915e-07,0.0,0.0,0.0,1.21846967915e-07,0.0,0.0,0.0,1.21846967915e-07,1.50041745,0.93163175,15.3768272,9e-08,0.0,0.0,0.0,9e-08,0.0,0.0,0.0,9e-08
1536692189024148504,2640,1536692189023855032,base_link,-0.0754679416808,-0.314205013552,-0.946256288128,-0.0133729733093,1.0,0.0,0.0,0.0,1.0,0.0,0.0,0.0,1.0,-0.382986962795,-0.271048873663,-0.206743270159,1.21846967915e-07,0.0,0.0,0.0,1.21846967915e-07,0.0,0.0,0.0,1.21846967915e-07,1.2356379,0.8237586,13.75872995,9e-08,0.0,0.0,0.0,9e-08,0.0,0.0,0.0,9e-08
1536692189468735384,2641,1536692189467894168,base_link,-0.0935028395759,-0.215962849169,-0.968452358095,-0.0819591170678,1.0,0.0,0.0,0.0,1.0,0.0,0.0,0.0,1.0,-0.470429122448,-0.0718866512179,-0.248591572046,1.21846967915e-07,0.0,0.0,0.0,1.21846967915e-07,0.0,0.0,0.0,1.21846967915e-07,0.3726527,0.75511205,11.6895268,9e-08,0.0,0.0,0.0,9e-08,0.0,0.0,0.0,9e-08
1536692189968718488,2642,1536692189967133016,base_link,-0.0783512945618,-0.0980846737952,-0.981295941984,-0.145940897806,1.0,0.0,0.0,0.0,1.0,0.0,0.0,0.0,1.0,-0.508987903595,0.0100465603173,-0.157808348536,1.21846967915e-07,0.0,0.0,0.0,1.21846967915e-07,0.0,0.0,0.0,1.21846967915e-07,-0.0980665,0.36284605,9.60071035,9e-08,0.0,0.0,0.0,9e-08,0.0,0.0,0.0,9e-08
1536692190344442136,2643,1536692190344066616,base_link,-0.057939881409,-0.0226457937257,-0.983041815281,-0.172507760921,1.0,0.0,0.0,0.0,1.0,0.0,0.0,0.0,1.0,-0.372322320938,0.0731707289815,-0.0634322687984,1.21846967915e-07,0.0,0.0,0.0,1.21846967915e-07,0.0,0.0,0.0,1.21846967915e-07,-0.40207265,0.1765197,8.5121722,9e-08,0.0,0.0,0.0,9e-08,0.0,0.0,0.0,9e-08
1536692190749097080,2644,1536692190748016664,base_link,-0.0327428484414,0.027393227429,-0.983773923854,-0.174259529757,1.0,0.0,0.0,0.0,1.0,0.0,0.0,0.0,1.0,-0.254551112652,0.0975808426738,0.0581328012049,1.21846967915e-07,0.0,0.0,0.0,1.21846967915e-07,0.0,0.0,0.0,1.21846967915e-07,-0.38245935,0.1372931,7.95319315,9e-08,0.0,0.0,0.0,9e-08,0.0,0.0,0.0,9e-08
1536692191245523160,2645,1536692191245071384,base_link,0.00676457079898,0.0677434847795,-0.986056856808,-0.15184510527,1.0,0.0,0.0,0.0,1.0,0.0,0.0,0.0,1.0,-0.0585305541754,0.138355433941,0.104541189969,1.21846967915e-07,0.0,0.0,0.0,1.21846967915e-07,0.0,0.0,0.0,1.21846967915e-07,-0.5295591,0.0980665,7.93357985,9e-08,0.0,0.0,0.0,9e-08,0.0,0.0,0.0,9e-08
1536692191658137016,2646,1536692191657748600,base_link,0.0410565495422,0.0874936430215,-0.986382995664,-0.133070688113,1.0,0.0,0.0,0.0,1.0,0.0,0.0,0.0,1.0,-0.145502686501,0.129789471626,0.0753920599818,1.21846967915e-07,0.0,0.0,0.0,1.21846967915e-07,0.0,0.0,0.0,1.21846967915e-07,-0.63743225,0.28439285,7.3157609,9e-08,0.0,0.0,0.0,9e-08,0.0,0.0,0.0,9e-08
1536692192058822104,2647,1536692192058549752,base_link,0.0605807138084,0.0840586665727,-0.988149444957,-0.113246598711,1.0,0.0,0.0,0.0,1.0,0.0,0.0,0.0,1.0,0.0640611797571,0.0550764836371,0.133063226938,1.21846967915e-07,0.0,0.0,0.0,1.21846967915e-07,0.0,0.0,0.0,1.21846967915e-07,-0.3726527,-0.02941995,8.0806796,9e-08,0.0,0.0,0.0,9e-08,0.0,0.0,0.0,9e-08
1536692192515985752,2648,1536692192515740184,base_link,0.0693179886254,0.0679116637517,-0.991949756874,-0.0813554068036,1.0,0.0,0.0,0.0,1.0,0.0,0.0,0.0,1.0,0.0645635426044,0.0164961591363,0.14044483006,1.21846967915e-07,0.0,0.0,0.0,1.21846967915e-07,0.0,0.0,0.0,1.21846967915e-07,-0.3530394,0.38245935,9.5909037,9e-08,0.0,0.0,0.0,9e-08,0.0,0.0,0.0,9e-08
1536692193060068248,2649,1536692193059795448,base_link,0.0670717623613,0.0519503691804,-0.995125932234,-0.050268447676,1.0,0.0,0.0,0.0,1.0,0.0,0.0,0.0,1.0,0.0913147255778,-0.0366844311357,0.0862208306789,1.21846967915e-07,0.0,0.0,0.0,1.21846967915e-07,0.0,0.0,0.0,1.21846967915e-07,-0.22555295,0.30400615,10.2185293,9e-08,0.0,0.0,0.0,9e-08,0.0,0.0,0.0,9e-08
1536692193480880376,2650,1536692193480457336,base_link,0.0536889060537,0.0292626708256,-0.99760756858,-0.0322542489301,1.0,0.0,0.0,0.0,1.0,0.0,0.0,0.0,1.0,0.0745403990149,-0.0741732269526,0.0886942148209,1.21846967915e-07,0.0,0.0,0.0,1.21846967915e-07,0.0,0.0,0.0,1.21846967915e-07,0.0392266,0.30400615,10.983448,9e-08,0.0,0.0,0.0,9e-08,0.0,0.0,0.0,9e-08
1536692193949641176,2651,1536692193943471544,base_link,0.0341537895848,0.00931931826039,-0.999278552169,-0.0137493323418,1.0,0.0,0.0,0.0,1.0,0.0,0.0,0.0,1.0,0.1089476794,-0.0752138718963,0.0676816552877,1.21846967915e-07,0.0,0.0,0.0,1.21846967915e-07,0.0,0.0,0.0,1.21846967915e-07,0.1569064,0.5687857,11.62088025,9e-08,0.0,0.0,0.0,9e-08,0.0,0.0,0.0,9e-08
1536692194322568152,2652,1536692194322166296,base_link,0.0169174843485,-0.00516225488057,-0.999833821281,-0.00441357805393,1.0,0.0,0.0,0.0,1.0,0.0,0.0,0.0,1.0,0.0462489873171,-0.0889996066689,0.0320439301431,1.21846967915e-07,0.0,0.0,0.0,1.21846967915e-07,0.0,0.0,0.0,1.21846967915e-07,0.1372931,0.588399,12.1210194,9e-08,0.0,0.0,0.0,9e-08,0.0,0.0,0.0,9e-08
1536692194695258136,2653,1536692194694888952,base_link,0.00168266588926,-0.0235287655307,-0.999721669523,0.000386411105507,1.0,0.0,0.0,0.0,1.0,0.0,0.0,0.0,1.0,0.204076781869,-0.0562105923891,0.0238638743758,1.21846967915e-07,0.0,0.0,0.0,1.21846967915e-07,0.0,0.0,0.0,1.21846967915e-07,0.30400615,0.28439285,11.64049355,9e-08,0.0,0.0,0.0,9e-08,0.0,0.0,0.0,9e-08
1536692195281981496,2654,1536692195281504632,base_link,-0.0113487428753,-0.0689456913078,-0.99755135265,0.0029994184269,1.0,0.0,0.0,0.0,1.0,0.0,0.0,0.0,1.0,0.0506006255746,-0.0225168429315,-0.0318049713969,1.21846967915e-07,0.0,0.0,0.0,1.21846967915e-07,0.0,0.0,0.0,1.21846967915e-07,0.32361945,0.55897905,10.4146623,9e-08,0.0,0.0,0.0,9e-08,0.0,0.0,0.0,9e-08
1536692195687307320,2655,1536692195683374296,base_link,-0.016104513799,-0.0870645754568,-0.996063573855,-0.00421440089868,1.0,0.0,0.0,0.0,1.0,0.0,0.0,0.0,1.0,0.0468825772405,-0.00437458744273,-0.0224854536355,1.21846967915e-07,0.0,0.0,0.0,1.21846967915e-07,0.0,0.0,0.0,1.21846967915e-07,0.3726527,0.46091255,10.0812362,9e-08,0.0,0.0,0.0,9e-08,0.0,0.0,0.0,9e-08
1536692196130243256,2656,1536692196129656792,base_link,-0.0174577346177,-0.0989916509834,-0.994810586445,-0.0157409540744,1.0,0.0,0.0,0.0,1.0,0.0,0.0,0.0,1.0,-0.0505502410233,-0.00124986330047,-0.0747245028615,1.21846967915e-07,0.0,0.0,0.0,1.21846967915e-07,0.0,0.0,0.0,1.21846967915e-07,0.42168595,0.588399,10.1596894,9e-08,0.0,0.0,0.0,9e-08,0.0,0.0,0.0,9e-08
1536692196500586936,2657,1536692196500355704,base_link,-0.0160854938328,-0.0831008827866,-0.996070037359,-0.026076442317,1.0,0.0,0.0,0.0,1.0,0.0,0.0,0.0,1.0,-0.0482974871993,0.0247253682464,-0.0776857063174,1.21846967915e-07,0.0,0.0,0.0,1.21846967915e-07,0.0,0.0,0.0,1.21846967915e-07,0.48052585,0.6864655,9.2378643,9e-08,0.0,0.0,0.0,9e-08,0.0,0.0,0.0,9e-08
1536692196912294488,2658,1536692196910632120,base_link,-0.013377503375,-0.0670238651663,-0.996619599588,-0.0455874721719,1.0,0.0,0.0,0.0,1.0,0.0,0.0,0.0,1.0,-0.11257185787,-0.00618684105575,-0.0627325102687,1.21846967915e-07,0.0,0.0,0.0,1.21846967915e-07,0.0,0.0,0.0,1.21846967915e-07,0.4314926,0.55897905,10.42446895,9e-08,0.0,0.0,0.0,9e-08,0.0,0.0,0.0,9e-08
1536692197397601912,2659,1536692197397240216,base_link,-0.0138261260571,-0.0597339557779,-0.996630284211,-0.0544864144417,1.0,0.0,0.0,0.0,1.0,0.0,0.0,0.0,1.0,0.0105585930869,-0.0138755496591,-0.0012127381051,1.21846967915e-07,0.0,0.0,0.0,1.21846967915e-07,0.0,0.0,0.0,1.21846967915e-07,0.28439285,0.2353596,10.73828175,9e-08,0.0,0.0,0.0,9e-08,0.0,0.0,0.0,9e-08
1536692197699295128,2660,1536692197699043128,base_link,-0.0149656696097,-0.0549695838354,-0.996985747346,-0.052666812835,1.0,0.0,0.0,0.0,1.0,0.0,0.0,0.0,1.0,0.0105805583298,-0.001785449218,0.00337396096438,1.21846967915e-07,0.0,0.0,0.0,1.21846967915e-07,0.0,0.0,0.0,1.21846967915e-07,0.50013915,0.34323275,10.4342756,9e-08,0.0,0.0,0.0,9e-08,0.0,0.0,0.0,9e-08
1536692198204613112,2661,1536692198204282072,base_link,-0.0131833875536,-0.0372671701416,-0.998005285323,-0.0492220152911,1.0,0.0,0.0,0.0,1.0,0.0,0.0,0.0,1.0,-0.105686970055,0.0174916498363,0.000536485691555,1.21846967915e-07,0.0,0.0,0.0,1.21846967915e-07,0.0,0.0,0.0,1.21846967915e-07,0.196133,0.50013915,9.3359308,9e-08,0.0,0.0,0.0,9e-08,0.0,0.0,0.0,9e-08
1536692198607156824,2662,1536692198606970072,base_link,-0.00840732803294,-0.0165228712472,-0.998288901828,-0.0554579123983,1.0,0.0,0.0,0.0,1.0,0.0,0.0,0.0,1.0,0.00851787626743,0.0146879814565,0.00392743991688,1.21846967915e-07,0.0,0.0,0.0,1.21846967915e-07,0.0,0.0,0.0,1.21846967915e-07,0.20593965,0.2549729,10.42446895,9e-08,0.0,0.0,0.0,9e-08,0.0,0.0,0.0,9e-08
1536692199119829368,2663,1536692199119492376,base_link,-0.000455027006291,-0.00864861644247,-0.99823171756,-0.0588084385127,1.0,0.0,0.0,0.0,1.0,0.0,0.0,0.0,1.0,-0.0550595372915,0.0348351150751,-0.0408293940127,1.21846967915e-07,0.0,0.0,0.0,1.21846967915e-07,0.0,0.0,0.0,1.21846967915e-07,0.12748645,0.5295591,8.81617835,9e-08,0.0,0.0,0.0,9e-08,0.0,0.0,0.0,9e-08
1536692199480413720,2664,1536692199480067640,base_link,0.00398005002677,-0.0162118986657,-0.997925309946,-0.0621804576397,1.0,0.0,0.0,0.0,1.0,0.0,0.0,0.0,1.0,0.0540950261056,0.0221695117652,0.037166364491,1.21846967915e-07,0.0,0.0,0.0,1.21846967915e-07,0.0,0.0,0.0,1.21846967915e-07,0.1176798,0.1176798,8.9436648,9e-08,0.0,0.0,0.0,9e-08,0.0,0.0,0.0,9e-08
1536692199949286104,2665,1536692199948517816,base_link,0.00661913624547,-0.0251725557861,-0.998401004774,-0.050179309849,1.0,0.0,0.0,0.0,1.0,0.0,0.0,0.0,1.0,-0.135118588805,0.0292161777616,0.0345235802233,1.21846967915e-07,0.0,0.0,0.0,1.21846967915e-07,0.0,0.0,0.0,1.21846967915e-07,0.16671305,0.44129925,9.7870367,9e-08,0.0,0.0,0.0,9e-08,0.0,0.0,0.0,9e-08
1536692200268124120,2666,1536692200267811096,base_link,0.0111912370668,-0.0161487561355,-0.998774367459,-0.0454283699392,1.0,0.0,0.0,0.0,1.0,0.0,0.0,0.0,1.0,0.0527359694242,0.0224202107638,0.00948890578002,1.21846967915e-07,0.0,0.0,0.0,1.21846967915e-07,0.0,0.0,0.0,1.21846967915e-07,0.3138128,0.55897905,9.4732239,9e-08,0.0,0.0,0.0,9e-08,0.0,0.0,0.0,9e-08
1536692200687888216,2667,1536692200687494360,base_link,0.0106012937134,-0.0287326860601,-0.998715265612,-0.0403715686803,1.0,0.0,0.0,0.0,1.0,0.0,0.0,0.0,1.0,0.0463796257973,-0.0177559610456,0.0329786129296,1.21846967915e-07,0.0,0.0,0.0,1.21846967915e-07,0.0,0.0,0.0,1.21846967915e-07,0.3530394,0.32361945,10.36562905,9e-08,0.0,0.0,0.0,9e-08,0.0,0.0,0.0,9e-08
1536692201107652504,2668,1536692201107285720,base_link,0.00906490434106,-0.0393301414252,-0.998535325619,-0.0360301398359,1.0,0.0,0.0,0.0,1.0,0.0,0.0,0.0,1.0,0.157166197896,-0.00506045948714,-0.0229068417102,1.21846967915e-07,0.0,0.0,0.0,1.21846967915e-07,0.0,0.0,0.0,1.21846967915e-07,0.4707192,0.53936575,9.24767095,9e-08,0.0,0.0,0.0,9e-08,0.0,0.0,0.0,9e-08
1536692201638103160,2669,1536692201637798744,base_link,0.0063680771641,-0.0554851032299,-0.997571620269,-0.0416138600344,1.0,0.0,0.0,0.0,1.0,0.0,0.0,0.0,1.0,-0.00582713447511,-0.0149271823466,0.0172898843884,1.21846967915e-07,0.0,0.0,0.0,1.21846967915e-07,0.0,0.0,0.0,1.21846967915e-07,0.48052585,0.40207265,9.5909037,9e-08,0.0,0.0,0.0,9e-08,0.0,0.0,0.0,9e-08
1536692202025644024,2670,1536692202025413464,base_link,0.00206475884329,-0.0511763550051,-0.998013957076,-0.0366723184667,1.0,0.0,0.0,0.0,1.0,0.0,0.0,0.0,1.0,0.00226396508515,-0.0231381300837,0.0171733815223,1.21846967915e-07,0.0,0.0,0.0,1.21846967915e-07,0.0,0.0,0.0,1.21846967915e-07,0.46091255,0.392266,9.99297635,9e-08,0.0,0.0,0.0,9e-08,0.0,0.0,0.0,9e-08
1536692202532711768,2671,1536692202532483608,base_link,-0.00619637904752,-0.0271106232363,-0.998786101252,-0.04065640098,1.0,0.0,0.0,0.0,1.0,0.0,0.0,0.0,1.0,-0.0544243901968,-0.0402757376432,-0.048498455435,1.21846967915e-07,0.0,0.0,0.0,1.21846967915e-07,0.0,0.0,0.0,1.21846967915e-07,0.61781895,0.48052585,11.18938765,9e-08,0.0,0.0,0.0,9e-08,0.0,0.0,0.0,9e-08
1536692202881796088,2672,1536692202880423064,base_link,-0.0153045640941,-0.0248622517792,-0.998556004155,-0.0450948480541,1.0,0.0,0.0,0.0,1.0,0.0,0.0,0.0,1.0,0.00118990894407,-0.0564809553325,0.0283206198364,1.21846967915e-07,0.0,0.0,0.0,1.21846967915e-07,0.0,0.0,0.0,1.21846967915e-07,0.71588545,0.0980665,11.36590735,9e-08,0.0,0.0,0.0,9e-08,0.0,0.0,0.0,9e-08
1536692203279226392,2673,1536692203278671768,base_link,-0.0241738601816,-0.00592876691982,-0.999113803407,-0.0339423341683,1.0,0.0,0.0,0.0,1.0,0.0,0.0,0.0,1.0,-0.193729802966,-0.0333203226328,0.0630860924721,1.21846967915e-07,0.0,0.0,0.0,1.21846967915e-07,0.0,0.0,0.0,1.21846967915e-07,0.75511205,0.3530394,12.1994726,9e-08,0.0,0.0,0.0,9e-08,0.0,0.0,0.0,9e-08
1536692203729544216,2674,1536692203728749848,base_link,-0.0282734221749,-0.00237250621574,-0.999482508955,-0.0151558274545,1.0,0.0,0.0,0.0,1.0,0.0,0.0,0.0,1.0,0.285038858652,-0.023070409894,0.115883350372,1.21846967915e-07,0.0,0.0,0.0,1.21846967915e-07,0.0,0.0,0.0,1.21846967915e-07,0.7256921,0.55897905,12.356379,9e-08,0.0,0.0,0.0,9e-08,0.0,0.0,0.0,9e-08
1536692204137195256,2675,1536692204136921432,base_link,-0.0217461225008,-0.0476787164125,-0.99862079927,-0.00321643024329,1.0,0.0,0.0,0.0,1.0,0.0,0.0,0.0,1.0,0.189348191023,0.0532080791891,0.0142997978255,1.21846967915e-07,0.0,0.0,0.0,1.21846967915e-07,0.0,0.0,0.0,1.21846967915e-07,0.392266,0.5491724,9.3555441,9e-08,0.0,0.0,0.0,9e-08,0.0,0.0,0.0,9e-08
1536692204567590840,2676,1536692204567358616,base_link,-0.00677787861895,-0.0614867787118,-0.998058369939,-0.00727506695682,1.0,0.0,0.0,0.0,1.0,0.0,0.0,0.0,1.0,0.110848605633,0.0664836838841,-0.0459368154407,1.21846967915e-07,0.0,0.0,0.0,1.21846967915e-07,0.0,0.0,0.0,1.21846967915e-07,0.30400615,0.55897905,7.61976705,9e-08,0.0,0.0,0.0,9e-08,0.0,0.0,0.0,9e-08
1536692204972888088,2677,1536692204971369336,base_link,0.00461709020908,-0.0863351224429,-0.996158264219,-0.0139155215388,1.0,0.0,0.0,0.0,1.0,0.0,0.0,0.0,1.0,0.116062328219,0.0524989031255,-0.0343980938196,1.21846967915e-07,0.0,0.0,0.0,1.21846967915e-07,0.0,0.0,0.0,1.21846967915e-07,0.0980665,0.44129925,8.34545915,9e-08,0.0,0.0,0.0,9e-08,0.0,0.0,0.0,9e-08
1536692205334998904,2678,1536692205334562744,base_link,0.0114078728552,-0.0891900601763,-0.995592739102,-0.0266475411784,1.0,0.0,0.0,0.0,1.0,0.0,0.0,0.0,1.0,0.00573041196913,0.0151943741366,-0.116286218166,1.21846967915e-07,0.0,0.0,0.0,1.21846967915e-07,0.0,0.0,0.0,1.21846967915e-07,0.2157463,0.67665885,10.395049,9e-08,0.0,0.0,0.0,9e-08,0.0,0.0,0.0,9e-08
1536692205802334360,2679,1536692205801786648,base_link,0.012328673946,-0.0996787050183,-0.993572404626,-0.0522114578489,1.0,0.0,0.0,0.0,1.0,0.0,0.0,0.0,1.0,-0.0222878232598,-0.023199794814,-0.0593342930079,1.21846967915e-07,0.0,0.0,0.0,1.21846967915e-07,0.0,0.0,0.0,1.21846967915e-07,0.22555295,0.4511059,10.16949605,9e-08,0.0,0.0,0.0,9e-08,0.0,0.0,0.0,9e-08
1536692206232724600,2680,1536692206232327384,base_link,0.00646965201447,-0.098848626461,-0.99296933072,-0.0647996982935,1.0,0.0,0.0,0.0,1.0,0.0,0.0,0.0,1.0,0.0427933186293,-0.0444587022066,-0.0605487637222,1.21846967915e-07,0.0,0.0,0.0,1.21846967915e-07,0.0,0.0,0.0,1.21846967915e-07,0.4118793,0.5491724,10.44408225,9e-08,0.0,0.0,0.0,9e-08,0.0,0.0,0.0,9e-08
1536692206731102712,2681,1536692206730832920,base_link,-0.00436348262094,-0.121918519276,-0.989723148035,-0.0745984243895,1.0,0.0,0.0,0.0,1.0,0.0,0.0,0.0,1.0,0.147936835885,-0.0347537025809,-0.0469023361802,1.21846967915e-07,0.0,0.0,0.0,1.21846967915e-07,0.0,0.0,0.0,1.21846967915e-07,0.51975245,0.53936575,10.67944185,9e-08,0.0,0.0,0.0,9e-08,0.0,0.0,0.0,9e-08
1536692207213217208,2682,1536692207212134712,base_link,-0.0127287084264,-0.167355871495,-0.981058544724,-0.096716720796,1.0,0.0,0.0,0.0,1.0,0.0,0.0,0.0,1.0,0.200322240591,-0.0266363322735,-0.139378473163,1.21846967915e-07,0.0,0.0,0.0,1.21846967915e-07,0.0,0.0,0.0,1.21846967915e-07,0.51975245,0.7256921,10.62060195,9e-08,0.0,0.0,0.0,9e-08,0.0,0.0,0.0,9e-08
1536692207541516248,2683,1536692207537461016,base_link,-0.0178874523383,-0.201332278698,-0.971681038528,-0.122398169793,1.0,0.0,0.0,0.0,1.0,0.0,0.0,0.0,1.0,0.207211345434,-0.0523940324783,-0.171388551593,1.21846967915e-07,0.0,0.0,0.0,1.21846967915e-07,0.0,0.0,0.0,1.21846967915e-07,0.51975245,0.4903325,10.18910935,9e-08,0.0,0.0,0.0,9e-08,0.0,0.0,0.0,9e-08
1536692207963637592,2684,1536692207963069496,base_link,-0.0336425067051,-0.250278796589,-0.954183928499,-0.160504630196,1.0,0.0,0.0,0.0,1.0,0.0,0.0,0.0,1.0,0.223621323705,-0.0903284698725,-0.193675935268,1.21846967915e-07,0.0,0.0,0.0,1.21846967915e-07,0.0,0.0,0.0,1.21846967915e-07,0.59820565,0.8041453,10.3165958,9e-08,0.0,0.0,0.0,9e-08,0.0,0.0,0.0,9e-08
1536692208373710072,2685,1536692208373070200,base_link,-0.0443407528644,-0.273596803531,-0.936604723687,-0.214360160246,1.0,0.0,0.0,0.0,1.0,0.0,0.0,0.0,1.0,0.123412005603,-0.13095843792,-0.297818809748,1.21846967915e-07,0.0,0.0,0.0,1.21846967915e-07,0.0,0.0,0.0,1.21846967915e-07,0.7060788,0.73549875,10.591182,9e-08,0.0,0.0,0.0,9e-08,0.0,0.0,0.0,9e-08
1536692208781685688,2686,1536692208781445784,base_link,-0.067729506056,-0.293686616965,-0.911184518218,-0.280897950837,1.0,0.0,0.0,0.0,1.0,0.0,0.0,0.0,1.0,0.149885982275,-0.195860892534,-0.327055484056,1.21846967915e-07,0.0,0.0,0.0,1.21846967915e-07,0.0,0.0,0.0,1.21846967915e-07,0.8041453,1.1964113,11.6503002,9e-08,0.0,0.0,0.0,9e-08,0.0,0.0,0.0,9e-08
1536692209095519864,2687,1536692209095060696,base_link,-0.0930092125869,-0.289910828413,-0.89186920683,-0.334470201739,1.0,0.0,0.0,0.0,1.0,0.0,0.0,0.0,1.0,-0.212067514658,-0.297248661518,-0.256742417812,1.21846967915e-07,0.0,0.0,0.0,1.21846967915e-07,0.0,0.0,0.0,1.21846967915e-07,0.89240515,0.8825985,13.0820711,9e-08,0.0,0.0,0.0,9e-08,0.0,0.0,0.0,9e-08
1536692209368304312,2688,1536692209368058360,base_link,-0.117948568441,-0.26106114894,-0.884192127643,-0.368970856751,1.0,0.0,0.0,0.0,1.0,0.0,0.0,0.0,1.0,0.0383613370359,-0.327136158943,-0.0805861949921,1.21846967915e-07,0.0,0.0,0.0,1.21846967915e-07,0.0,0.0,0.0,1.21846967915e-07,1.0198916,0.0980665,14.9257213,9e-08,0.0,0.0,0.0,9e-08,0.0,0.0,0.0,9e-08
1536692209756496440,2689,1536692209756010520,base_link,-0.160721815762,-0.251862114378,-0.870114811209,-0.391961973404,1.0,0.0,0.0,0.0,1.0,0.0,0.0,0.0,1.0,0.00667784316465,-0.186792463064,-0.124460883439,1.21846967915e-07,0.0,0.0,0.0,1.21846967915e-07,0.0,0.0,0.0,1.21846967915e-07,0.980665,1.0787315,13.77834325,9e-08,0.0,0.0,0.0,9e-08,0.0,0.0,0.0,9e-08
1536692210231201208,2690,1536692210230884408,base_link,-0.193171145289,-0.281336922129,-0.834410577377,-0.432774113408,1.0,0.0,0.0,0.0,1.0,0.0,0.0,0.0,1.0,-0.0198288597167,-0.0674582719803,-0.230065897107,1.21846967915e-07,0.0,0.0,0.0,1.21846967915e-07,0.0,0.0,0.0,1.21846967915e-07,0.63743225,1.0198916,10.91480145,9e-08,0.0,0.0,0.0,9e-08,0.0,0.0,0.0,9e-08
1536692210539947384,2691,1536692210539632856,base_link,-0.181125780056,-0.263123898309,-0.817099202006,-0.479904323819,1.0,0.0,0.0,0.0,1.0,0.0,0.0,0.0,1.0,-0.0718317627907,-0.129839658737,-0.286325097084,1.21846967915e-07,0.0,0.0,0.0,1.21846967915e-07,0.0,0.0,0.0,1.21846967915e-07,0.67665885,0.7060788,12.81729155,9e-08,0.0,0.0,0.0,9e-08,0.0,0.0,0.0,9e-08
1536692210881795384,2692,1536692210881585400,base_link,-0.183546655963,-0.25918117815,-0.79032573273,-0.523947495616,1.0,0.0,0.0,0.0,1.0,0.0,0.0,0.0,1.0,-0.0734869018197,-0.113452799618,-0.244709864259,1.21846967915e-07,0.0,0.0,0.0,1.21846967915e-07,0.0,0.0,0.0,1.21846967915e-07,0.28439285,0.69627215,10.4342756,9e-08,0.0,0.0,0.0,9e-08,0.0,0.0,0.0,9e-08
1536692211386636440,2693,1536692211386406808,base_link,-0.18052160925,-0.237064606706,-0.764250540677,-0.571955795421,1.0,0.0,0.0,0.0,1.0,0.0,0.0,0.0,1.0,-0.149796545506,-0.0982813313603,-0.124892920256,1.21846967915e-07,0.0,0.0,0.0,1.21846967915e-07,0.0,0.0,0.0,1.21846967915e-07,-0.0392266,0.55897905,9.34573745,9e-08,0.0,0.0,0.0,9e-08,0.0,0.0,0.0,9e-08
1536692211790623256,2694,1536692211790385752,base_link,-0.148989153553,-0.201817741696,-0.747359082469,-0.615244856225,1.0,0.0,0.0,0.0,1.0,0.0,0.0,0.0,1.0,-0.0977600291371,0.0596040859818,-0.380037397146,1.21846967915e-07,0.0,0.0,0.0,1.21846967915e-07,0.0,0.0,0.0,1.21846967915e-07,-0.08825985,1.4121576,10.16949605,9e-08,0.0,0.0,0.0,9e-08,0.0,0.0,0.0,9e-08
1536692212140518168,2695,1536692212140102264,base_link,-0.102738595803,-0.185231948568,-0.702772932876,-0.679149549789,1.0,0.0,0.0,0.0,1.0,0.0,0.0,0.0,1.0,-0.1426525563,0.0139645282179,-0.443880558014,1.21846967915e-07,0.0,0.0,0.0,1.21846967915e-07,0.0,0.0,0.0,1.21846967915e-07,-0.3726527,0.69627215,8.6494653,9e-08,0.0,0.0,0.0,9e-08,0.0,0.0,0.0,9e-08
1536692212612309304,2696,1536692212611841080,base_link,-0.0889282025632,-0.160435381219,-0.665313417247,-0.723678326381,1.0,0.0,0.0,0.0,1.0,0.0,0.0,0.0,1.0,-0.198987096548,-0.135868832469,-0.0276323799044,1.21846967915e-07,0.0,0.0,0.0,1.21846967915e-07,0.0,0.0,0.0,1.21846967915e-07,-0.50013915,0.0784532,8.65927195,9e-08,0.0,0.0,0.0,9e-08,0.0,0.0,0.0,9e-08
1536692213043363320,2697,1536692213043009240,base_link,-0.0438459214294,-0.0879057963066,-0.663321203437,-0.741859209837,1.0,0.0,0.0,0.0,1.0,0.0,0.0,0.0,1.0,-0.345412164927,-0.0689532607794,-0.155489772558,1.21846967915e-07,0.0,0.0,0.0,1.21846967915e-07,0.0,0.0,0.0,1.21846967915e-07,-0.2549729,0.81395195,12.93497135,9e-08,0.0,0.0,0.0,9e-08,0.0,0.0,0.0,9e-08
1536692213487960120,2698,1536692213487493720,base_link,-0.00446982696685,-0.0408956795071,-0.65163321431,-0.757417796234,1.0,0.0,0.0,0.0,1.0,0.0,0.0,0.0,1.0,-0.352508455515,-0.0719979405403,0.00436968030408,1.21846967915e-07,0.0,0.0,0.0,1.21846967915e-07,0.0,0.0,0.0,1.21846967915e-07,-0.5491724,0.0588399,11.1991943,9e-08,0.0,0.0,0.0,9e-08,0.0,0.0,0.0,9e-08
1536692213979611608,2699,1536692213979222424,base_link,0.0248007625602,-0.00347216823013,-0.667020918683,-0.744617996199,1.0,0.0,0.0,0.0,1.0,0.0,0.0,0.0,1.0,0.021197674796,0.0188407506794,0.113169111311,1.21846967915e-07,0.0,0.0,0.0,1.21846967915e-07,0.0,0.0,0.0,1.21846967915e-07,-0.61781895,0.4903325,11.11093445,9e-08,0.0,0.0,0.0,9e-08,0.0,0.0,0.0,9e-08
1536692214255110680,2700,1536692214254778584,base_link,0.0411548308682,0.00685717292799,-0.673612285605,-0.737906327225,1.0,0.0,0.0,0.0,1.0,0.0,0.0,0.0,1.0,-0.302235722542,0.0451360866427,0.000723092700355,1.21846967915e-07,0.0,0.0,0.0,1.21846967915e-07,0.0,0.0,0.0,1.21846967915e-07,-0.65704555,0.7649187,10.002783,9e-08,0.0,0.0,0.0,9e-08,0.0,0.0,0.0,9e-08
1536692214659363160,2701,1536692214659109368,base_link,0.0570675997297,0.00603708315404,-0.669387026647,-0.740694168497,1.0,0.0,0.0,0.0,1.0,0.0,0.0,0.0,1.0,0.223222285509,0.0466855056584,0.00556125026196,1.21846967915e-07,0.0,0.0,0.0,1.21846967915e-07,0.0,0.0,0.0,1.21846967915e-07,-0.73549875,0.30400615,9.5320638,9e-08,0.0,0.0,0.0,9e-08,0.0,0.0,0.0,9e-08
1536692215188925496,2702,1536692215188563096,base_link,0.0384018704612,-0.0307023102419,-0.686070367022,-0.725871969417,1.0,0.0,0.0,0.0,1.0,0.0,0.0,0.0,1.0,0.0969745889306,0.0538211129606,0.0971345826983,1.21846967915e-07,0.0,0.0,0.0,1.21846967915e-07,0.0,0.0,0.0,1.21846967915e-07,-0.588399,0.196133,8.3356525,9e-08,0.0,0.0,0.0,9e-08,0.0,0.0,0.0,9e-08
1536692215516036024,2703,1536692215514631672,base_link,0.0301845737385,-0.0511764356676,-0.693422085114,-0.718077764463,1.0,0.0,0.0,0.0,1.0,0.0,0.0,0.0,1.0,0.0615141317248,0.0510019361973,0.0403364151716,1.21846967915e-07,0.0,0.0,0.0,1.21846967915e-07,0.0,0.0,0.0,1.21846967915e-07,-0.69627215,0.20593965,8.28661925,9e-08,0.0,0.0,0.0,9e-08,0.0,0.0,0.0,9e-08
1536692215999896312,2704,1536692215999062072,base_link,0.0258913340435,-0.0640564100546,-0.695636520578,-0.715063805818,1.0,0.0,0.0,0.0,1.0,0.0,0.0,0.0,1.0,0.0996561273932,0.0315640307963,-0.00413074018434,1.21846967915e-07,0.0,0.0,0.0,1.21846967915e-07,0.0,0.0,0.0,1.21846967915e-07,-0.7256921,0.3334261,8.6690786,9e-08,0.0,0.0,0.0,9e-08,0.0,0.0,0.0,9e-08
1536692216382408664,2705,1536692216381995608,base_link,0.0208538173095,-0.0664066786388,-0.695239161595,-0.715400432989,1.0,0.0,0.0,0.0,1.0,0.0,0.0,0.0,1.0,-0.0369585081935,-0.00654161721468,-0.0220159366727,1.21846967915e-07,0.0,0.0,0.0,1.21846967915e-07,0.0,0.0,0.0,1.21846967915e-07,-0.63743225,0.5491724,9.69877685,9e-08,0.0,0.0,0.0,9e-08,0.0,0.0,0.0,9e-08
1536692216867725176,2706,1536692216867386072,base_link,0.0168930960527,-0.0608584407886,-0.693765329152,-0.717426331798,1.0,0.0,0.0,0.0,1.0,0.0,0.0,0.0,1.0,-0.0397656969726,-0.0423665307462,0.031180087477,1.21846967915e-07,0.0,0.0,0.0,1.21846967915e-07,0.0,0.0,0.0,1.21846967915e-07,-0.4118793,0.38245935,11.75817335,9e-08,0.0,0.0,0.0,9e-08,0.0,0.0,0.0,9e-08
1536692217244272728,2707,1536692217243990712,base_link,0.0105118949071,-0.0565455621977,-0.696823593093,-0.714932849693,1.0,0.0,0.0,0.0,1.0,0.0,0.0,0.0,1.0,-0.0221038423479,-0.0355262160301,-0.00909224059433,1.21846967915e-07,0.0,0.0,0.0,1.21846967915e-07,0.0,0.0,0.0,1.21846967915e-07,-0.61781895,0.57859235,10.67944185,9e-08,0.0,0.0,0.0,9e-08,0.0,0.0,0.0,9e-08
1536692217753013208,2708,1536692217752722744,base_link,0.0031365165734,-0.0500103517232,-0.692693181301,-0.719489599344,1.0,0.0,0.0,0.0,1.0,0.0,0.0,0.0,1.0,-0.0100286342204,-0.0362973250449,-0.00272772554308,1.21846967915e-07,0.0,0.0,0.0,1.21846967915e-07,0.0,0.0,0.0,1.21846967915e-07,-0.57859235,0.4118793,10.40485565,9e-08,0.0,0.0,0.0,9e-08,0.0,0.0,0.0,9e-08
1536692218124326904,2709,1536692218123949688,base_link,0.0154267841064,-0.0259153835393,-0.694766306932,-0.71860294042,1.0,0.0,0.0,0.0,1.0,0.0,0.0,0.0,1.0,0.00570361781865,-0.0515596345067,0.00854007527232,1.21846967915e-07,0.0,0.0,0.0,1.21846967915e-07,0.0,0.0,0.0,1.21846967915e-07,-0.3530394,0.40207265,10.22833595,9e-08,0.0,0.0,0.0,9e-08,0.0,0.0,0.0,9e-08
1536692218444431928,2710,1536692218442324248,base_link,0.00936406364387,-0.0230207462378,-0.697240582873,-0.716406259849,1.0,0.0,0.0,0.0,1.0,0.0,0.0,0.0,1.0,0.00739238038659,-0.0380821153522,0.0515594370663,1.21846967915e-07,0.0,0.0,0.0,1.21846967915e-07,0.0,0.0,0.0,1.21846967915e-07,-0.5099458,0.3138128,11.28745415,9e-08,0.0,0.0,0.0,9e-08,0.0,0.0,0.0,9e-08
1536692218912841400,2711,1536692218912548184,base_link,-0.0082342266697,-0.0362063320144,-0.705626363003,-0.707610581371,1.0,0.0,0.0,0.0,1.0,0.0,0.0,0.0,1.0,0.0770764052868,0.015350795351,0.0505161695182,1.21846967915e-07,0.0,0.0,0.0,1.21846967915e-07,0.0,0.0,0.0,1.21846967915e-07,-0.2941995,0.3726527,10.48330885,9e-08,0.0,0.0,0.0,9e-08,0.0,0.0,0.0,9e-08
1536692219286049720,2712,1536692219285763512,base_link,-0.00875187224257,-0.037744510526,-0.708524837171,-0.704621396048,1.0,0.0,0.0,0.0,1.0,0.0,0.0,0.0,1.0,-0.0978750437498,-0.00830081943423,-0.00761538650841,1.21846967915e-07,0.0,0.0,0.0,1.21846967915e-07,0.0,0.0,0.0,1.21846967915e-07,-0.44129925,0.36284605,10.4735022,9e-08,0.0,0.0,0.0,9e-08,0.0,0.0,0.0,9e-08
1536692219673682104,2713,1536692219673428120,base_link,0.00159652460163,-0.0325662852528,-0.711369945027,-0.702061029745,1.0,0.0,0.0,0.0,1.0,0.0,0.0,0.0,1.0,0.0322933085263,0.0335618183017,0.031577989459,1.21846967915e-07,0.0,0.0,0.0,1.21846967915e-07,0.0,0.0,0.0,1.21846967915e-07,-0.4314926,0.14709975,9.1005712,9e-08,0.0,0.0,0.0,9e-08,0.0,0.0,0.0,9e-08
1536692220080404920,2714,1536692220079861208,base_link,-0.0121678677296,-0.0555982856359,-0.714705382135,-0.69710615431,1.0,0.0,0.0,0.0,1.0,0.0,0.0,0.0,1.0,0.172065019608,0.0552366785705,0.00753030320629,1.21846967915e-07,0.0,0.0,0.0,1.21846967915e-07,0.0,0.0,0.0,1.21846967915e-07,-0.5099458,0.48052585,9.62032365,9e-08,0.0,0.0,0.0,9e-08,0.0,0.0,0.0,9e-08
1536692220480115832,2715,1536692220479777464,base_link,-0.0370063488375,-0.0973642818386,-0.700504303796,-0.706005982362,1.0,0.0,0.0,0.0,1.0,0.0,0.0,0.0,1.0,0.351522356272,0.0308614224195,-0.174253836274,1.21846967915e-07,0.0,0.0,0.0,1.21846967915e-07,0.0,0.0,0.0,1.21846967915e-07,-0.63743225,0.588399,8.9436648,9e-08,0.0,0.0,0.0,9e-08,0.0,0.0,0.0,9e-08
1536692220852182872,2716,1536692220851881240,base_link,-0.0750966092875,-0.136484745973,-0.673846954976,-0.722262206307,1.0,0.0,0.0,0.0,1.0,0.0,0.0,0.0,1.0,0.350425839424,-0.0299438368529,-0.148978620768,1.21846967915e-07,0.0,0.0,0.0,1.21846967915e-07,0.0,0.0,0.0,1.21846967915e-07,-0.4314926,0.5491724,9.97336305,9e-08,0.0,0.0,0.0,9e-08,0.0,0.0,0.0,9e-08
1536692221339413816,2717,1536692221339083064,base_link,-0.131622981013,-0.171881348059,-0.638850038693,-0.738243063713,1.0,0.0,0.0,0.0,1.0,0.0,0.0,0.0,1.0,0.303185909986,-0.0963070765138,-0.131190448999,1.21846967915e-07,0.0,0.0,0.0,1.21846967915e-07,0.0,0.0,0.0,1.21846967915e-07,-0.2941995,0.51975245,10.787315,9e-08,0.0,0.0,0.0,9e-08,0.0,0.0,0.0,9e-08
1536692221588505240,2718,1536692221585284920,base_link,-0.164562129656,-0.185033469212,-0.616409809114,-0.747476332724,1.0,0.0,0.0,0.0,1.0,0.0,0.0,0.0,1.0,0.159883350134,-0.145295277238,-0.15815936029,1.21846967915e-07,0.0,0.0,0.0,1.21846967915e-07,0.0,0.0,0.0,1.21846967915e-07,-0.18632635,0.69627215,11.46397385,9e-08,0.0,0.0,0.0,9e-08,0.0,0.0,0.0,9e-08
1536692222041598936,2719,1536692222039771352,base_link,-0.215122940314,-0.191274839495,-0.57382358959,-0.766721947225,1.0,0.0,0.0,0.0,1.0,0.0,0.0,0.0,1.0,0.254220932722,-0.169078677893,-0.143801599741,1.21846967915e-07,0.0,0.0,0.0,1.21846967915e-07,0.0,0.0,0.0,1.21846967915e-07,-0.02941995,0.65704555,12.67999845,9e-08,0.0,0.0,0.0,9e-08,0.0,0.0,0.0,9e-08
1536692222427029496,2720,1536692222425793496,base_link,-0.254107682595,-0.18567278577,-0.53309507546,-0.785343582638,1.0,0.0,0.0,0.0,1.0,0.0,0.0,0.0,1.0,-0.0113898357376,-0.197351828218,-0.215805634856,1.21846967915e-07,0.0,0.0,0.0,1.21846967915e-07,0.0,0.0,0.0,1.21846967915e-07,0.0392266,0.8825985,13.1801376,9e-08,0.0,0.0,0.0,9e-08,0.0,0.0,0.0,9e-08
1536692222756916184,2721,1536692222756635960,base_link,-0.2591976514,-0.166038411446,-0.491989924172,-0.814367078133,1.0,0.0,0.0,0.0,1.0,0.0,0.0,0.0,1.0,0.0341555513442,-0.195366278291,-0.246157437563,1.21846967915e-07,0.0,0.0,0.0,1.21846967915e-07,0.0,0.0,0.0,1.21846967915e-07,0.12748645,0.6276256,12.44463885,9e-08,0.0,0.0,0.0,9e-08,0.0,0.0,0.0,9e-08
1536692223262636920,2722,1536692223262166936,base_link,-0.283967590895,-0.159929140353,-0.424132489078,-0.844924084812,1.0,0.0,0.0,0.0,1.0,0.0,0.0,0.0,1.0,0.171522766352,-0.137437239289,-0.288060247898,1.21846967915e-07,0.0,0.0,0.0,1.21846967915e-07,0.0,0.0,0.0,1.21846967915e-07,0.04903325,0.8041453,10.1793027,9e-08,0.0,0.0,0.0,9e-08,0.0,0.0,0.0,9e-08
1536692223697569880,2723,1536692223697242584,base_link,-0.302786564026,-0.147316707878,-0.361421164327,-0.869478479436,1.0,0.0,0.0,0.0,1.0,0.0,0.0,0.0,1.0,-0.138573512435,-0.175388067961,-0.200832083821,1.21846967915e-07,0.0,0.0,0.0,1.21846967915e-07,0.0,0.0,0.0,1.21846967915e-07,0.16671305,0.79433865,11.0030613,9e-08,0.0,0.0,0.0,9e-08,0.0,0.0,0.0,9e-08
1536692224002101880,2724,1536692224000531192,base_link,-0.290738202364,-0.127853429829,-0.322628224138,-0.891647815652,1.0,0.0,0.0,0.0,1.0,0.0,0.0,0.0,1.0,-0.0657020807266,-0.142212688923,-0.280277371407,1.21846967915e-07,0.0,0.0,0.0,1.21846967915e-07,0.0,0.0,0.0,1.21846967915e-07,0.04903325,0.8041453,11.3561007,9e-08,0.0,0.0,0.0,9e-08,0.0,0.0,0.0,9e-08
1536692224438860472,2725,1536692224438592760,base_link,-0.287837470929,-0.110601502529,-0.25294143358,-0.917026460439,1.0,0.0,0.0,0.0,1.0,0.0,0.0,0.0,1.0,0.0617140308022,-0.172454997897,-0.285639405251,1.21846967915e-07,0.0,0.0,0.0,1.21846967915e-07,0.0,0.0,0.0,1.21846967915e-07,-0.04903325,0.34323275,10.7284751,9e-08,0.0,0.0,0.0,9e-08,0.0,0.0,0.0,9e-08
1536692224878749880,2726,1536692224878481944,base_link,-0.29577995231,-0.0903325165442,-0.190227518757,-0.931755197127,1.0,0.0,0.0,0.0,1.0,0.0,0.0,0.0,1.0,-0.0112426308915,-0.161057218909,-0.254357993603,1.21846967915e-07,0.0,0.0,0.0,1.21846967915e-07,0.0,0.0,0.0,1.21846967915e-07,0.02941995,0.7256921,10.8069283,9e-08,0.0,0.0,0.0,9e-08,0.0,0.0,0.0,9e-08
1536692225450013496,2727,1536692225449563672,base_link,-0.254036715033,-0.063124008593,-0.101267741157,-0.959804954955,1.0,0.0,0.0,0.0,1.0,0.0,0.0,0.0,1.0,-0.272950023413,-0.138047590852,-0.351598083973,1.21846967915e-07,0.0,0.0,0.0,1.21846967915e-07,0.0,0.0,0.0,1.21846967915e-07,0.06864655,1.26505785,12.5917386,9e-08,0.0,0.0,0.0,9e-08,0.0,0.0,0.0,9e-08
1536692225797116312,2728,1536692225790199448,base_link,-0.226488001303,-0.0449875786967,-0.0469968478671,-0.971838772286,1.0,0.0,0.0,0.0,1.0,0.0,0.0,0.0,1.0,-0.283184766769,-0.187971770763,-0.223750293255,1.21846967915e-07,0.0,0.0,0.0,1.21846967915e-07,0.0,0.0,0.0,1.21846967915e-07,-0.20593965,0.16671305,11.7287534,9e-08,0.0,0.0,0.0,9e-08,0.0,0.0,0.0,9e-08
1536692226187159800,2729,1536692226186754264,base_link,-0.166188246543,-0.0145556731691,-0.0139905808097,-0.985887347894,1.0,0.0,0.0,0.0,1.0,0.0,0.0,0.0,1.0,-0.270991802216,-0.102807015181,-0.150027409196,1.21846967915e-07,0.0,0.0,0.0,1.21846967915e-07,0.0,0.0,0.0,1.21846967915e-07,-0.0196133,0.4903325,11.97391965,9e-08,0.0,0.0,0.0,9e-08,0.0,0.0,0.0,9e-08
1536692226609068024,2730,1536692226608626168,base_link,-0.131932439999,0.00237986515791,0.0045600317871,-0.991245364997,1.0,0.0,0.0,0.0,1.0,0.0,0.0,0.0,1.0,-0.337686896324,-0.0483647398651,-0.0723077133298,1.21846967915e-07,0.0,0.0,0.0,1.21846967915e-07,0.0,0.0,0.0,1.21846967915e-07,-0.28439285,0.6864655,10.34601575,9e-08,0.0,0.0,0.0,9e-08,0.0,0.0,0.0,9e-08
1536692226940934040,2731,1536692226940534072,base_link,-0.0805766040938,0.0058260615091,0.0265879634898,-0.996376709923,1.0,0.0,0.0,0.0,1.0,0.0,0.0,0.0,1.0,-0.12672059238,-0.0400650501251,-0.134907454252,1.21846967915e-07,0.0,0.0,0.0,1.21846967915e-07,0.0,0.0,0.0,1.21846967915e-07,-0.22555295,0.38245935,10.8657682,9e-08,0.0,0.0,0.0,9e-08,0.0,0.0,0.0,9e-08
1536692227486918776,2732,1536692227486471064,base_link,-0.0213380334044,0.00503306175816,0.0456385415592,-0.998717417563,1.0,0.0,0.0,0.0,1.0,0.0,0.0,0.0,1.0,-0.149876728654,-0.00569552136585,-0.0644410252571,1.21846967915e-07,0.0,0.0,0.0,1.21846967915e-07,0.0,0.0,0.0,1.21846967915e-07,-0.24516625,0.24516625,9.1790244,9e-08,0.0,0.0,0.0,9e-08,0.0,0.0,0.0,9e-08
1536692227898502488,2733,1536692227897963448,base_link,0.0022543481225,0.00471929623412,0.0401646604835,-0.9991793864,1.0,0.0,0.0,0.0,1.0,0.0,0.0,0.0,1.0,-0.244076639414,0.00693627540022,0.0904787778854,1.21846967915e-07,0.0,0.0,0.0,1.21846967915e-07,0.0,0.0,0.0,1.21846967915e-07,-0.20593965,0.06864655,10.8461549,9e-08,0.0,0.0,0.0,9e-08,0.0,0.0,0.0,9e-08
1536692228385610104,2734,1536692228385307288,base_link,0.0446120803558,-0.00532664354839,0.02590960194,-0.998654135165,1.0,0.0,0.0,0.0,1.0,0.0,0.0,0.0,1.0,-0.124520130455,0.0500388368964,0.0480489730835,1.21846967915e-07,0.0,0.0,0.0,1.21846967915e-07,0.0,0.0,0.0,1.21846967915e-07,-0.36284605,0.24516625,8.5121722,9e-08,0.0,0.0,0.0,9e-08,0.0,0.0,0.0,9e-08
1536692228660998424,2735,1536692228660649976,base_link,0.0533463040475,-0.0133443495222,0.0172797141477,-0.998337373666,1.0,0.0,0.0,0.0,1.0,0.0,0.0,0.0,1.0,-0.038302578032,0.0541709959507,0.0491196885705,1.21846967915e-07,0.0,0.0,0.0,1.21846967915e-07,0.0,0.0,0.0,1.21846967915e-07,-0.22555295,0.4314926,7.9237732,9e-08,0.0,0.0,0.0,9e-08,0.0,0.0,0.0,9e-08
1536692228999415928,2736,1536692228998754200,base_link,0.0548034417975,-0.0190112765263,0.00832853352433,-0.998281418069,1.0,0.0,0.0,0.0,1.0,0.0,0.0,0.0,1.0,0.0263497531414,0.0083839520812,0.0788207277656,1.21846967915e-07,0.0,0.0,0.0,1.21846967915e-07,0.0,0.0,0.0,1.21846967915e-07,-0.14709975,0.10787315,9.6301303,9e-08,0.0,0.0,0.0,9e-08,0.0,0.0,0.0,9e-08
1536692229258389208,2737,1536692229258074072,base_link,0.0494924885816,-0.0204366600618,-0.00528344318339,-0.99855141166,1.0,0.0,0.0,0.0,1.0,0.0,0.0,0.0,1.0,0.0283341482282,-0.01122504659,0.10630659014,1.21846967915e-07,0.0,0.0,0.0,1.21846967915e-07,0.0,0.0,0.0,1.21846967915e-07,-0.0196133,0.4118793,9.4732239,9e-08,0.0,0.0,0.0,9e-08,0.0,0.0,0.0,9e-08
1536692229580126232,2738,1536692229579682072,base_link,0.0430420420947,-0.0166661702214,-0.0229147022148,-0.998671386295,1.0,0.0,0.0,0.0,1.0,0.0,0.0,0.0,1.0,0.065751068294,-0.0306309144944,0.0970436930656,1.21846967915e-07,0.0,0.0,0.0,1.21846967915e-07,0.0,0.0,0.0,1.21846967915e-07,0.0588399,0.48052585,11.03248125,9e-08,0.0,0.0,0.0,9e-08,0.0,0.0,0.0,9e-08
1536692230045323832,2739,1536692230045099352,base_link,0.00694290419324,-0.0152128657,-0.0416876439148,-0.998990743272,1.0,0.0,0.0,0.0,1.0,0.0,0.0,0.0,1.0,0.162862539291,-0.00857288017869,0.0511063560843,1.21846967915e-07,0.0,0.0,0.0,1.21846967915e-07,0.0,0.0,0.0,1.21846967915e-07,0.0980665,0.61781895,10.0812362,9e-08,0.0,0.0,0.0,9e-08,0.0,0.0,0.0,9e-08
1536692230439294264,2740,1536692230439028536,base_link,-0.0253253877802,-0.0133546948911,-0.0442758166878,-0.998608997013,1.0,0.0,0.0,0.0,1.0,0.0,0.0,0.0,1.0,0.114585205913,-0.0155760832131,-0.00625057658181,1.21846967915e-07,0.0,0.0,0.0,1.21846967915e-07,0.0,0.0,0.0,1.21846967915e-07,0.4511059,0.63743225,10.36562905,9e-08,0.0,0.0,0.0,9e-08,0.0,0.0,0.0,9e-08
1536692230851868824,2741,1536692230851624536,base_link,-0.0383305125411,-0.010707255626,-0.0432740584742,-0.998270245148,1.0,0.0,0.0,0.0,1.0,0.0,0.0,0.0,1.0,0.0233646668494,-0.0265937559307,-0.00254961429164,1.21846967915e-07,0.0,0.0,0.0,1.21846967915e-07,0.0,0.0,0.0,1.21846967915e-07,0.40207265,0.67665885,10.32640245,9e-08,0.0,0.0,0.0,9e-08,0.0,0.0,0.0,9e-08
1536692231149817784,2742,1536692231149611192,base_link,-0.0455784248735,-0.00497689031038,-0.044121255901,-0.997973522959,1.0,0.0,0.0,0.0,1.0,0.0,0.0,0.0,1.0,0.0558122321963,-0.0441495217383,0.000740947434679,1.21846967915e-07,0.0,0.0,0.0,1.21846967915e-07,0.0,0.0,0.0,1.21846967915e-07,0.44129925,0.6864655,10.7088618,9e-08,0.0,0.0,0.0,9e-08,0.0,0.0,0.0,9e-08
1536692231647178008,2743,1536692231646640120,base_link,-0.0500364906418,0.00716710330359,-0.0420686091896,-0.997835264137,1.0,0.0,0.0,0.0,1.0,0.0,0.0,0.0,1.0,-0.0406467542052,-0.0500401444733,0.000296489219181,1.21846967915e-07,0.0,0.0,0.0,1.21846967915e-07,0.0,0.0,0.0,1.21846967915e-07,0.6080123,0.6864655,11.15016105,9e-08,0.0,0.0,0.0,9e-08,0.0,0.0,0.0,9e-08
1536692232071072440,2744,1536692232070816056,base_link,-0.0509360275636,0.0171613603517,-0.0427783129914,-0.997637722194,1.0,0.0,0.0,0.0,1.0,0.0,0.0,0.0,1.0,0.0629843696952,-0.0440370701253,-0.0148216700181,1.21846967915e-07,0.0,0.0,0.0,1.21846967915e-07,0.0,0.0,0.0,1.21846967915e-07,0.65704555,0.7453054,10.6304086,9e-08,0.0,0.0,0.0,9e-08,0.0,0.0,0.0,9e-08
1536692232458146840,2745,1536692232457923384,base_link,-0.0602509603744,0.018491922958,-0.0395433904964,-0.997228254126,1.0,0.0,0.0,0.0,1.0,0.0,0.0,0.0,1.0,-0.0404012128711,0.00708597758785,-0.0156231150031,1.21846967915e-07,0.0,0.0,0.0,1.21846967915e-07,0.0,0.0,0.0,1.21846967915e-07,0.4707192,0.57859235,9.8262633,9e-08,0.0,0.0,0.0,9e-08,0.0,0.0,0.0,9e-08
1536692232895373976,2746,1536692232895075192,base_link,-0.0520130863238,0.0178331940025,-0.0321547019551,-0.997969283688,1.0,0.0,0.0,0.0,1.0,0.0,0.0,0.0,1.0,0.00970438495278,0.00879143644124,-0.0405487678945,1.21846967915e-07,0.0,0.0,0.0,1.21846967915e-07,0.0,0.0,0.0,1.21846967915e-07,0.48052585,0.5099458,9.65955025,9e-08,0.0,0.0,0.0,9e-08,0.0,0.0,0.0,9e-08
1536692233362946744,2747,1536692233362167128,base_link,-0.0592408706109,0.0165800404312,-0.0265626460758,-0.997752498038,1.0,0.0,0.0,0.0,1.0,0.0,0.0,0.0,1.0,-0.00186017993838,0.00660745473579,-0.00303650274873,1.21846967915e-07,0.0,0.0,0.0,1.21846967915e-07,0.0,0.0,0.0,1.21846967915e-07,0.53936575,0.5099458,9.4339973,9e-08,0.0,0.0,0.0,9e-08,0.0,0.0,0.0,9e-08
1536692233738685848,2748,1536692233738314360,base_link,-0.0506363333233,0.0172359386048,-0.025177626732,-0.998250956063,1.0,0.0,0.0,0.0,1.0,0.0,0.0,0.0,1.0,-0.0711351335049,0.00533301196992,-0.0138381589204,1.21846967915e-07,0.0,0.0,0.0,1.21846967915e-07,0.0,0.0,0.0,1.21846967915e-07,0.5687857,0.65704555,10.0616229,9e-08,0.0,0.0,0.0,9e-08,0.0,0.0,0.0,9e-08
1536692234079115032,2749,1536692234078347672,base_link,-0.0415718480633,0.0168217343466,-0.0237266436191,-0.998712099198,1.0,0.0,0.0,0.0,1.0,0.0,0.0,0.0,1.0,-0.0440267473459,0.0041871345602,0.00852473638952,1.21846967915e-07,0.0,0.0,0.0,1.21846967915e-07,0.0,0.0,0.0,1.21846967915e-07,0.6472389,0.50013915,10.26756255,9e-08,0.0,0.0,0.0,9e-08,0.0,0.0,0.0,9e-08
1536692234436231576,2750,1536692234435891608,base_link,-0.0321776390725,0.0161160784385,-0.0263204178735,-0.999005559125,1.0,0.0,0.0,0.0,1.0,0.0,0.0,0.0,1.0,-0.0253712236881,0.0101524479687,0.0178773421794,1.21846967915e-07,0.0,0.0,0.0,1.21846967915e-07,0.0,0.0,0.0,1.21846967915e-07,0.46091255,0.57859235,9.5909037,9e-08,0.0,0.0,0.0,9e-08,0.0,0.0,0.0,9e-08
1536692234903481464,2751,1536692234903206264,base_link,-0.0333843657523,0.0153298066108,-0.0305902435519,-0.998856705515,1.0,0.0,0.0,0.0,1.0,0.0,0.0,0.0,1.0,-0.0107480082661,0.00185108289588,0.0305671375245,1.21846967915e-07,0.0,0.0,0.0,1.21846967915e-07,0.0,0.0,0.0,1.21846967915e-07,0.5687857,0.5295591,9.60071035,9e-08,0.0,0.0,0.0,9e-08,0.0,0.0,0.0,9e-08
1536692235300128536,2752,1536692235299746168,base_link,-0.0294276942348,0.0142955408361,-0.0365209504206,-0.998797210901,1.0,0.0,0.0,0.0,1.0,0.0,0.0,0.0,1.0,0.00622078962624,0.0113381762058,0.0174070000648,1.21846967915e-07,0.0,0.0,0.0,1.21846967915e-07,0.0,0.0,0.0,1.21846967915e-07,0.50013915,0.4511059,9.32612415,9e-08,0.0,0.0,0.0,9e-08,0.0,0.0,0.0,9e-08
1536692235703040888,2753,1536692235693363800,base_link,-0.0402622349661,0.0126241878827,-0.038336078135,-0.998373641193,1.0,0.0,0.0,0.0,1.0,0.0,0.0,0.0,1.0,0.0444435700774,0.00258042197675,0.00440450618044,1.21846967915e-07,0.0,0.0,0.0,1.21846967915e-07,0.0,0.0,0.0,1.21846967915e-07,0.48052585,0.6080123,9.7478101,9e-08,0.0,0.0,0.0,9e-08,0.0,0.0,0.0,9e-08
1536692236040459320,2754,1536692236039901688,base_link,-0.0449158809492,0.012147095826,-0.0382535365211,-0.998184190741,1.0,0.0,0.0,0.0,1.0,0.0,0.0,0.0,1.0,0.0227837115526,0.00580902677029,-0.000150895211846,1.21846967915e-07,0.0,0.0,0.0,1.21846967915e-07,0.0,0.0,0.0,1.21846967915e-07,0.46091255,0.3726527,10.3558224,9e-08,0.0,0.0,0.0,9e-08,0.0,0.0,0.0,9e-08
1536692236480803192,2755,1536692236480444760,base_link,-0.0487527319412,0.0126454414128,-0.0387627501961,-0.997978312959,1.0,0.0,0.0,0.0,1.0,0.0,0.0,0.0,1.0,0.0375224724412,-0.00236696680076,0.0108275134116,1.21846967915e-07,0.0,0.0,0.0,1.21846967915e-07,0.0,0.0,0.0,1.21846967915e-07,0.50013915,0.3334261,9.89490985,9e-08,0.0,0.0,0.0,9e-08,0.0,0.0,0.0,9e-08
1536692236738291512,2756,1536692236737968280,base_link,-0.0491902542373,0.0133648404561,-0.0390876761564,-0.997934794213,1.0,0.0,0.0,0.0,1.0,0.0,0.0,0.0,1.0,0.00841060094535,-0.0183316059411,0.00969874951988,1.21846967915e-07,0.0,0.0,0.0,1.21846967915e-07,0.0,0.0,0.0,1.21846967915e-07,0.3726527,0.2157463,10.1204628,9e-08,0.0,0.0,0.0,9e-08,0.0,0.0,0.0,9e-08
1536692237145706680,2757,1536692237141294488,base_link,-0.0431713898712,0.0167056897223,-0.0447827746387,-0.997923671492,1.0,0.0,0.0,0.0,1.0,0.0,0.0,0.0,1.0,-0.0561748296022,-0.014473117888,0.0175590272993,1.21846967915e-07,0.0,0.0,0.0,1.21846967915e-07,0.0,0.0,0.0,1.21846967915e-07,0.38245935,0.6864655,10.6304086,9e-08,0.0,0.0,0.0,9e-08,0.0,0.0,0.0,9e-08
1536692237537646744,2758,1536692237537239480,base_link,-0.0553571301825,0.0146930188181,-0.0432988058495,-0.997419127924,1.0,0.0,0.0,0.0,1.0,0.0,0.0,0.0,1.0,0.0391056388617,0.0215246323496,-0.0194501057267,1.21846967915e-07,0.0,0.0,0.0,1.21846967915e-07,0.0,0.0,0.0,1.21846967915e-07,0.32361945,0.55897905,9.7674234,9e-08,0.0,0.0,0.0,9e-08,0.0,0.0,0.0,9e-08
1536692238025016248,2759,1536692238024634904,base_link,-0.0485748702485,0.0134187406864,-0.0360964207297,-0.998076884708,1.0,0.0,0.0,0.0,1.0,0.0,0.0,0.0,1.0,0.0423751585186,0.00423757592216,0.00263226707466,1.21846967915e-07,0.0,0.0,0.0,1.21846967915e-07,0.0,0.0,0.0,1.21846967915e-07,0.3530394,0.30400615,8.97308475,9e-08,0.0,0.0,0.0,9e-08,0.0,0.0,0.0,9e-08
1536692238494639352,2760,1536692238494265272,base_link,-0.0445823984686,0.0155149154005,-0.0456159216829,-0.997843116344,1.0,0.0,0.0,0.0,1.0,0.0,0.0,0.0,1.0,-0.0915634930134,0.0289211831987,0.0433441586792,1.21846967915e-07,0.0,0.0,0.0,1.21846967915e-07,0.0,0.0,0.0,1.21846967915e-07,0.4903325,0.392266,10.05181625,9e-08,0.0,0.0,0.0,9e-08,0.0,0.0,0.0,9e-08
1536692238841219800,2761,1536692238839616568,base_link,-0.0331110557463,0.00894241789744,-0.0501935157268,-0.998150440629,1.0,0.0,0.0,0.0,1.0,0.0,0.0,0.0,1.0,-0.086771517992,0.0532060712576,-0.00724855531007,1.21846967915e-07,0.0,0.0,0.0,1.21846967915e-07,0.0,0.0,0.0,1.21846967915e-07,0.48052585,0.53936575,9.62032365,9e-08,0.0,0.0,0.0,9e-08,0.0,0.0,0.0,9e-08
1536692239191549112,2762,1536692239187482232,base_link,-0.0306077913687,-0.000990177071866,-0.0445312224847,-0.998538508462,1.0,0.0,0.0,0.0,1.0,0.0,0.0,0.0,1.0,0.105902254581,0.0501635633409,-0.0492564626038,1.21846967915e-07,0.0,0.0,0.0,1.21846967915e-07,0.0,0.0,0.0,1.21846967915e-07,0.588399,0.59820565,8.93385815,9e-08,0.0,0.0,0.0,9e-08,0.0,0.0,0.0,9e-08
1536692239582764088,2763,1536692239582429432,base_link,-0.0349755354759,-0.00623140131843,-0.0356041743896,-0.998734311177,1.0,0.0,0.0,0.0,1.0,0.0,0.0,0.0,1.0,0.0386287160218,0.00822345167398,-0.0238483548164,1.21846967915e-07,0.0,0.0,0.0,1.21846967915e-07,0.0,0.0,0.0,1.21846967915e-07,0.588399,0.26477955,9.56148375,9e-08,0.0,0.0,0.0,9e-08,0.0,0.0,0.0,9e-08
1536692240050611608,2764,1536692240049908088,base_link,-0.0499544880276,-0.00311442979071,-0.0373309465972,-0.998048721195,1.0,0.0,0.0,0.0,1.0,0.0,0.0,0.0,1.0,0.0328689664602,-0.0108074350283,0.00579458847642,1.21846967915e-07,0.0,0.0,0.0,1.21846967915e-07,0.0,0.0,0.0,1.21846967915e-07,0.67665885,0.5295591,10.05181625,9e-08,0.0,0.0,0.0,9e-08,0.0,0.0,0.0,9e-08
1536692240339773272,2765,1536692240339416856,base_link,-0.0539052622106,-0.00151248394009,-0.0377127759754,-0.997832491767,1.0,0.0,0.0,0.0,1.0,0.0,0.0,0.0,1.0,0.0345192924142,-0.0151592046022,0.000267578172497,1.21846967915e-07,0.0,0.0,0.0,1.21846967915e-07,0.0,0.0,0.0,1.21846967915e-07,0.89240515,0.7453054,10.4538889,9e-08,0.0,0.0,0.0,9e-08,0.0,0.0,0.0,9e-08
1536692240751263512,2766,1536692240750687448,base_link,-0.0444004477267,0.00525966449168,-0.035535796268,-0.99836773954,1.0,0.0,0.0,0.0,1.0,0.0,0.0,0.0,1.0,0.0209260731936,-0.0524217635393,-0.0136570166796,1.21846967915e-07,0.0,0.0,0.0,1.21846967915e-07,0.0,0.0,0.0,1.21846967915e-07,0.77472535,0.4707192,10.28717585,9e-08,0.0,0.0,0.0,9e-08,0.0,0.0,0.0,9e-08
1536692241072465144,2767,1536692241072195960,base_link,-0.0552057498368,0.0157962476006,-0.0375851226006,-0.997642301782,1.0,0.0,0.0,0.0,1.0,0.0,0.0,0.0,1.0,0.0646941959858,-0.0652571097016,0.0175907500088,1.21846967915e-07,0.0,0.0,0.0,1.21846967915e-07,0.0,0.0,0.0,1.21846967915e-07,0.9022118,0.40207265,11.48358715,9e-08,0.0,0.0,0.0,9e-08,0.0,0.0,0.0,9e-08
1536692241547586200,2768,1536692241546610520,base_link,-0.0712731738296,0.0286717747883,-0.0450062791118,-0.996028362479,1.0,0.0,0.0,0.0,1.0,0.0,0.0,0.0,1.0,0.0165241658688,-0.0199311040342,0.00124069373123,1.21846967915e-07,0.0,0.0,0.0,1.21846967915e-07,0.0,0.0,0.0,1.21846967915e-07,0.8433719,0.588399,10.6892485,9e-08,0.0,0.0,0.0,9e-08,0.0,0.0,0.0,9e-08
1536692241878102328,2769,1536692241877849592,base_link,-0.0925522939628,0.0294142647776,-0.04071402004,-0.99444016536,1.0,0.0,0.0,0.0,1.0,0.0,0.0,0.0,1.0,0.253374606371,-0.00736230006441,-0.058822453022,1.21846967915e-07,0.0,0.0,0.0,1.21846967915e-07,0.0,0.0,0.0,1.21846967915e-07,0.8041453,0.28439285,10.58137535,9e-08,0.0,0.0,0.0,9e-08,0.0,0.0,0.0,9e-08
1536692242294685400,2770,1536692242293544952,base_link,-0.137614178762,0.0285894030409,-0.0261947649287,-0.989726638081,1.0,0.0,0.0,0.0,1.0,0.0,0.0,0.0,1.0,0.174532443285,-0.00224792538211,-0.10425619781,1.21846967915e-07,0.0,0.0,0.0,1.21846967915e-07,0.0,0.0,0.0,1.21846967915e-07,0.59820565,0.588399,9.65955025,9e-08,0.0,0.0,0.0,9e-08,0.0,0.0,0.0,9e-08
1536692242735410680,2771,1536692242735018232,base_link,-0.193608696551,0.0242152224625,-2.21531028428e-05,-0.980779942255,1.0,0.0,0.0,0.0,1.0,0.0,0.0,0.0,1.0,0.350210487843,-0.0111771505326,-0.140536621213,1.21846967915e-07,0.0,0.0,0.0,1.21846967915e-07,0.0,0.0,0.0,1.21846967915e-07,0.75511205,0.57859235,9.24767095,9e-08,0.0,0.0,0.0,9e-08,0.0,0.0,0.0,9e-08
1536692243139150872,2772,1536692243138792600,base_link,-0.26334754436,0.0291489081742,0.0332237505631,-0.963688017167,1.0,0.0,0.0,0.0,1.0,0.0,0.0,0.0,1.0,0.317008972168,-0.093913346529,-0.169545650482,1.21846967915e-07,0.0,0.0,0.0,1.21846967915e-07,0.0,0.0,0.0,1.21846967915e-07,0.8433719,0.95124505,10.71866845,9e-08,0.0,0.0,0.0,9e-08,0.0,0.0,0.0,9e-08
1536692243429253496,2773,1536692243428629016,base_link,-0.27582882675,0.0352474551009,0.0650531386118,-0.95835492611,1.0,0.0,0.0,0.0,1.0,0.0,0.0,0.0,1.0,-0.0419702008367,-0.107362419367,-0.246374160051,1.21846967915e-07,0.0,0.0,0.0,1.21846967915e-07,0.0,0.0,0.0,1.21846967915e-07,0.99047165,0.8433719,10.03220295,9e-08,0.0,0.0,0.0,9e-08,0.0,0.0,0.0,9e-08
1536692243880650072,2774,1536692243880328984,base_link,-0.327390344422,0.0560549413057,0.138318208632,-0.933028123421,1.0,0.0,0.0,0.0,1.0,0.0,0.0,0.0,1.0,0.255560100079,-0.195989236236,-0.281576216221,1.21846967915e-07,0.0,0.0,0.0,1.21846967915e-07,0.0,0.0,0.0,1.21846967915e-07,1.2944778,0.8433719,11.76798,9e-08,0.0,0.0,0.0,9e-08,0.0,0.0,0.0,9e-08
1536692244271320952,2775,1536692244271094040,base_link,-0.354340988532,0.0814824172134,0.204243006737,-0.908893763721,1.0,0.0,0.0,0.0,1.0,0.0,0.0,0.0,1.0,0.169092848897,-0.240006506443,-0.34298992157,1.21846967915e-07,0.0,0.0,0.0,1.21846967915e-07,0.0,0.0,0.0,1.21846967915e-07,1.61809725,1.08853815,11.9052731,9e-08,0.0,0.0,0.0,9e-08,0.0,0.0,0.0,9e-08
1536692244683260824,2776,1536692244681422328,base_link,-0.354159171375,0.112813681156,0.289873580566,-0.881939715607,1.0,0.0,0.0,0.0,1.0,0.0,0.0,0.0,1.0,0.0260913483799,-0.271189212799,-0.353688061237,1.21846967915e-07,0.0,0.0,0.0,1.21846967915e-07,0.0,0.0,0.0,1.21846967915e-07,1.96133,1.18660465,12.93497135,9e-08,0.0,0.0,0.0,9e-08,0.0,0.0,0.0,9e-08
1536692245033772696,2777,1536692245033467160,base_link,-0.354243311757,0.148212409318,0.360745231793,-0.849945666227,1.0,0.0,0.0,0.0,1.0,0.0,0.0,0.0,1.0,0.0186054259539,-0.347405701876,-0.281085908413,1.21846967915e-07,0.0,0.0,0.0,1.21846967915e-07,0.0,0.0,0.0,1.21846967915e-07,1.96133,0.8237586,13.36646395,9e-08,0.0,0.0,0.0,9e-08,0.0,0.0,0.0,9e-08
1536692245580112440,2778,1536692245579835832,base_link,-0.335223776392,0.216854795679,0.452469526969,-0.797414788236,1.0,0.0,0.0,0.0,1.0,0.0,0.0,0.0,1.0,0.0177273675799,-0.380178898573,-0.25227701664,1.21846967915e-07,0.0,0.0,0.0,1.21846967915e-07,0.0,0.0,0.0,1.21846967915e-07,1.83384355,1.26505785,14.09215605,9e-08,0.0,0.0,0.0,9e-08,0.0,0.0,0.0,9e-08
1536692246024012440,2779,1536692246023611320,base_link,-0.303345971839,0.259482059803,0.533927040693,-0.745367155988,1.0,0.0,0.0,0.0,1.0,0.0,0.0,0.0,1.0,-0.0137043297291,-0.374528199434,-0.276995569468,1.21846967915e-07,0.0,0.0,0.0,1.21846967915e-07,0.0,0.0,0.0,1.21846967915e-07,1.6475172,0.97085835,15.46508705,9e-08,0.0,0.0,0.0,9e-08,0.0,0.0,0.0,9e-08
1536692246346102744,2780,1536692246345869496,base_link,-0.275218245045,0.285040790443,0.583820544814,-0.708632652953,1.0,0.0,0.0,0.0,1.0,0.0,0.0,0.0,1.0,-0.210023313761,-0.348874211311,-0.261820614338,1.21846967915e-07,0.0,0.0,0.0,1.21846967915e-07,0.0,0.0,0.0,1.21846967915e-07,1.6082906,1.2748645,14.48442205,9e-08,0.0,0.0,0.0,9e-08,0.0,0.0,0.0,9e-08
1536692246739822744,2781,1536692246739294456,base_link,0.210108156143,-0.278709381461,-0.658517684605,0.666730907091,1.0,0.0,0.0,0.0,1.0,0.0,0.0,0.0,1.0,-0.340183019638,-0.26026314497,-0.29789480567,1.21846967915e-07,0.0,0.0,0.0,1.21846967915e-07,0.0,0.0,0.0,1.21846967915e-07,0.8237586,1.0983448,12.9643913,9e-08,0.0,0.0,0.0,9e-08,0.0,0.0,0.0,9e-08
1536692246977220568,2782,1536692246976983928,base_link,0.165978564935,-0.2587206948,-0.699698924158,0.644931107636,1.0,0.0,0.0,0.0,1.0,0.0,0.0,0.0,1.0,-0.470522403717,-0.21918207407,-0.247052609921,1.21846967915e-07,0.0,0.0,0.0,1.21846967915e-07,0.0,0.0,0.0,1.21846967915e-07,0.50013915,0.8041453,12.48386545,9e-08,0.0,0.0,0.0,9e-08,0.0,0.0,0.0,9e-08
1536692247383209432,2783,1536692247382731096,base_link,0.0905448125389,-0.198711568313,-0.758890661227,0.613514721782,1.0,0.0,0.0,0.0,1.0,0.0,0.0,0.0,1.0,-0.674494802952,-0.0823998525739,-0.216763138771,1.21846967915e-07,0.0,0.0,0.0,1.21846967915e-07,0.0,0.0,0.0,1.21846967915e-07,-0.00980665,0.67665885,11.3364874,9e-08,0.0,0.0,0.0,9e-08,0.0,0.0,0.0,9e-08
1536692247900710840,2784,1536692247897261368,base_link,0.000634618660766,-0.0866717962728,-0.804198220226,0.58800749959,1.0,0.0,0.0,0.0,1.0,0.0,0.0,0.0,1.0,-0.491755604744,0.0139298262075,-0.103480428457,1.21846967915e-07,0.0,0.0,0.0,1.21846967915e-07,0.0,0.0,0.0,1.21846967915e-07,-0.26477955,0.3726527,8.825985,9e-08,0.0,0.0,0.0,9e-08,0.0,0.0,0.0,9e-08
1536692248285030840,2785,1536692248284616152,base_link,-0.0426761350156,-0.0157846403922,-0.81499572786,0.577677726935,1.0,0.0,0.0,0.0,1.0,0.0,0.0,0.0,1.0,-0.258016943932,0.0490597561002,0.0150535190478,1.21846967915e-07,0.0,0.0,0.0,1.21846967915e-07,0.0,0.0,0.0,1.21846967915e-07,-0.44129925,1.07366561844e-15,8.7671451,9e-08,0.0,0.0,0.0,9e-08,0.0,0.0,0.0,9e-08
1536692248722597560,2786,1536692248721863704,base_link,-0.0622026193993,0.0394629974085,-0.807409415163,0.585374702461,1.0,0.0,0.0,0.0,1.0,0.0,0.0,0.0,1.0,-0.200234726071,0.0989854112267,0.0755870491266,1.21846967915e-07,0.0,0.0,0.0,1.21846967915e-07,0.0,0.0,0.0,1.21846967915e-07,-0.36284605,0.1765197,8.7279185,9e-08,0.0,0.0,0.0,9e-08,0.0,0.0,0.0,9e-08
1536692249100033688,2787,1536692249099339672,base_link,-0.0573183922214,0.0688430909673,-0.795282119541,0.599584507036,1.0,0.0,0.0,0.0,1.0,0.0,0.0,0.0,1.0,0.0177050493658,0.112153999507,0.127310022712,1.21846967915e-07,0.0,0.0,0.0,1.21846967915e-07,0.0,0.0,0.0,1.21846967915e-07,-0.6668522,0.196133,8.3552658,9e-08,0.0,0.0,0.0,9e-08,0.0,0.0,0.0,9e-08
1536692249500460312,2788,1536692249500162200,base_link,-0.0428488524531,0.0923692287626,-0.777855463102,0.62013932301,1.0,0.0,0.0,0.0,1.0,0.0,0.0,0.0,1.0,-0.0872614234686,0.123854398727,0.136630520225,1.21846967915e-07,0.0,0.0,0.0,1.21846967915e-07,0.0,0.0,0.0,1.21846967915e-07,-0.71588545,0.5099458,8.3160392,9e-08,0.0,0.0,0.0,9e-08,0.0,0.0,0.0,9e-08
1536692249822742072,2789,1536692249822508984,base_link,-0.0280719360347,0.106388301746,-0.768038171673,0.630881020884,1.0,0.0,0.0,0.0,1.0,0.0,0.0,0.0,1.0,0.0495136417449,0.116147883236,0.0696224272251,1.21846967915e-07,0.0,0.0,0.0,1.21846967915e-07,0.0,0.0,0.0,1.21846967915e-07,-0.4903325,0.1372931,6.56064885,9e-08,0.0,0.0,0.0,9e-08,0.0,0.0,0.0,9e-08
1536692250287151352,2790,1536692250286811608,base_link,-0.011852913076,0.112962662689,-0.753499945621,0.64756218021,1.0,0.0,0.0,0.0,1.0,0.0,0.0,0.0,1.0,0.107924699783,0.0458100512624,0.121410362422,1.21846967915e-07,0.0,0.0,0.0,1.21846967915e-07,0.0,0.0,0.0,1.21846967915e-07,-0.34323275,0.08825985,9.1790244,9e-08,0.0,0.0,0.0,9e-08,0.0,0.0,0.0,9e-08
1536692250616586680,2791,1536692250616254328,base_link,0.0072674218647,0.101655171157,-0.740815914052,0.663931617144,1.0,0.0,0.0,0.0,1.0,0.0,0.0,0.0,1.0,0.142361283302,0.0215495787561,0.140141665936,1.21846967915e-07,0.0,0.0,0.0,1.21846967915e-07,0.0,0.0,0.0,1.21846967915e-07,-0.36284605,0.06864655,9.1397978,9e-08,0.0,0.0,0.0,9e-08,0.0,0.0,0.0,9e-08
1536692251095390776,2792,1536692251091710552,base_link,0.026727094231,0.0792620439774,-0.71815192587,0.690840793662,1.0,0.0,0.0,0.0,1.0,0.0,0.0,0.0,1.0,0.0783394351602,-0.0320294834673,0.116922721267,1.21846967915e-07,0.0,0.0,0.0,1.21846967915e-07,0.0,0.0,0.0,1.21846967915e-07,-0.36284605,0.50013915,9.7085835,9e-08,0.0,0.0,0.0,9e-08,0.0,0.0,0.0,9e-08
1536692251591293016,2793,1536692251590999128,base_link,0.0344767872648,0.0495524748,-0.710394547227,0.701210018933,1.0,0.0,0.0,0.0,1.0,0.0,0.0,0.0,1.0,0.129035189748,-0.0767266526818,0.0329187214375,1.21846967915e-07,0.0,0.0,0.0,1.21846967915e-07,0.0,0.0,0.0,1.21846967915e-07,-0.00980665,0.38245935,11.52281375,9e-08,0.0,0.0,0.0,9e-08,0.0,0.0,0.0,9e-08
1536692252003978168,2794,1536692252003736952,base_link,-0.0384527928885,-0.0188681818261,0.704640378681,-0.708270648245,1.0,0.0,0.0,0.0,1.0,0.0,0.0,0.0,1.0,0.111646257341,-0.0893763899803,0.0615010112524,1.21846967915e-07,0.0,0.0,0.0,1.21846967915e-07,0.0,0.0,0.0,1.21846967915e-07,-0.00980665,0.392266,11.77778665,9e-08,0.0,0.0,0.0,9e-08,0.0,0.0,0.0,9e-08
1536692252378547032,2795,1536692252378299544,base_link,-0.0348761300112,0.00582705278244,0.697933385852,-0.715289235152,1.0,0.0,0.0,0.0,1.0,0.0,0.0,0.0,1.0,0.0775648131967,-0.0990253090858,0.0347092114389,1.21846967915e-07,0.0,0.0,0.0,1.21846967915e-07,0.0,0.0,0.0,1.21846967915e-07,0.10787315,0.2941995,12.26811915,9e-08,0.0,0.0,0.0,9e-08,0.0,0.0,0.0,9e-08
1536692252723371896,2796,1536692252723152760,base_link,-0.0365991139211,0.0310745425059,0.694770613609,-0.717627112179,1.0,0.0,0.0,0.0,1.0,0.0,0.0,0.0,1.0,0.0469100996852,-0.0650589540601,0.0212767552584,1.21846967915e-07,0.0,0.0,0.0,1.21846967915e-07,0.0,0.0,0.0,1.21846967915e-07,0.1765197,0.6080123,11.44436055,9e-08,0.0,0.0,0.0,9e-08,0.0,0.0,0.0,9e-08
1536692253356075288,2797,1536692253355760472,base_link,-0.0473789096572,0.064735256423,0.694286130184,-0.715214202131,1.0,0.0,0.0,0.0,1.0,0.0,0.0,0.0,1.0,0.15112324059,-0.0312114730477,-0.00604285812005,1.21846967915e-07,0.0,0.0,0.0,1.21846967915e-07,0.0,0.0,0.0,1.21846967915e-07,0.0980665,0.5687857,11.1991943,9e-08,0.0,0.0,0.0,9e-08,0.0,0.0,0.0,9e-08
1536692253653708664,2798,1536692253653254552,base_link,-0.0517877480545,0.0757694432742,0.695386673066,-0.712751285891,1.0,0.0,0.0,0.0,1.0,0.0,0.0,0.0,1.0,0.0124602243304,-0.013594808057,-0.00759604480118,1.21846967915e-07,0.0,0.0,0.0,1.21846967915e-07,0.0,0.0,0.0,1.21846967915e-07,0.1569064,0.61781895,9.97336305,9e-08,0.0,0.0,0.0,9e-08,0.0,0.0,0.0,9e-08
1536692253976313624,2799,1536692253973953272,base_link,-0.0541945290531,0.0811683088444,0.697176694262,-0.710224834569,1.0,0.0,0.0,0.0,1.0,0.0,0.0,0.0,1.0,0.0759663134813,-0.0125996917486,-0.0355495475233,1.21846967915e-07,0.0,0.0,0.0,1.21846967915e-07,0.0,0.0,0.0,1.21846967915e-07,0.2353596,0.7060788,9.75761675,9e-08,0.0,0.0,0.0,9e-08,0.0,0.0,0.0,9e-08
1536692254376921528,2800,1536692254376564184,base_link,0.0613258695769,-0.0860995912989,-0.705855028745,0.700424640125,1.0,0.0,0.0,0.0,1.0,0.0,0.0,0.0,1.0,0.0387051254511,0.0298747178167,-0.0818125754595,1.21846967915e-07,0.0,0.0,0.0,1.21846967915e-07,0.0,0.0,0.0,1.21846967915e-07,0.12748645,0.46091255,10.05181625,9e-08,0.0,0.0,0.0,9e-08,0.0,0.0,0.0,9e-08
1536692254678391128,2801,1536692254678091224,base_link,0.074235623991,-0.0911814359818,-0.715220864447,0.688936958598,1.0,0.0,0.0,0.0,1.0,0.0,0.0,0.0,1.0,0.144942581654,0.031285379082,-0.100548923016,1.21846967915e-07,0.0,0.0,0.0,1.21846967915e-07,0.0,0.0,0.0,1.21846967915e-07,0.08825985,0.51975245,9.03192465,9e-08,0.0,0.0,0.0,9e-08,0.0,0.0,0.0,9e-08
1536692255108235960,2802,1536692255107795576,base_link,0.104868590528,-0.12030981819,-0.7271337186,0.667686065185,1.0,0.0,0.0,0.0,1.0,0.0,0.0,0.0,1.0,0.249566301703,-0.0152257159352,-0.107719749212,1.21846967915e-07,0.0,0.0,0.0,1.21846967915e-07,0.0,0.0,0.0,1.21846967915e-07,0.34323275,0.36284605,10.20872265,9e-08,0.0,0.0,0.0,9e-08,0.0,0.0,0.0,9e-08
1536692255540733688,2803,1536692255540364600,base_link,0.134588125369,-0.154946812346,-0.736529124005,0.644517161405,1.0,0.0,0.0,0.0,1.0,0.0,0.0,0.0,1.0,0.190037280321,-0.024571750313,-0.130224317312,1.21846967915e-07,0.0,0.0,0.0,1.21846967915e-07,0.0,0.0,0.0,1.21846967915e-07,0.2353596,0.63743225,9.65955025,9e-08,0.0,0.0,0.0,9e-08,0.0,0.0,0.0,9e-08
1536692255858621560,2804,1536692255858357944,base_link,0.155372160887,-0.180277708302,-0.750394970426,0.6166577883,1.0,0.0,0.0,0.0,1.0,0.0,0.0,0.0,1.0,0.209596022964,-0.0511810854077,-0.210716664791,1.21846967915e-07,0.0,0.0,0.0,1.21846967915e-07,0.0,0.0,0.0,1.21846967915e-07,0.46091255,0.5491724,9.8458766,9e-08,0.0,0.0,0.0,9e-08,0.0,0.0,0.0,9e-08
1536692256326381816,2805,1536692256325609912,base_link,0.174660202915,-0.220721261885,-0.775700684974,0.564857845303,1.0,0.0,0.0,0.0,1.0,0.0,0.0,0.0,1.0,0.193792536855,-0.137825369835,-0.227278918028,1.21846967915e-07,0.0,0.0,0.0,1.21846967915e-07,0.0,0.0,0.0,1.21846967915e-07,0.71588545,0.89240515,10.75789505,9e-08,0.0,0.0,0.0,9e-08,0.0,0.0,0.0,9e-08
1536692256674503832,2806,1536692256673822136,base_link,0.177177435694,-0.253863267017,-0.79802834686,0.517022587077,1.0,0.0,0.0,0.0,1.0,0.0,0.0,0.0,1.0,0.146445125341,-0.196341365576,-0.25414866209,1.21846967915e-07,0.0,0.0,0.0,1.21846967915e-07,0.0,0.0,0.0,1.21846967915e-07,0.7453054,0.71588545,10.983448,9e-08,0.0,0.0,0.0,9e-08,0.0,0.0,0.0,9e-08
1536692257078846808,2807,1536692257078512760,base_link,0.168816880882,-0.290984011899,-0.825268821889,0.453608352179,1.0,0.0,0.0,0.0,1.0,0.0,0.0,0.0,1.0,0.121701583266,-0.233928069472,-0.287846773863,1.21846967915e-07,0.0,0.0,0.0,1.21846967915e-07,0.0,0.0,0.0,1.21846967915e-07,1.30428445,0.8237586,12.0621795,9e-08,0.0,0.0,0.0,9e-08,0.0,0.0,0.0,9e-08
1536692257541690552,2808,1536692257541307064,base_link,0.146303980718,-0.322607600471,-0.858555412547,0.370677872189,1.0,0.0,0.0,0.0,1.0,0.0,0.0,0.0,1.0,0.0768807083368,-0.296598792076,-0.312180578709,1.21846967915e-07,0.0,0.0,0.0,1.21846967915e-07,0.0,0.0,0.0,1.21846967915e-07,1.7259704,0.85317855,13.2782041,9e-08,0.0,0.0,0.0,9e-08,0.0,0.0,0.0,9e-08
1536692257880304568,2809,1536692257880032696,base_link,0.121200395705,-0.349745691975,-0.87708284937,0.306127572046,1.0,0.0,0.0,0.0,1.0,0.0,0.0,0.0,1.0,0.0830114632845,-0.34270632267,-0.294970393181,1.21846967915e-07,0.0,0.0,0.0,1.21846967915e-07,0.0,0.0,0.0,1.21846967915e-07,1.7848103,0.91201845,13.75872995,9e-08,0.0,0.0,0.0,9e-08,0.0,0.0,0.0,9e-08
1536692258278458680,2810,1536692258278213816,base_link,0.0814539790833,-0.372069708324,-0.894624285755,0.233616713394,1.0,0.0,0.0,0.0,1.0,0.0,0.0,0.0,1.0,0.0253360681236,-0.349243879318,-0.275722056627,1.21846967915e-07,0.0,0.0,0.0,1.21846967915e-07,0.0,0.0,0.0,1.21846967915e-07,1.79461695,1.176798,14.2392558,9e-08,0.0,0.0,0.0,9e-08,0.0,0.0,0.0,9e-08
1536692258588889496,2811,1536692258588202232,base_link,0.0451652086039,-0.382359952256,-0.907362883408,0.168681856333,1.0,0.0,0.0,0.0,1.0,0.0,0.0,0.0,1.0,-0.10959379375,-0.375150829554,-0.286780178547,1.21846967915e-07,0.0,0.0,0.0,1.21846967915e-07,0.0,0.0,0.0,1.21846967915e-07,2.01036325,0.9610517,14.83746145,9e-08,0.0,0.0,0.0,9e-08,0.0,0.0,0.0,9e-08
1536692258941279352,2812,1536692258940858072,base_link,0.00246615167035,-0.378647617967,-0.920545992033,0.0959946668056,1.0,0.0,0.0,0.0,1.0,0.0,0.0,0.0,1.0,-0.107166811824,-0.328909873962,-0.308150410652,1.21846967915e-07,0.0,0.0,0.0,1.21846967915e-07,0.0,0.0,0.0,1.21846967915e-07,1.9024901,1.18660465,13.85679645,9e-08,0.0,0.0,0.0,9e-08,0.0,0.0,0.0,9e-08
1536692259328863864,2813,1536692259328622936,base_link,-0.0340232203887,-0.370664665836,-0.92791593904,0.0205459497524,1.0,0.0,0.0,0.0,1.0,0.0,0.0,0.0,1.0,-0.132770135999,-0.308525025845,-0.296741455793,1.21846967915e-07,0.0,0.0,0.0,1.21846967915e-07,0.0,0.0,0.0,1.21846967915e-07,1.765197,0.93163175,14.3569356,9e-08,0.0,0.0,0.0,9e-08,0.0,0.0,0.0,9e-08
1536692259706388440,2814,1536692259706041464,base_link,-0.0735678839735,-0.331235418862,-0.939666497716,-0.0435630211236,1.0,0.0,0.0,0.0,1.0,0.0,0.0,0.0,1.0,-0.370535641909,-0.2586556077,-0.194012492895,1.21846967915e-07,0.0,0.0,0.0,1.21846967915e-07,0.0,0.0,0.0,1.21846967915e-07,1.2356379,1.18660465,13.8862164,9e-08,0.0,0.0,0.0,9e-08,0.0,0.0,0.0,9e-08
1536692260132041048,2815,1536692260131764888,base_link,-0.0902408016376,-0.247732392928,-0.958931490763,-0.104573683291,1.0,0.0,0.0,0.0,1.0,0.0,0.0,0.0,1.0,-0.464689791203,-0.0772106274962,-0.198874786496,1.21846967915e-07,0.0,0.0,0.0,1.21846967915e-07,0.0,0.0,0.0,1.21846967915e-07,0.51975245,0.9610517,11.5914603,9e-08,0.0,0.0,0.0,9e-08,0.0,0.0,0.0,9e-08
1536692260553719224,2816,1536692260553307224,base_link,-0.0720909578258,-0.142780180856,-0.974677669935,-0.156269489936,1.0,0.0,0.0,0.0,1.0,0.0,0.0,0.0,1.0,-0.529499471188,0.0368078052998,-0.191984131932,1.21846967915e-07,0.0,0.0,0.0,1.21846967915e-07,0.0,0.0,0.0,1.21846967915e-07,0.0,1.22583125,9.3163175,9e-08,0.0,0.0,0.0,9e-08,0.0,0.0,0.0,9e-08
1536692260943124216,2817,1536692260941970712,base_link,-0.0447914712039,-0.0356099342084,-0.979224870973,-0.194536137417,1.0,0.0,0.0,0.0,1.0,0.0,0.0,0.0,1.0,-0.51053917408,0.0501723997295,-0.123261600733,1.21846967915e-07,0.0,0.0,0.0,1.21846967915e-07,0.0,0.0,0.0,1.21846967915e-07,-0.06864655,0.980665,9.6889702,9e-08,0.0,0.0,0.0,9e-08,0.0,0.0,0.0,9e-08
1536692261385758232,2818,1536692261385087320,base_link,-0.0216139429682,0.0333778815364,-0.97756203677,-0.206860384704,1.0,0.0,0.0,0.0,1.0,0.0,0.0,0.0,1.0,-0.329333633184,0.0222153309733,0.0484057888389,1.21846967915e-07,0.0,0.0,0.0,1.21846967915e-07,0.0,0.0,0.0,1.21846967915e-07,-0.1569064,0.32361945,8.3944924,9e-08,0.0,0.0,0.0,9e-08,0.0,0.0,0.0,9e-08
1536692261840782296,2819,1536692261840567192,base_link,0.00282665930757,0.107462702726,-0.975740621445,-0.190719734645,1.0,0.0,0.0,0.0,1.0,0.0,0.0,0.0,1.0,-0.28646889329,0.0422723628581,0.0903072282672,1.21846967915e-07,0.0,0.0,0.0,1.21846967915e-07,0.0,0.0,0.0,1.21846967915e-07,-0.14709975,0.38245935,9.87529655,9e-08,0.0,0.0,0.0,9e-08,0.0,0.0,0.0,9e-08
1536692262284938392,2820,1536692262284547032,base_link,0.0208495209622,0.137747652224,-0.976558840688,-0.164084467445,1.0,0.0,0.0,0.0,1.0,0.0,0.0,0.0,1.0,-0.0510262325406,0.0374968983233,0.15288606286,1.21846967915e-07,0.0,0.0,0.0,1.21846967915e-07,0.0,0.0,0.0,1.21846967915e-07,-0.3138128,0.1569064,9.218251,9e-08,0.0,0.0,0.0,9e-08,0.0,0.0,0.0,9e-08
1536692262601141400,2821,1536692262600450648,base_link,0.0282495189585,0.135151628695,-0.980961867346,-0.136564331919,1.0,0.0,0.0,0.0,1.0,0.0,0.0,0.0,1.0,-0.0322694890201,0.0353008024395,0.197672188282,1.21846967915e-07,0.0,0.0,0.0,1.21846967915e-07,0.0,0.0,0.0,1.21846967915e-07,-0.20593965,0.1372931,8.65927195,9e-08,0.0,0.0,0.0,9e-08,0.0,0.0,0.0,9e-08
1536692263000999096,2822,1536692263000421560,base_link,0.0442695911725,0.138226944159,-0.984438522675,-0.0990672008271,1.0,0.0,0.0,0.0,1.0,0.0,0.0,0.0,1.0,-0.0486030951142,0.0559437051415,0.189129129052,1.21846967915e-07,0.0,0.0,0.0,1.21846967915e-07,0.0,0.0,0.0,1.21846967915e-07,-0.38245935,0.3530394,9.3751574,9e-08,0.0,0.0,0.0,9e-08,0.0,0.0,0.0,9e-08
1536692263432648600,2823,1536692263432224760,base_link,0.0541516042876,0.123124950011,-0.988684833171,-0.0664089684845,1.0,0.0,0.0,0.0,1.0,0.0,0.0,0.0,1.0,0.157366037369,0.0312838330865,0.15864802897,1.21846967915e-07,0.0,0.0,0.0,1.21846967915e-07,0.0,0.0,0.0,1.21846967915e-07,-0.16671305,0.0588399,8.8063717,9e-08,0.0,0.0,0.0,9e-08,0.0,0.0,0.0,9e-08
1536692263842369336,2824,1536692263841648760,base_link,0.0583114740194,0.099070319027,-0.992992802584,-0.0273886454959,1.0,0.0,0.0,0.0,1.0,0.0,0.0,0.0,1.0,0.130119696259,-0.00128858117387,0.20531386137,1.21846967915e-07,0.0,0.0,0.0,1.21846967915e-07,0.0,0.0,0.0,1.21846967915e-07,-0.4118793,0.1765197,9.3751574,9e-08,0.0,0.0,0.0,9e-08,0.0,0.0,0.0,9e-08
1536692264300711832,2825,1536692264300441368,base_link,0.0560582978756,0.0914436996136,-0.994214795693,0.00569711020489,1.0,0.0,0.0,0.0,1.0,0.0,0.0,0.0,1.0,0.0306142251939,-0.0559502765536,0.0230450071394,1.21846967915e-07,0.0,0.0,0.0,1.21846967915e-07,0.0,0.0,0.0,1.21846967915e-07,-0.4118793,0.71588545,10.2185293,9e-08,0.0,0.0,0.0,9e-08,0.0,0.0,0.0,9e-08
1536692264756244504,2826,1536692264755948952,base_link,0.0414590358317,0.0395255666794,-0.998311965957,0.00959669489367,1.0,0.0,0.0,0.0,1.0,0.0,0.0,0.0,1.0,0.260231882334,-0.0658627673984,0.0895652845502,1.21846967915e-07,0.0,0.0,0.0,1.21846967915e-07,0.0,0.0,0.0,1.21846967915e-07,-0.08825985,0.02941995,11.4149406,9e-08,0.0,0.0,0.0,9e-08,0.0,0.0,0.0,9e-08
1536692265240544696,2827,1536692265240117112,base_link,0.024505138724,-0.0270918756326,-0.998804345775,0.0324870329649,1.0,0.0,0.0,0.0,1.0,0.0,0.0,0.0,1.0,0.243094354868,-0.0645951628685,0.104508653283,1.21846967915e-07,0.0,0.0,0.0,1.21846967915e-07,0.0,0.0,0.0,1.21846967915e-07,0.16671305,0.196133,12.05237285,9e-08,0.0,0.0,0.0,9e-08,0.0,0.0,0.0,9e-08
1536692265491427288,2828,1536692265489328344,base_link,0.0158795789902,-0.0473063680965,-0.997909467044,0.0410687483785,1.0,0.0,0.0,0.0,1.0,0.0,0.0,0.0,1.0,0.0292223468423,-0.0586592108011,0.0132734552026,1.21846967915e-07,0.0,0.0,0.0,1.21846967915e-07,0.0,0.0,0.0,1.21846967915e-07,0.16671305,0.784532,11.6306869,9e-08,0.0,0.0,0.0,9e-08,0.0,0.0,0.0,9e-08
1536692265952651800,2829,1536692265952293336,base_link,0.0100721295352,-0.0792196516223,-0.996390075929,0.0288030483525,1.0,0.0,0.0,0.0,1.0,0.0,0.0,0.0,1.0,0.23128028214,-0.0189793482423,-0.0824940279126,1.21846967915e-07,0.0,0.0,0.0,1.21846967915e-07,0.0,0.0,0.0,1.21846967915e-07,0.0588399,0.42168595,10.28717585,9e-08,0.0,0.0,0.0,9e-08,0.0,0.0,0.0,9e-08
1536692266243870392,2830,1536692266243350392,base_link,0.00858483566148,-0.110399323409,-0.993607045946,0.0219847272975,1.0,0.0,0.0,0.0,1.0,0.0,0.0,0.0,1.0,0.184962585568,-0.0163088776171,-0.0076418989338,1.21846967915e-07,0.0,0.0,0.0,1.21846967915e-07,0.0,0.0,0.0,1.21846967915e-07,0.06864655,0.36284605,10.46369555,9e-08,0.0,0.0,0.0,9e-08,0.0,0.0,0.0,9e-08
1536692266666755992,2831,1536692266666049656,base_link,0.00536804236331,-0.117134445975,-0.992966446844,0.0163811211155,1.0,0.0,0.0,0.0,1.0,0.0,0.0,0.0,1.0,0.00247448123991,-0.00164996669628,-0.081601858139,1.21846967915e-07,0.0,0.0,0.0,1.21846967915e-07,0.0,0.0,0.0,1.21846967915e-07,0.1176798,0.67665885,10.34601575,9e-08,0.0,0.0,0.0,9e-08,0.0,0.0,0.0,9e-08
1536692267073711576,2832,1536692267072960504,base_link,0.00825241257726,-0.122827169476,-0.992367814922,-0.00717663102605,1.0,0.0,0.0,0.0,1.0,0.0,0.0,0.0,1.0,0.106933414936,0.0178249999881,-0.133068680763,1.21846967915e-07,0.0,0.0,0.0,1.21846967915e-07,0.0,0.0,0.0,1.21846967915e-07,-0.0196133,0.42168595,9.32612415,9e-08,0.0,0.0,0.0,9e-08,0.0,0.0,0.0,9e-08
1536692267498816152,2833,1536692267498454168,base_link,0.00879151515331,-0.130716222741,-0.991025022628,-0.0265590455137,1.0,0.0,0.0,0.0,1.0,0.0,0.0,0.0,1.0,0.0283040329814,-0.0171602200717,-0.054986666888,1.21846967915e-07,0.0,0.0,0.0,1.21846967915e-07,0.0,0.0,0.0,1.21846967915e-07,-0.10787315,0.28439285,9.2770909,9e-08,0.0,0.0,0.0,9e-08,0.0,0.0,0.0,9e-08
1536692267987103448,2834,1536692267986727928,base_link,0.00860675294046,-0.123158010371,-0.991826795361,-0.0322123623575,1.0,0.0,0.0,0.0,1.0,0.0,0.0,0.0,1.0,0.009880438447,0.011778101325,-0.0278932545334,1.21846967915e-07,0.0,0.0,0.0,1.21846967915e-07,0.0,0.0,0.0,1.21846967915e-07,-0.0196133,0.4903325,9.4928372,9e-08,0.0,0.0,0.0,9e-08,0.0,0.0,0.0,9e-08
1536692268235689464,2835,1536692268235298136,base_link,0.00954589246011,-0.112983310323,-0.992884661878,-0.0363826295638,1.0,0.0,0.0,0.0,1.0,0.0,0.0,0.0,1.0,-0.1589422822,0.013315920718,-0.0537835843861,1.21846967915e-07,0.0,0.0,0.0,1.21846967915e-07,0.0,0.0,0.0,1.21846967915e-07,0.16671305,0.59820565,9.8262633,9e-08,0.0,0.0,0.0,9e-08,0.0,0.0,0.0,9e-08
1536692268709671000,2836,1536692268708372728,base_link,0.0136400831552,-0.0816192010023,-0.995121966366,-0.0537077854293,1.0,0.0,0.0,0.0,1.0,0.0,0.0,0.0,1.0,-0.0732655972242,0.00895604956895,-0.0830207467079,1.21846967915e-07,0.0,0.0,0.0,1.21846967915e-07,0.0,0.0,0.0,1.21846967915e-07,0.1176798,0.53936575,9.91452315,9e-08,0.0,0.0,0.0,9e-08,0.0,0.0,0.0,9e-08
1536692269086538232,2837,1536692269086210712,base_link,0.01131566418,-0.0617901049951,-0.996124629675,-0.0615602211136,1.0,0.0,0.0,0.0,1.0,0.0,0.0,0.0,1.0,-0.0820353254676,-0.0416292510927,0.00529451062903,1.21846967915e-07,0.0,0.0,0.0,1.21846967915e-07,0.0,0.0,0.0,1.21846967915e-07,0.38245935,0.32361945,10.8853815,9e-08,0.0,0.0,0.0,9e-08,0.0,0.0,0.0,9e-08
1536692269415432408,2838,1536692269415038104,base_link,0.00555772190388,-0.0510893067178,-0.996869698469,-0.0600816006772,1.0,0.0,0.0,0.0,1.0,0.0,0.0,0.0,1.0,0.00938626285642,-0.0344468951225,0.00483849551529,1.21846967915e-07,0.0,0.0,0.0,1.21846967915e-07,0.0,0.0,0.0,1.21846967915e-07,0.28439285,0.34323275,11.1991943,9e-08,0.0,0.0,0.0,9e-08,0.0,0.0,0.0,9e-08
1536692269863992376,2839,1536692269862932280,base_link,-0.00206635851323,-0.0286157901185,-0.998156556061,-0.0534822990471,1.0,0.0,0.0,0.0,1.0,0.0,0.0,0.0,1.0,-0.232809871435,-0.032478954643,0.0121028898284,1.21846967915e-07,0.0,0.0,0.0,1.21846967915e-07,0.0,0.0,0.0,1.21846967915e-07,0.392266,0.71588545,9.6497436,9e-08,0.0,0.0,0.0,9e-08,0.0,0.0,0.0,9e-08
1536692270312691544,2840,1536692270312378008,base_link,-0.00910972133604,0.00736829956538,-0.998597128177,-0.0516381325669,1.0,0.0,0.0,0.0,1.0,0.0,0.0,0.0,1.0,-0.122988000512,-0.0512471832335,0.0514050163329,1.21846967915e-07,0.0,0.0,0.0,1.21846967915e-07,0.0,0.0,0.0,1.21846967915e-07,0.42168595,0.4314926,10.64021525,9e-08,0.0,0.0,0.0,9e-08,0.0,0.0,0.0,9e-08
1536692270684658456,2841,1536692270684127928,base_link,-0.0167783747473,0.0215570686422,-0.998841606646,-0.0396134291056,1.0,0.0,0.0,0.0,1.0,0.0,0.0,0.0,1.0,0.0449422821403,-0.011896087788,0.0580959133804,1.21846967915e-07,0.0,0.0,0.0,1.21846967915e-07,0.0,0.0,0.0,1.21846967915e-07,0.44129925,0.2353596,11.32668075,9e-08,0.0,0.0,0.0,9e-08,0.0,0.0,0.0,9e-08
1536692271111046904,2842,1536692271109015896,base_link,-0.0203063517957,0.00239177289779,-0.999421750652,-0.0271679190172,1.0,0.0,0.0,0.0,1.0,0.0,0.0,0.0,1.0,0.0370625481009,-0.00629757717252,0.0716311559081,1.21846967915e-07,0.0,0.0,0.0,1.21846967915e-07,0.0,0.0,0.0,1.21846967915e-07,0.392266,0.26477955,10.64021525,9e-08,0.0,0.0,0.0,9e-08,0.0,0.0,0.0,9e-08
1536692271539195576,2843,1536692271538780792,base_link,-0.0168881376023,0.00283639059524,-0.999698023607,-0.0176240543725,1.0,0.0,0.0,0.0,1.0,0.0,0.0,0.0,1.0,-0.022110234946,0.0311889182776,0.00437027867883,1.21846967915e-07,0.0,0.0,0.0,1.21846967915e-07,0.0,0.0,0.0,1.21846967915e-07,0.22555295,0.4511059,9.20844435,9e-08,0.0,0.0,0.0,9e-08,0.0,0.0,0.0,9e-08
1536692272015505816,2844,1536692272015270872,base_link,-0.00981531369347,-0.0185489161524,-0.999737567108,-0.00918663373106,1.0,0.0,0.0,0.0,1.0,0.0,0.0,0.0,1.0,0.145898208022,0.0462854728103,0.0205707196146,1.21846967915e-07,0.0,0.0,0.0,1.21846967915e-07,0.0,0.0,0.0,1.21846967915e-07,-0.10787315,0.69627215,9.22805765,9e-08,0.0,0.0,0.0,9e-08,0.0,0.0,0.0,9e-08
1536692272309867000,2845,1536692272309578776,base_link,0.00380000783495,-0.0366332183618,-0.999087126124,-0.0216444373233,1.0,0.0,0.0,0.0,1.0,0.0,0.0,0.0,1.0,0.0667242109776,0.0746861919761,-0.129038631916,1.21846967915e-07,0.0,0.0,0.0,1.21846967915e-07,0.0,0.0,0.0,1.21846967915e-07,-0.1372931,0.28439285,6.0016698,9e-08,0.0,0.0,0.0,9e-08,0.0,0.0,0.0,9e-08
1536692272678536728,2846,1536692272678306232,base_link,0.0035472740605,-0.0362447390872,-0.999011982112,-0.0254714611452,1.0,0.0,0.0,0.0,1.0,0.0,0.0,0.0,1.0,0.10662534833,0.0237283203751,0.129096090794,1.21846967915e-07,0.0,0.0,0.0,1.21846967915e-07,0.0,0.0,0.0,1.21846967915e-07,0.0392266,1.370304777e-15,11.18938765,9e-08,0.0,0.0,0.0,9e-08,0.0,0.0,0.0,9e-08
1536692273132858232,2847,1536692273132614488,base_link,0.0104141018864,-0.0448245767091,-0.998913903698,-0.0073018355825,1.0,0.0,0.0,0.0,1.0,0.0,0.0,0.0,1.0,-0.0797186568379,0.0241765752435,0.00317997764796,1.21846967915e-07,0.0,0.0,0.0,1.21846967915e-07,0.0,0.0,0.0,1.21846967915e-07,-0.0980665,0.42168595,8.97308475,9e-08,0.0,0.0,0.0,9e-08,0.0,0.0,0.0,9e-08
1536692273538088344,2848,1536692273537739448,base_link,0.0122449397147,-0.0235769889308,-0.99960012577,-0.0096837804921,1.0,0.0,0.0,0.0,1.0,0.0,0.0,0.0,1.0,-0.289321213961,0.00590227730572,0.0113818077371,1.21846967915e-07,0.0,0.0,0.0,1.21846967915e-07,0.0,0.0,0.0,1.21846967915e-07,0.1569064,0.28439285,11.2972608,9e-08,0.0,0.0,0.0,9e-08,0.0,0.0,0.0,9e-08
1536692273974901560,2849,1536692273973993368,base_link,0.0142089506541,-0.0363929736629,-0.999212722754,-0.00689868658936,1.0,0.0,0.0,0.0,1.0,0.0,0.0,0.0,1.0,-0.120532803237,0.0228454060853,-0.0325903892517,1.21846967915e-07,0.0,0.0,0.0,1.21846967915e-07,0.0,0.0,0.0,1.21846967915e-07,0.2157463,0.7453054,9.5124505,9e-08,0.0,0.0,0.0,9e-08,0.0,0.0,0.0,9e-08
1536692274292235256,2850,1536692274291925848,base_link,0.0217695196319,-0.0425489623988,-0.998625245463,-0.0215242406866,1.0,0.0,0.0,0.0,1.0,0.0,0.0,0.0,1.0,0.182841658592,0.0627558007836,-0.159843608737,1.21846967915e-07,0.0,0.0,0.0,1.21846967915e-07,0.0,0.0,0.0,1.21846967915e-07,0.00980665,0.4707192,8.1983594,9e-08,0.0,0.0,0.0,9e-08,0.0,0.0,0.0,9e-08
1536692274751519960,2851,1536692274751223768,base_link,0.0273908223588,-0.0620688941114,-0.996795288866,-0.0423833378704,1.0,0.0,0.0,0.0,1.0,0.0,0.0,0.0,1.0,0.0661725252867,-0.0365660637617,0.0216386187822,1.21846967915e-07,0.0,0.0,0.0,1.21846967915e-07,0.0,0.0,0.0,1.21846967915e-07,0.16671305,0.10787315,9.95374975,9e-08,0.0,0.0,0.0,9e-08,0.0,0.0,0.0,9e-08
1536692275191595064,2852,1536692275190893720,base_link,0.0226104355679,-0.0988624614047,-0.994466703375,-0.0274036093614,1.0,0.0,0.0,0.0,1.0,0.0,0.0,0.0,1.0,0.0634518712759,-0.00707255024463,0.0277212820947,1.21846967915e-07,0.0,0.0,0.0,1.21846967915e-07,0.0,0.0,0.0,1.21846967915e-07,0.0980665,0.6668522,9.5124505,9e-08,0.0,0.0,0.0,9e-08,0.0,0.0,0.0,9e-08
1536692275580293272,2853,1536692275573485624,base_link,0.0232187928151,-0.0935533915313,-0.994718929865,-0.0352548033703,1.0,0.0,0.0,0.0,1.0,0.0,0.0,0.0,1.0,0.0605384968221,-0.0100935585797,-0.0640251338482,1.21846967915e-07,0.0,0.0,0.0,1.21846967915e-07,0.0,0.0,0.0,1.21846967915e-07,0.1765197,0.4707192,10.0616229,9e-08,0.0,0.0,0.0,9e-08,0.0,0.0,0.0,9e-08
1536692276003779160,2854,1536692276003489176,base_link,0.0159505385074,-0.116823388643,-0.991583358535,-0.0534819526874,1.0,0.0,0.0,0.0,1.0,0.0,0.0,0.0,1.0,0.129949554801,-0.0955940932035,-0.107861272991,1.21846967915e-07,0.0,0.0,0.0,1.21846967915e-07,0.0,0.0,0.0,1.21846967915e-07,0.1176798,0.8237586,10.46369555,9e-08,0.0,0.0,0.0,9e-08,0.0,0.0,0.0,9e-08
1536692276437332472,2855,1536692276437081784,base_link,0.00597429262591,-0.125170317341,-0.989983850353,-0.0650282671193,1.0,0.0,0.0,0.0,1.0,0.0,0.0,0.0,1.0,-0.0492003560066,-0.0356820560992,0.0149764772505,1.21846967915e-07,0.0,0.0,0.0,1.21846967915e-07,0.0,0.0,0.0,1.21846967915e-07,0.3138128,0.4511059,10.4146623,9e-08,0.0,0.0,0.0,9e-08,0.0,0.0,0.0,9e-08
1536692276833489880,2856,1536692276833012440,base_link,-0.00218229287128,-0.0986651372377,-0.99283668171,-0.0673479898925,1.0,0.0,0.0,0.0,1.0,0.0,0.0,0.0,1.0,-0.0552076138556,-0.00685438653454,-0.0771743133664,1.21846967915e-07,0.0,0.0,0.0,1.21846967915e-07,0.0,0.0,0.0,1.21846967915e-07,0.26477955,0.980665,9.69877685,9e-08,0.0,0.0,0.0,9e-08,0.0,0.0,0.0,9e-08
1536692277298344600,2857,1536692277297658424,base_link,-0.0073471564735,-0.128397651917,-0.986345287116,-0.102873888124,1.0,0.0,0.0,0.0,1.0,0.0,0.0,0.0,1.0,0.248488768935,-0.039888035506,-0.168392956257,1.21846967915e-07,0.0,0.0,0.0,1.21846967915e-07,0.0,0.0,0.0,1.21846967915e-07,-0.0588399,0.4118793,8.71811185,9e-08,0.0,0.0,0.0,9e-08,0.0,0.0,0.0,9e-08
1536692277714434072,2858,1536692277713752952,base_link,-0.0196720378564,-0.16924195015,-0.976672778049,-0.130692225682,1.0,0.0,0.0,0.0,1.0,0.0,0.0,0.0,1.0,0.232346400619,-0.0655890703201,-0.115000121295,1.21846967915e-07,0.0,0.0,0.0,1.21846967915e-07,0.0,0.0,0.0,1.21846967915e-07,0.28439285,0.48052585,9.42419065,9e-08,0.0,0.0,0.0,9e-08,0.0,0.0,0.0,9e-08
1536692278149213336,2859,1536692278148644536,base_link,-0.0369208603452,-0.198196561252,-0.966814882052,-0.156920225025,1.0,0.0,0.0,0.0,1.0,0.0,0.0,0.0,1.0,0.112440705299,-0.0617110691965,-0.136536166072,1.21846967915e-07,0.0,0.0,0.0,1.21846967915e-07,0.0,0.0,0.0,1.21846967915e-07,0.44129925,0.46091255,10.4931155,9e-08,0.0,0.0,0.0,9e-08,0.0,0.0,0.0,9e-08
1536692278461563224,2860,1536692278461284440,base_link,-0.0487693270282,-0.216687749338,-0.957794766625,-0.182475086119,1.0,0.0,0.0,0.0,1.0,0.0,0.0,0.0,1.0,0.173061788082,-0.106443151832,-0.16766192019,1.21846967915e-07,0.0,0.0,0.0,1.21846967915e-07,0.0,0.0,0.0,1.21846967915e-07,0.6864655,0.4903325,10.26756255,9e-08,0.0,0.0,0.0,9e-08,0.0,0.0,0.0,9e-08
1536692278936698968,2861,1536692278936341496,base_link,-0.0830870323036,-0.268988903546,-0.933473565753,-0.222190496808,1.0,0.0,0.0,0.0,1.0,0.0,0.0,0.0,1.0,0.367860138416,-0.172918513417,-0.14398740232,1.21846967915e-07,0.0,0.0,0.0,1.21846967915e-07,0.0,0.0,0.0,1.21846967915e-07,0.7256921,0.588399,12.748645,9e-08,0.0,0.0,0.0,9e-08,0.0,0.0,0.0,9e-08
1536692279359228600,2862,1536692279358903448,base_link,-0.114842725226,-0.288849415616,-0.912129371206,-0.267202495767,1.0,0.0,0.0,0.0,1.0,0.0,0.0,0.0,1.0,-0.0090390285477,-0.142026513815,-0.247760608792,1.21846967915e-07,0.0,0.0,0.0,1.21846967915e-07,0.0,0.0,0.0,1.21846967915e-07,0.97085835,1.1964113,13.2389775,9e-08,0.0,0.0,0.0,9e-08,0.0,0.0,0.0,9e-08
1536692279646164952,2863,1536692279634957624,base_link,-0.121797175391,-0.272907361873,-0.902621056207,-0.309777740961,1.0,0.0,0.0,0.0,1.0,0.0,0.0,0.0,1.0,-0.00847858004272,-0.193347737193,-0.252085566521,1.21846967915e-07,0.0,0.0,0.0,1.21846967915e-07,0.0,0.0,0.0,1.21846967915e-07,1.02969825,0.53936575,12.3367657,9e-08,0.0,0.0,0.0,9e-08,0.0,0.0,0.0,9e-08
1536692280079180376,2864,1536692280078812056,base_link,-0.142091610865,-0.26478230302,-0.880336471773,-0.367025888182,1.0,0.0,0.0,0.0,1.0,0.0,0.0,0.0,1.0,0.00742037361488,-0.166210785508,-0.23660095036,1.21846967915e-07,0.0,0.0,0.0,1.21846967915e-07,0.0,0.0,0.0,1.21846967915e-07,0.784532,1.0591182,11.3953273,9e-08,0.0,0.0,0.0,9e-08,0.0,0.0,0.0,9e-08
1536692280466297368,2865,1536692280465729240,base_link,-0.150020063956,-0.263831159345,-0.85158642467,-0.427419771522,1.0,0.0,0.0,0.0,1.0,0.0,0.0,0.0,1.0,0.0605367124081,-0.134245634079,-0.361158400774,1.21846967915e-07,0.0,0.0,0.0,1.21846967915e-07,0.0,0.0,0.0,1.21846967915e-07,0.6864655,0.75511205,11.8268199,9e-08,0.0,0.0,0.0,9e-08,0.0,0.0,0.0,9e-08
