%time,field.header.seq,field.header.stamp,field.header.frame_id,field.orientation.x,field.orientation.y,field.orientation.z,field.orientation.w,field.orientation_covariance0,field.orientation_covariance1,field.orientation_covariance2,field.orientation_covariance3,field.orientation_covariance4,field.orientation_covariance5,field.orientation_covariance6,field.orientation_covariance7,field.orientation_covariance8,field.angular_velocity.x,field.angular_velocity.y,field.angular_velocity.z,field.angular_velocity_covariance0,field.angular_velocity_covariance1,field.angular_velocity_covariance2,field.angular_velocity_covariance3,field.angular_velocity_covariance4,field.angular_velocity_covariance5,field.angular_velocity_covariance6,field.angular_velocity_covariance7,field.angular_velocity_covariance8,field.linear_acceleration.x,field.linear_acceleration.y,field.linear_acceleration.z,field.linear_acceleration_covariance0,field.linear_acceleration_covariance1,field.linear_acceleration_covariance2,field.linear_acceleration_covariance3,field.linear_acceleration_covariance4,field.linear_acceleration_covariance5,field.linear_acceleration_covariance6,field.linear_acceleration_covariance7,field.linear_acceleration_covariance8
1538769533197330752,1439,1538769533197063104,base_link,-0.0033300561261,-0.194247331357,-0.980912707879,0.00819417525612,1.0,0.0,0.0,0.0,1.0,0.0,0.0,0.0,1.0,0.703463375568,0.0272439178079,-0.0594772174954,1.21846967915e-07,0.0,0.0,0.0,1.21846967915e-07,0.0,0.0,0.0,1.21846967915e-07,-1.1571847,0.26477955,8.8063717,9e-08,0.0,0.0,0.0,9e-08,0.0,0.0,0.0,9e-08
1538769533592164288,1440,1538769533591720832,base_link,0.00112183329582,-0.0597555440629,-0.998097442331,0.0151496553347,1.0,0.0,0.0,0.0,1.0,0.0,0.0,0.0,1.0,-1.57262086868,0.133600324392,0.091336093843,1.21846967915e-07,0.0,0.0,0.0,1.21846967915e-07,0.0,0.0,0.0,1.21846967915e-07,-1.2552512,1.06892485,9.7870367,9e-08,0.0,0.0,0.0,9e-08,0.0,0.0,0.0,9e-08
1538769534013389472,1441,1538769534013085472,base_link,0.0492389350235,0.189807252356,-0.980574669457,0.00469593966486,1.0,0.0,0.0,0.0,1.0,0.0,0.0,0.0,1.0,-0.765294015408,0.237358912826,-0.0453238710761,1.21846967915e-07,0.0,0.0,0.0,1.21846967915e-07,0.0,0.0,0.0,1.21846967915e-07,-1.53964405,0.16671305,5.30539765,9e-08,0.0,0.0,0.0,9e-08,0.0,0.0,0.0,9e-08
1538769534471560928,1442,1538769534470993824,base_link,0.0914185364924,0.280247364061,-0.954956893999,0.0340792711973,1.0,0.0,0.0,0.0,1.0,0.0,0.0,0.0,1.0,-0.148808836937,0.0702935233712,0.284881293774,1.21846967915e-07,0.0,0.0,0.0,1.21846967915e-07,0.0,0.0,0.0,1.21846967915e-07,-1.75539035,0.06864655,6.1978028,9e-08,0.0,0.0,0.0,9e-08,0.0,0.0,0.0,9e-08
1538769534834031424,1443,1538769534829985824,base_link,0.112219460361,0.293563073996,-0.945532762664,0.0848251674422,1.0,0.0,0.0,0.0,1.0,0.0,0.0,0.0,1.0,-0.146745949984,-0.00204239273444,0.287878811359,1.21846967915e-07,0.0,0.0,0.0,1.21846967915e-07,0.0,0.0,0.0,1.21846967915e-07,-1.83384355,0.24516625,7.63938035,9e-08,0.0,0.0,0.0,9e-08,0.0,0.0,0.0,9e-08
1538769535273804864,1444,1538769535273295072,base_link,0.120708297057,0.302472428915,-0.935359461727,0.137994978623,1.0,0.0,0.0,0.0,1.0,0.0,0.0,0.0,1.0,0.0324261784554,-0.0549999512732,0.238695949316,1.21846967915e-07,0.0,0.0,0.0,1.21846967915e-07,0.0,0.0,0.0,1.21846967915e-07,-1.95152335,0.12748645,8.1199062,9e-08,0.0,0.0,0.0,9e-08,0.0,0.0,0.0,9e-08
1538769535727765952,1445,1538769535727447776,base_link,0.126997501581,0.277351430566,-0.930920308782,0.200836244867,1.0,0.0,0.0,0.0,1.0,0.0,0.0,0.0,1.0,0.123005121946,-0.0798776745796,0.262220680714,1.21846967915e-07,0.0,0.0,0.0,1.21846967915e-07,0.0,0.0,0.0,1.21846967915e-07,-2.18688295,0.04903325,8.8848249,9e-08,0.0,0.0,0.0,9e-08,0.0,0.0,0.0,9e-08
1538769535982902240,1446,1538769535982259200,base_link,0.128224922271,0.248795445693,-0.933284500291,0.225031635614,1.0,0.0,0.0,0.0,1.0,0.0,0.0,0.0,1.0,0.265466034412,-0.133177906275,0.179363831878,1.21846967915e-07,0.0,0.0,0.0,1.21846967915e-07,0.0,0.0,0.0,1.21846967915e-07,-2.1770763,-0.02941995,11.07170785,9e-08,0.0,0.0,0.0,9e-08,0.0,0.0,0.0,9e-08
1538769536411112896,1447,1538769536410785120,base_link,0.112467077741,0.176905293244,-0.943827538342,0.25543150063,1.0,0.0,0.0,0.0,1.0,0.0,0.0,0.0,1.0,0.27847892046,-0.218692600727,0.121670559049,1.21846967915e-07,0.0,0.0,0.0,1.21846967915e-07,0.0,0.0,0.0,1.21846967915e-07,-1.89268345,-0.04903325,13.4154972,9e-08,0.0,0.0,0.0,9e-08,0.0,0.0,0.0,9e-08
1538769536730898816,1448,1538769536730498976,base_link,0.0904966317072,0.134977199336,-0.946117045988,0.280096502299,1.0,0.0,0.0,0.0,1.0,0.0,0.0,0.0,1.0,0.250145822763,-0.280999064445,0.137663811445,1.21846967915e-07,0.0,0.0,0.0,1.21846967915e-07,0.0,0.0,0.0,1.21846967915e-07,-1.7063571,0.2745862,12.4348322,9e-08,0.0,0.0,0.0,9e-08,0.0,0.0,0.0,9e-08
1538769537161500960,1449,1538769537161247552,base_link,0.0558679473723,0.0580810284165,-0.95040374544,0.300396549995,1.0,0.0,0.0,0.0,1.0,0.0,0.0,0.0,1.0,0.343979001045,-0.260476738214,0.129386633635,1.21846967915e-07,0.0,0.0,0.0,1.21846967915e-07,0.0,0.0,0.0,1.21846967915e-07,-1.2356379,-0.10787315,14.83746145,9e-08,0.0,0.0,0.0,9e-08,0.0,0.0,0.0,9e-08
1538769537570066432,1450,1538769537569766752,base_link,0.0234054694103,-0.0146795462596,-0.943570232191,0.330018047759,1.0,0.0,0.0,0.0,1.0,0.0,0.0,0.0,1.0,0.13579069078,-0.217537209392,0.0685717612505,1.21846967915e-07,0.0,0.0,0.0,1.21846967915e-07,0.0,0.0,0.0,1.21846967915e-07,-0.87279185,0.4511059,17.74022985,9e-08,0.0,0.0,0.0,9e-08,0.0,0.0,0.0,9e-08
1538769538005863360,1451,1538769538005420288,base_link,0.0113647873914,-0.0761740070775,-0.94113923945,0.329128081786,1.0,0.0,0.0,0.0,1.0,0.0,0.0,0.0,1.0,0.216982215643,-0.125083357096,-0.0556534938514,1.21846967915e-07,0.0,0.0,0.0,1.21846967915e-07,0.0,0.0,0.0,1.21846967915e-07,-0.93163175,0.5295591,14.24906245,9e-08,0.0,0.0,0.0,9e-08,0.0,0.0,0.0,9e-08
1538769538299280704,1452,1538769538298741184,base_link,0.0103574405529,-0.109010030563,-0.942964816146,0.314367447698,1.0,0.0,0.0,0.0,1.0,0.0,0.0,0.0,1.0,0.177760109305,-0.0737341344357,-0.0797198489308,1.21846967915e-07,0.0,0.0,0.0,1.21846967915e-07,0.0,0.0,0.0,1.21846967915e-07,-0.87279185,0.30400615,11.42474725,9e-08,0.0,0.0,0.0,9e-08,0.0,0.0,0.0,9e-08
1538769538775646336,1453,1538769538774264960,base_link,0.00628005647239,-0.126467485101,-0.942737074116,0.308566597658,1.0,0.0,0.0,0.0,1.0,0.0,0.0,0.0,1.0,0.00593285169452,-0.00580882234499,-0.0517439804971,1.21846967915e-07,0.0,0.0,0.0,1.21846967915e-07,0.0,0.0,0.0,1.21846967915e-07,-0.63743225,0.6080123,9.77723005,9e-08,0.0,0.0,0.0,9e-08,0.0,0.0,0.0,9e-08
1538769539232578656,1454,1538769539232332864,base_link,0.0107921359495,-0.112948045686,-0.951831483603,0.284856271826,1.0,0.0,0.0,0.0,1.0,0.0,0.0,0.0,1.0,0.0193462893367,0.0128654548898,-0.0554189682007,1.21846967915e-07,0.0,0.0,0.0,1.21846967915e-07,0.0,0.0,0.0,1.21846967915e-07,-0.63743225,0.18632635,8.9044382,9e-08,0.0,0.0,0.0,9e-08,0.0,0.0,0.0,9e-08
1538769539659932384,1455,1538769539657707520,base_link,0.0128116054503,-0.0991867443524,-0.953548443196,0.284153513068,1.0,0.0,0.0,0.0,1.0,0.0,0.0,0.0,1.0,-0.195367470384,0.0386962816119,0.011351056397,1.21846967915e-07,0.0,0.0,0.0,1.21846967915e-07,0.0,0.0,0.0,1.21846967915e-07,-0.57859235,0.63743225,9.1201845,9e-08,0.0,0.0,0.0,9e-08,0.0,0.0,0.0,9e-08
1538769540084789600,1456,1538769540083902656,base_link,0.0152250969182,-0.05387212093,-0.960547144109,0.272424622517,1.0,0.0,0.0,0.0,1.0,0.0,0.0,0.0,1.0,-0.112896613777,0.0963656902313,-0.111383520067,1.21846967915e-07,0.0,0.0,0.0,1.21846967915e-07,0.0,0.0,0.0,1.21846967915e-07,-0.50013915,0.6276256,7.75706015,9e-08,0.0,0.0,0.0,9e-08,0.0,0.0,0.0,9e-08
1538769540467862080,1457,1538769540467598912,base_link,0.027608897253,-0.0427911851353,-0.967606725994,0.247272900009,1.0,0.0,0.0,0.0,1.0,0.0,0.0,0.0,1.0,0.101282797754,0.0299219656736,-0.0669559165835,1.21846967915e-07,0.0,0.0,0.0,1.21846967915e-07,0.0,0.0,0.0,1.21846967915e-07,-0.55897905,0.00980665,8.9044382,9e-08,0.0,0.0,0.0,9e-08,0.0,0.0,0.0,9e-08
1538769540854506336,1458,1538769540853843520,base_link,0.0275435146317,-0.050205627437,-0.966296279092,0.250982570686,1.0,0.0,0.0,0.0,1.0,0.0,0.0,0.0,1.0,-0.0228550024331,-0.0210128389299,0.0389456674457,1.21846967915e-07,0.0,0.0,0.0,1.21846967915e-07,0.0,0.0,0.0,1.21846967915e-07,-0.5099458,0.36284605,10.1008495,9e-08,0.0,0.0,0.0,9e-08,0.0,0.0,0.0,9e-08
1538769541162583168,1459,1538769541162292928,base_link,0.0246913320093,-0.0469372765693,-0.965809268425,0.253770934538,1.0,0.0,0.0,0.0,1.0,0.0,0.0,0.0,1.0,-0.0286262892187,-0.0107049075887,0.0128510920331,1.21846967915e-07,0.0,0.0,0.0,1.21846967915e-07,0.0,0.0,0.0,1.21846967915e-07,-0.3726527,0.59820565,10.0223963,9e-08,0.0,0.0,0.0,9e-08,0.0,0.0,0.0,9e-08
1538769541542157056,1460,1538769541541660352,base_link,0.0254607126353,-0.0441003750171,-0.967182916468,0.248925922972,1.0,0.0,0.0,0.0,1.0,0.0,0.0,0.0,1.0,-0.00768095813692,0.00325886718929,-0.0188679359853,1.21846967915e-07,0.0,0.0,0.0,1.21846967915e-07,0.0,0.0,0.0,1.21846967915e-07,-0.28439285,0.4118793,9.67916355,9e-08,0.0,0.0,0.0,9e-08,0.0,0.0,0.0,9e-08
1538769542066759968,1461,1538769542066182592,base_link,0.0209378317588,-0.0338632021077,-0.968758826711,0.244788125557,1.0,0.0,0.0,0.0,1.0,0.0,0.0,0.0,1.0,-0.0783883482218,-0.0445040911436,0.00181935052387,1.21846967915e-07,0.0,0.0,0.0,1.21846967915e-07,0.0,0.0,0.0,1.21846967915e-07,-0.2745862,0.22555295,9.5909037,9e-08,0.0,0.0,0.0,9e-08,0.0,0.0,0.0,9e-08
1538769542415663296,1462,1538769542412657344,base_link,0.00843873377688,-0.0162178958187,-0.969024333178,0.246287655671,1.0,0.0,0.0,0.0,1.0,0.0,0.0,0.0,1.0,-0.0488791763783,-0.0409166477621,0.0290307160467,1.21846967915e-07,0.0,0.0,0.0,1.21846967915e-07,0.0,0.0,0.0,1.21846967915e-07,-0.14709975,0.34323275,10.2577559,9e-08,0.0,0.0,0.0,9e-08,0.0,0.0,0.0,9e-08
1538769542912337216,1463,1538769542911974656,base_link,0.00187699293145,-0.00573970214212,-0.968080735825,0.250565803018,1.0,0.0,0.0,0.0,1.0,0.0,0.0,0.0,1.0,-0.00227690953761,0.00609789602458,-0.0102339144796,1.21846967915e-07,0.0,0.0,0.0,1.21846967915e-07,0.0,0.0,0.0,1.21846967915e-07,-0.04903325,0.48052585,10.38524235,9e-08,0.0,0.0,0.0,9e-08,0.0,0.0,0.0,9e-08
1538769543162412800,1464,1538769543161964672,base_link,0.00427669209004,-0.0100425116348,-0.968890864619,0.247247548667,1.0,0.0,0.0,0.0,1.0,0.0,0.0,0.0,1.0,0.0150216734037,0.0135899074376,-0.0150737483054,1.21846967915e-07,0.0,0.0,0.0,1.21846967915e-07,0.0,0.0,0.0,1.21846967915e-07,-0.08825985,0.32361945,9.8851032,9e-08,0.0,0.0,0.0,9e-08,0.0,0.0,0.0,9e-08
1538769543471699712,1465,1538769543471222752,base_link,0.010167184595,-0.0293881333678,-0.969377084161,0.243600153282,1.0,0.0,0.0,0.0,1.0,0.0,0.0,0.0,1.0,0.167830586433,-0.00863290205598,0.0300670098513,1.21846967915e-07,0.0,0.0,0.0,1.21846967915e-07,0.0,0.0,0.0,1.21846967915e-07,-0.0784532,0.10787315,10.79712165,9e-08,0.0,0.0,0.0,9e-08,0.0,0.0,0.0,9e-08
1538769543972068768,1466,1538769543969775488,base_link,0.0148716530839,-0.046602047211,-0.965486575678,0.255817816649,1.0,0.0,0.0,0.0,1.0,0.0,0.0,0.0,1.0,0.130942374468,0.00806327909231,0.012455701828,1.21846967915e-07,0.0,0.0,0.0,1.21846967915e-07,0.0,0.0,0.0,1.21846967915e-07,-0.0196133,0.5099458,9.95374975,9e-08,0.0,0.0,0.0,9e-08,0.0,0.0,0.0,9e-08
1538769544424547904,1467,1538769544424217152,base_link,0.0215634013256,-0.0572876416502,-0.966403368475,0.249635084149,1.0,0.0,0.0,0.0,1.0,0.0,0.0,0.0,1.0,0.0359477885067,0.00570079218596,-0.0892935991287,1.21846967915e-07,0.0,0.0,0.0,1.21846967915e-07,0.0,0.0,0.0,1.21846967915e-07,-0.06864655,0.588399,9.6497436,9e-08,0.0,0.0,0.0,9e-08,0.0,0.0,0.0,9e-08
1538769544820764384,1468,1538769544819904672,base_link,0.0176649033226,-0.0546331935898,-0.970652237492,0.23353243715,1.0,0.0,0.0,0.0,1.0,0.0,0.0,0.0,1.0,0.0469587482512,-0.0100405495614,-0.0283319652081,1.21846967915e-07,0.0,0.0,0.0,1.21846967915e-07,0.0,0.0,0.0,1.21846967915e-07,0.04903325,0.3138128,11.13054775,9e-08,0.0,0.0,0.0,9e-08,0.0,0.0,0.0,9e-08
1538769545098649792,1469,1538769545098446368,base_link,0.0173077359777,-0.0659507848448,-0.971330246342,0.227746545079,1.0,0.0,0.0,0.0,1.0,0.0,0.0,0.0,1.0,0.0331322997808,-0.0214464254677,-0.0508455559611,1.21846967915e-07,0.0,0.0,0.0,1.21846967915e-07,0.0,0.0,0.0,1.21846967915e-07,0.0392266,0.4511059,10.4342756,9e-08,0.0,0.0,0.0,9e-08,0.0,0.0,0.0,9e-08
1538769545559736256,1470,1538769545559319360,base_link,0.0124652325699,-0.0682380576792,-0.970682514753,0.230138308447,1.0,0.0,0.0,0.0,1.0,0.0,0.0,0.0,1.0,-0.109792649746,-0.00390263600275,0.015613257885,1.21846967915e-07,0.0,0.0,0.0,1.21846967915e-07,0.0,0.0,0.0,1.21846967915e-07,0.0784532,0.48052585,9.73800345,9e-08,0.0,0.0,0.0,9e-08,0.0,0.0,0.0,9e-08
1538769545902587360,1471,1538769545897890528,base_link,0.00979148730785,-0.065938020964,-0.971478625271,0.227564462975,1.0,0.0,0.0,0.0,1.0,0.0,0.0,0.0,1.0,0.065090239048,-0.0093214251101,-0.0624162778258,1.21846967915e-07,0.0,0.0,0.0,1.21846967915e-07,0.0,0.0,0.0,1.21846967915e-07,0.1569064,0.61781895,10.05181625,9e-08,0.0,0.0,0.0,9e-08,0.0,0.0,0.0,9e-08
1538769546327070560,1472,1538769546326214336,base_link,0.0174393914991,-0.103200777568,-0.971204764844,0.214025166459,1.0,0.0,0.0,0.0,1.0,0.0,0.0,0.0,1.0,0.25179746747,-0.0246322564781,-0.0203610695899,1.21846967915e-07,0.0,0.0,0.0,1.21846967915e-07,0.0,0.0,0.0,1.21846967915e-07,0.02941995,0.30400615,10.07142955,9e-08,0.0,0.0,0.0,9e-08,0.0,0.0,0.0,9e-08
1538769546692470080,1473,1538769546692157952,base_link,0.0262474068533,-0.144629676956,-0.969197588942,0.197609118632,1.0,0.0,0.0,0.0,1.0,0.0,0.0,0.0,1.0,0.269281238317,-0.00472529325634,-0.164945527911,1.21846967915e-07,0.0,0.0,0.0,1.21846967915e-07,0.0,0.0,0.0,1.21846967915e-07,0.10787315,0.59820565,9.7870367,9e-08,0.0,0.0,0.0,9e-08,0.0,0.0,0.0,9e-08
1538769547039281568,1474,1538769547038866144,base_link,0.0348031411059,-0.17724502703,-0.967567874445,0.176593743109,1.0,0.0,0.0,0.0,1.0,0.0,0.0,0.0,1.0,0.105751626194,-0.0120270811021,-0.0303234383464,1.21846967915e-07,0.0,0.0,0.0,1.21846967915e-07,0.0,0.0,0.0,1.21846967915e-07,0.1176798,0.38245935,9.52225715,9e-08,0.0,0.0,0.0,9e-08,0.0,0.0,0.0,9e-08
1538769547309799872,1475,1538769547309406560,base_link,0.0390865308532,-0.188097476816,-0.96752263361,0.164291009411,1.0,0.0,0.0,0.0,1.0,0.0,0.0,0.0,1.0,0.0761992037296,0.0193196497858,-0.15438580513,1.21846967915e-07,0.0,0.0,0.0,1.21846967915e-07,0.0,0.0,0.0,1.21846967915e-07,0.06864655,0.8237586,9.34573745,9e-08,0.0,0.0,0.0,9e-08,0.0,0.0,0.0,9e-08
1538769547614403616,1476,1538769547610462144,base_link,0.0453309755749,-0.192887848654,-0.97103305388,0.133544706996,1.0,0.0,0.0,0.0,1.0,0.0,0.0,0.0,1.0,0.00735590234399,-0.0307843536139,-0.235377311707,1.21846967915e-07,0.0,0.0,0.0,1.21846967915e-07,0.0,0.0,0.0,1.21846967915e-07,0.1176798,0.7256921,9.7674234,9e-08,0.0,0.0,0.0,9e-08,0.0,0.0,0.0,9e-08
1538769547915304864,1477,1538769547914985760,base_link,0.0474699020733,-0.212389197374,-0.971588668021,0.0930209514563,1.0,0.0,0.0,0.0,1.0,0.0,0.0,0.0,1.0,0.331099778414,-0.0674862116575,-0.26562717557,1.21846967915e-07,0.0,0.0,0.0,1.21846967915e-07,0.0,0.0,0.0,1.21846967915e-07,0.18632635,0.69627215,9.79684335,9e-08,0.0,0.0,0.0,9e-08,0.0,0.0,0.0,9e-08
1538769548266522240,1478,1538769548265213344,base_link,0.0397016468472,-0.289321295064,-0.955556064448,0.0403679966933,1.0,0.0,0.0,0.0,1.0,0.0,0.0,0.0,1.0,0.310278862715,-0.188794016838,-0.197228208184,1.21846967915e-07,0.0,0.0,0.0,1.21846967915e-07,0.0,0.0,0.0,1.21846967915e-07,0.3334261,0.59820565,10.8461549,9e-08,0.0,0.0,0.0,9e-08,0.0,0.0,0.0,9e-08
1538769548628745344,1479,1538769548628542944,base_link,0.0162312440063,-0.314710305885,-0.949009967992,-0.00860527400565,1.0,0.0,0.0,0.0,1.0,0.0,0.0,0.0,1.0,0.140492811799,-0.219678774476,-0.254853367805,1.21846967915e-07,0.0,0.0,0.0,1.21846967915e-07,0.0,0.0,0.0,1.21846967915e-07,0.5687857,0.980665,11.44436055,9e-08,0.0,0.0,0.0,9e-08,0.0,0.0,0.0,9e-08
1538769548964061408,1480,1538769548956935104,base_link,-0.00645072171217,-0.337772409791,-0.938703026246,-0.0685916604983,1.0,0.0,0.0,0.0,1.0,0.0,0.0,0.0,1.0,0.130875885487,-0.252125054598,-0.314740628004,1.21846967915e-07,0.0,0.0,0.0,1.21846967915e-07,0.0,0.0,0.0,1.21846967915e-07,0.6864655,0.89240515,11.571847,9e-08,0.0,0.0,0.0,9e-08,0.0,0.0,0.0,9e-08
1538769549422897984,1481,1538769549422490240,base_link,-0.0474030429979,-0.346038126319,-0.923413773727,-0.159114955736,1.0,0.0,0.0,0.0,1.0,0.0,0.0,0.0,1.0,0.00645750761032,-0.298878759146,-0.315166383982,1.21846967915e-07,0.0,0.0,0.0,1.21846967915e-07,0.0,0.0,0.0,1.21846967915e-07,1.0198916,1.1571847,13.17033095,9e-08,0.0,0.0,0.0,9e-08,0.0,0.0,0.0,9e-08
1538769549818239168,1482,1538769549817630752,base_link,-0.085754967071,-0.346543024493,-0.901956630098,-0.242957311517,1.0,0.0,0.0,0.0,1.0,0.0,0.0,0.0,1.0,0.0829504951835,-0.335796445608,-0.28302937746,1.21846967915e-07,0.0,0.0,0.0,1.21846967915e-07,0.0,0.0,0.0,1.21846967915e-07,1.12776475,0.69627215,13.2585908,9e-08,0.0,0.0,0.0,9e-08,0.0,0.0,0.0,9e-08
1538769550258257536,1483,1538769550257780480,base_link,-0.131604261431,-0.336482972219,-0.874146885859,-0.324540829055,1.0,0.0,0.0,0.0,1.0,0.0,0.0,0.0,1.0,-0.0384711585939,-0.308778494596,-0.324129849672,1.21846967915e-07,0.0,0.0,0.0,1.21846967915e-07,0.0,0.0,0.0,1.21846967915e-07,1.22583125,1.32389775,13.4939504,9e-08,0.0,0.0,0.0,9e-08,0.0,0.0,0.0,9e-08
1538769550693000768,1484,1538769550692746272,base_link,-0.168940950848,-0.321274300093,-0.831337993625,-0.420854986405,1.0,0.0,0.0,0.0,1.0,0.0,0.0,0.0,1.0,0.0790000408888,-0.349802881479,-0.369164466858,1.21846967915e-07,0.0,0.0,0.0,1.21846967915e-07,0.0,0.0,0.0,1.21846967915e-07,0.9218251,0.8629852,13.50375705,9e-08,0.0,0.0,0.0,9e-08,0.0,0.0,0.0,9e-08
1538769551023590144,1485,1538769551023311744,base_link,-0.213749139945,-0.313701991403,-0.791312037352,-0.479299097959,1.0,0.0,0.0,0.0,1.0,0.0,0.0,0.0,1.0,0.00227943994105,-0.427540779114,-0.26331230998,1.21846967915e-07,0.0,0.0,0.0,1.21846967915e-07,0.0,0.0,0.0,1.21846967915e-07,0.7649187,0.79433865,14.03331615,9e-08,0.0,0.0,0.0,9e-08,0.0,0.0,0.0,9e-08
1538769551321900928,1486,1538769551321338112,base_link,-0.247384433149,-0.287779477684,-0.756925355819,-0.532022480895,1.0,0.0,0.0,0.0,1.0,0.0,0.0,0.0,1.0,-0.254191666842,-0.399044603109,-0.293471306562,1.21846967915e-07,0.0,0.0,0.0,1.21846967915e-07,0.0,0.0,0.0,1.21846967915e-07,1.10815145,1.16699135,15.70044665,9e-08,0.0,0.0,0.0,9e-08,0.0,0.0,0.0,9e-08
1538769551722574144,1487,1538769551720845984,base_link,-0.251387402508,-0.234246654933,-0.716133013191,-0.607524802729,1.0,0.0,0.0,0.0,1.0,0.0,0.0,0.0,1.0,-0.251055747271,-0.246045559645,-0.317921310663,1.21846967915e-07,0.0,0.0,0.0,1.21846967915e-07,0.0,0.0,0.0,1.21846967915e-07,0.6080123,0.93163175,12.4152189,9e-08,0.0,0.0,0.0,9e-08,0.0,0.0,0.0,9e-08
1538769552117450912,1488,1538769552117065856,base_link,-0.217436191911,-0.168766084623,-0.684127926971,-0.675432077019,1.0,0.0,0.0,0.0,1.0,0.0,0.0,0.0,1.0,-0.559254407883,-0.159353107214,-0.219008132815,1.21846967915e-07,0.0,0.0,0.0,1.21846967915e-07,0.0,0.0,0.0,1.21846967915e-07,0.34323275,0.7256921,10.95402805,9e-08,0.0,0.0,0.0,9e-08,0.0,0.0,0.0,9e-08
1538769552495105440,1489,1538769552494806688,base_link,-0.157173800644,-0.0969060029012,-0.663366502209,-0.725155505212,1.0,0.0,0.0,0.0,1.0,0.0,0.0,0.0,1.0,-0.559768378735,-0.0753287672997,-0.19256272912,1.21846967915e-07,0.0,0.0,0.0,1.21846967915e-07,0.0,0.0,0.0,1.21846967915e-07,0.30400615,0.7256921,12.4740588,9e-08,0.0,0.0,0.0,9e-08,0.0,0.0,0.0,9e-08
1538769552865931776,1490,1538769552865122752,base_link,-0.0837425654773,-0.0398621996774,-0.639837459026,-0.762893317438,1.0,0.0,0.0,0.0,1.0,0.0,0.0,0.0,1.0,-0.449951022863,0.0166860949248,-0.221781373024,1.21846967915e-07,0.0,0.0,0.0,1.21846967915e-07,0.0,0.0,0.0,1.21846967915e-07,0.0392266,0.32361945,10.01258965,9e-08,0.0,0.0,0.0,9e-08,0.0,0.0,0.0,9e-08
1538769553368726560,1491,1538769553368045600,base_link,-0.00138867999524,0.0134023318236,-0.628804597372,-0.777446607423,1.0,0.0,0.0,0.0,1.0,0.0,0.0,0.0,1.0,-0.412260681391,0.04756693542,-0.0259140953422,1.21846967915e-07,0.0,0.0,0.0,1.21846967915e-07,0.0,0.0,0.0,1.21846967915e-07,-0.12748645,0.28439285,8.36507245,9e-08,0.0,0.0,0.0,9e-08,0.0,0.0,0.0,9e-08
1538769553732770720,1492,1538769553731222944,base_link,0.0278803848775,0.0214137968501,-0.633584379763,-0.772874483447,1.0,0.0,0.0,0.0,1.0,0.0,0.0,0.0,1.0,0.00359998922795,0.0684010833502,0.0861789658666,1.21846967915e-07,0.0,0.0,0.0,1.21846967915e-07,0.0,0.0,0.0,1.21846967915e-07,-0.04903325,0.1176798,8.01203305,9e-08,0.0,0.0,0.0,9e-08,0.0,0.0,0.0,9e-08
1538769554102942656,1493,1538769554102725056,base_link,0.0418955130528,0.018081965274,-0.648569562043,-0.759786372416,1.0,0.0,0.0,0.0,1.0,0.0,0.0,0.0,1.0,-0.128127664328,0.0619417540729,0.109286129475,1.21846967915e-07,0.0,0.0,0.0,1.21846967915e-07,0.0,0.0,0.0,1.21846967915e-07,-0.0392266,0.40207265,9.99297635,9e-08,0.0,0.0,0.0,9e-08,0.0,0.0,0.0,9e-08
1538769554510888096,1494,1538769554510599072,base_link,0.0230924741276,-0.0211468932572,-0.657596276326,-0.752719525392,1.0,0.0,0.0,0.0,1.0,0.0,0.0,0.0,1.0,0.56542724371,0.0872026234865,-0.00829161517322,1.21846967915e-07,0.0,0.0,0.0,1.21846967915e-07,0.0,0.0,0.0,1.21846967915e-07,-0.06864655,0.42168595,9.18883105,9e-08,0.0,0.0,0.0,9e-08,0.0,0.0,0.0,9e-08
1538769554967043392,1495,1538769554965368832,base_link,-0.0214887629864,-0.0836391363471,-0.659244703405,-0.746953244165,1.0,0.0,0.0,0.0,1.0,0.0,0.0,0.0,1.0,0.105858035386,0.0766018554568,-0.0423692688346,1.21846967915e-07,0.0,0.0,0.0,1.21846967915e-07,0.0,0.0,0.0,1.21846967915e-07,-0.2941995,0.89240515,7.2373077,9e-08,0.0,0.0,0.0,9e-08,0.0,0.0,0.0,9e-08
1538769555413272800,1496,1538769555413054432,base_link,-0.0497731094959,-0.12370943628,-0.626048370476,-0.768298152263,1.0,0.0,0.0,0.0,1.0,0.0,0.0,0.0,1.0,0.307484507561,-0.0244554709643,-0.206430196762,1.21846967915e-07,0.0,0.0,0.0,1.21846967915e-07,0.0,0.0,0.0,1.21846967915e-07,-0.10787315,0.5295591,9.7281968,9e-08,0.0,0.0,0.0,9e-08,0.0,0.0,0.0,9e-08
1538769555881444544,1497,1538769555878066816,base_link,-0.107744585868,-0.150248075169,-0.596715283513,-0.780863298245,1.0,0.0,0.0,0.0,1.0,0.0,0.0,0.0,1.0,0.154491484165,-0.131217524409,-0.0793425366282,1.21846967915e-07,0.0,0.0,0.0,1.21846967915e-07,0.0,0.0,0.0,1.21846967915e-07,0.1765197,0.784532,11.1599677,9e-08,0.0,0.0,0.0,9e-08,0.0,0.0,0.0,9e-08
1538769556213353056,1498,1538769556213043584,base_link,-0.13867037979,-0.149938152283,-0.577592402148,-0.790364531871,1.0,0.0,0.0,0.0,1.0,0.0,0.0,0.0,1.0,0.204457551241,-0.137948423624,-0.106943547726,1.21846967915e-07,0.0,0.0,0.0,1.21846967915e-07,0.0,0.0,0.0,1.21846967915e-07,0.3530394,0.59820565,12.40541225,9e-08,0.0,0.0,0.0,9e-08,0.0,0.0,0.0,9e-08
1538769556670131136,1499,1538769556667857216,base_link,-0.172092579081,-0.151575656758,-0.536206844464,-0.812336866364,1.0,0.0,0.0,0.0,1.0,0.0,0.0,0.0,1.0,0.133906513453,-0.102227471769,-0.27707016468,1.21846967915e-07,0.0,0.0,0.0,1.21846967915e-07,0.0,0.0,0.0,1.21846967915e-07,0.34323275,0.8825985,10.69905515,9e-08,0.0,0.0,0.0,9e-08,0.0,0.0,0.0,9e-08
1538769557076420896,1500,1538769557075097280,base_link,-0.1969497128,-0.148628563783,-0.475275332466,-0.844531656603,1.0,0.0,0.0,0.0,1.0,0.0,0.0,0.0,1.0,0.106445990503,-0.188278824091,-0.296694368124,1.21846967915e-07,0.0,0.0,0.0,1.21846967915e-07,0.0,0.0,0.0,1.21846967915e-07,0.46091255,0.392266,12.0425662,9e-08,0.0,0.0,0.0,9e-08,0.0,0.0,0.0,9e-08
1538769557426573472,1501,1538769557425507968,base_link,-0.20828478633,-0.121680793617,-0.442792910436,-0.863565672497,1.0,0.0,0.0,0.0,1.0,0.0,0.0,0.0,1.0,-0.116393767297,-0.21701040864,-0.0743063092232,1.21846967915e-07,0.0,0.0,0.0,1.21846967915e-07,0.0,0.0,0.0,1.21846967915e-07,0.6668522,0.42168595,12.62115855,9e-08,0.0,0.0,0.0,9e-08,0.0,0.0,0.0,9e-08
1538769557763159744,1502,1538769557762403232,base_link,-0.201637175481,-0.0875407119134,-0.425954067706,-0.877634437238,1.0,0.0,0.0,0.0,1.0,0.0,0.0,0.0,1.0,-0.127619251609,-0.139319106936,-0.199811071157,1.21846967915e-07,0.0,0.0,0.0,1.21846967915e-07,0.0,0.0,0.0,1.21846967915e-07,0.51975245,1.04931155,12.4544455,9e-08,0.0,0.0,0.0,9e-08,0.0,0.0,0.0,9e-08
1538769558223339584,1503,1538769558222877472,base_link,-0.271707514481,-0.0983040465183,-0.360114499917,-0.887033758074,1.0,0.0,0.0,0.0,1.0,0.0,0.0,0.0,1.0,0.30391651392,-0.147957056761,-0.282447040081,1.21846967915e-07,0.0,0.0,0.0,1.21846967915e-07,0.0,0.0,0.0,1.21846967915e-07,0.392266,1.12776475,10.97364135,9e-08,0.0,0.0,0.0,9e-08,0.0,0.0,0.0,9e-08
1538769558574048736,1504,1538769558573687424,base_link,-0.310598083278,-0.0995362395886,-0.294638662083,-0.898225710208,1.0,0.0,0.0,0.0,1.0,0.0,0.0,0.0,1.0,0.13606967032,-0.199950680137,-0.32663923502,1.21846967915e-07,0.0,0.0,0.0,1.21846967915e-07,0.0,0.0,0.0,1.21846967915e-07,0.51975245,0.83356525,11.20900095,9e-08,0.0,0.0,0.0,9e-08,0.0,0.0,0.0,9e-08
1538769559002782368,1505,1538769559002414048,base_link,-0.340906159067,-0.0786289165439,-0.217611527469,-0.911178197339,1.0,0.0,0.0,0.0,1.0,0.0,0.0,0.0,1.0,-0.00143888685852,-0.279789656401,-0.304045528173,1.21846967915e-07,0.0,0.0,0.0,1.21846967915e-07,0.0,0.0,0.0,1.21846967915e-07,0.85317855,0.8433719,12.75845165,9e-08,0.0,0.0,0.0,9e-08,0.0,0.0,0.0,9e-08
1538769559512852736,1506,1538769559511612096,base_link,-0.350176680904,-0.0329243703892,-0.117784633911,-0.92866520232,1.0,0.0,0.0,0.0,1.0,0.0,0.0,0.0,1.0,0.0248663239181,-0.307111918926,-0.31883507967,1.21846967915e-07,0.0,0.0,0.0,1.21846967915e-07,0.0,0.0,0.0,1.21846967915e-07,1.0198916,1.0591182,14.121576,9e-08,0.0,0.0,0.0,9e-08,0.0,0.0,0.0,9e-08
1538769559893638656,1507,1538769559893363872,base_link,-0.360522654692,-0.00214451429328,-0.0369677856773,-0.932015128276,1.0,0.0,0.0,0.0,1.0,0.0,0.0,0.0,1.0,0.0260212384164,-0.286786049604,-0.315106213093,1.21846967915e-07,0.0,0.0,0.0,1.21846967915e-07,0.0,0.0,0.0,1.21846967915e-07,0.67665885,0.980665,11.01286795,9e-08,0.0,0.0,0.0,9e-08,0.0,0.0,0.0,9e-08
1538769560245743040,1508,1538769560245268032,base_link,-0.368833021751,0.0221270362147,0.0321953430506,-0.928674354239,1.0,0.0,0.0,0.0,1.0,0.0,0.0,0.0,1.0,0.0189448222518,-0.269339591265,-0.345788061619,1.21846967915e-07,0.0,0.0,0.0,1.21846967915e-07,0.0,0.0,0.0,1.21846967915e-07,0.77472535,0.9022118,11.32668075,9e-08,0.0,0.0,0.0,9e-08,0.0,0.0,0.0,9e-08
1538769560531955552,1509,1538769560531755968,base_link,-0.366360086235,0.0409612715672,0.0924361067392,-0.924963798003,1.0,0.0,0.0,0.0,1.0,0.0,0.0,0.0,1.0,-0.0373589247465,-0.278569877148,-0.353620797396,1.21846967915e-07,0.0,0.0,0.0,1.21846967915e-07,0.0,0.0,0.0,1.21846967915e-07,0.784532,0.89240515,11.99353295,9e-08,0.0,0.0,0.0,9e-08,0.0,0.0,0.0,9e-08
1538769560867342400,1510,1538769560866785472,base_link,-0.34279427147,0.0669974925237,0.167092519227,-0.92199973615,1.0,0.0,0.0,0.0,1.0,0.0,0.0,0.0,1.0,-0.248967587948,-0.330562829971,-0.274080902338,1.21846967915e-07,0.0,0.0,0.0,1.21846967915e-07,0.0,0.0,0.0,1.21846967915e-07,0.75511205,0.95124505,12.75845165,9e-08,0.0,0.0,0.0,9e-08,0.0,0.0,0.0,9e-08
1538769561350298912,1511,1538769561350001824,base_link,-0.269432978172,0.101401418038,0.249511423136,-0.924590543115,1.0,0.0,0.0,0.0,1.0,0.0,0.0,0.0,1.0,-0.353980064392,-0.212399408221,-0.278411597013,1.21846967915e-07,0.0,0.0,0.0,1.21846967915e-07,0.0,0.0,0.0,1.21846967915e-07,0.77472535,1.04931155,14.01370285,9e-08,0.0,0.0,0.0,9e-08,0.0,0.0,0.0,9e-08
1538769561695953312,1512,1538769561695623136,base_link,-0.204145009097,0.0976955692034,0.309185855459,-0.923679867596,1.0,0.0,0.0,0.0,1.0,0.0,0.0,0.0,1.0,-0.438458234072,-0.128361642361,-0.240047261119,1.21846967915e-07,0.0,0.0,0.0,1.21846967915e-07,0.0,0.0,0.0,1.21846967915e-07,0.42168595,0.77472535,12.42502555,9e-08,0.0,0.0,0.0,9e-08,0.0,0.0,0.0,9e-08
1538769562111111520,1513,1538769562110785504,base_link,-0.108420446772,0.0698914914745,0.366649131095,-0.921373214723,1.0,0.0,0.0,0.0,1.0,0.0,0.0,0.0,1.0,-0.436558783054,-0.0466870740056,-0.151377156377,1.21846967915e-07,0.0,0.0,0.0,1.21846967915e-07,0.0,0.0,0.0,1.21846967915e-07,0.18632635,0.30400615,10.2773692,9e-08,0.0,0.0,0.0,9e-08,0.0,0.0,0.0,9e-08
1538769562415912704,1514,1538769562415294624,base_link,-0.0505194763982,0.052693381248,0.374256819336,-0.924447415085,1.0,0.0,0.0,0.0,1.0,0.0,0.0,0.0,1.0,-0.38447740674,0.00548972375691,0.0611102245748,1.21846967915e-07,0.0,0.0,0.0,1.21846967915e-07,0.0,0.0,0.0,1.21846967915e-07,0.1176798,0.3726527,10.4735022,9e-08,0.0,0.0,0.0,9e-08,0.0,0.0,0.0,9e-08
1538769562883287040,1515,1538769562882764128,base_link,0.0295094721159,0.00688827513864,0.386946554437,-0.921604094354,1.0,0.0,0.0,0.0,1.0,0.0,0.0,0.0,1.0,-0.105113372207,0.100606352091,-0.0899009183049,1.21846967915e-07,0.0,0.0,0.0,1.21846967915e-07,0.0,0.0,0.0,1.21846967915e-07,-0.12748645,0.5099458,8.7867584,9e-08,0.0,0.0,0.0,9e-08,0.0,0.0,0.0,9e-08
1538769563327535328,1516,1538769563325942720,base_link,0.0277254898446,-0.0096055406548,0.394499005506,-0.91842776823,1.0,0.0,0.0,0.0,1.0,0.0,0.0,0.0,1.0,0.000351558439434,0.056977674365,0.0626968294382,1.21846967915e-07,0.0,0.0,0.0,1.21846967915e-07,0.0,0.0,0.0,1.21846967915e-07,-0.2353596,0.1176798,7.5315072,9e-08,0.0,0.0,0.0,9e-08,0.0,0.0,0.0,9e-08
1538769563817963776,1517,1538769563817424448,base_link,0.0266961555324,-0.0259193424465,0.371045051463,-0.927869103242,1.0,0.0,0.0,0.0,1.0,0.0,0.0,0.0,1.0,0.00195329077542,0.0643736869097,0.0576727353036,1.21846967915e-07,0.0,0.0,0.0,1.21846967915e-07,0.0,0.0,0.0,1.21846967915e-07,-0.18632635,0.5687857,8.89463155,9e-08,0.0,0.0,0.0,9e-08,0.0,0.0,0.0,9e-08
1538769564164544416,1518,1538769564164151328,base_link,0.016830669841,-0.0343464312945,0.363632127151,-0.930757072127,1.0,0.0,0.0,0.0,1.0,0.0,0.0,0.0,1.0,0.0220989361405,0.0651802197099,0.0469814613461,1.21846967915e-07,0.0,0.0,0.0,1.21846967915e-07,0.0,0.0,0.0,1.21846967915e-07,-0.24516625,0.42168595,8.24739265,9e-08,0.0,0.0,0.0,9e-08,0.0,0.0,0.0,9e-08
1538769564661318432,1519,1538769564661039552,base_link,-0.00525021642269,-0.0299661446126,0.349277861404,-0.936525195036,1.0,0.0,0.0,0.0,1.0,0.0,0.0,0.0,1.0,0.211948946118,-0.00230093835853,0.135526776314,1.21846967915e-07,0.0,0.0,0.0,1.21846967915e-07,0.0,0.0,0.0,1.21846967915e-07,-0.04903325,0.5687857,10.198916,9e-08,0.0,0.0,0.0,9e-08,0.0,0.0,0.0,9e-08
1538769565112420704,1520,1538769565111605856,base_link,-0.0265096851177,-0.0159551923269,0.323644434662,-0.945672749076,1.0,0.0,0.0,0.0,1.0,0.0,0.0,0.0,1.0,0.076075270772,-0.00453551020473,0.109602987766,1.21846967915e-07,0.0,0.0,0.0,1.21846967915e-07,0.0,0.0,0.0,1.21846967915e-07,-0.06864655,0.53936575,10.89518815,9e-08,0.0,0.0,0.0,9e-08,0.0,0.0,0.0,9e-08
1538769565497219264,1521,1538769565497010816,base_link,-0.0300393369693,-0.0138585506011,0.32179106203,-0.946232577756,1.0,0.0,0.0,0.0,1.0,0.0,0.0,0.0,1.0,0.0365512780845,0.00293716043234,-0.0619299523532,1.21846967915e-07,0.0,0.0,0.0,1.21846967915e-07,0.0,0.0,0.0,1.21846967915e-07,0.06864655,0.48052585,10.48330885,9e-08,0.0,0.0,0.0,9e-08,0.0,0.0,0.0,9e-08
1538769565835049120,1522,1538769565832275456,base_link,-0.049878976106,-0.00287677742425,0.324082861784,-0.944708479157,1.0,0.0,0.0,0.0,1.0,0.0,0.0,0.0,1.0,0.0654163062572,-0.00647507514805,0.0572695024312,1.21846967915e-07,0.0,0.0,0.0,1.21846967915e-07,0.0,0.0,0.0,1.21846967915e-07,0.2941995,0.40207265,13.4351105,9e-08,0.0,0.0,0.0,9e-08,0.0,0.0,0.0,9e-08
1538769566290064448,1523,1538769566289072832,base_link,-0.0309392665466,-0.0100075677287,0.323810916619,-0.9455628486,1.0,0.0,0.0,0.0,1.0,0.0,0.0,0.0,1.0,-0.00888677593321,0.030442437157,-0.029783975333,1.21846967915e-07,0.0,0.0,0.0,1.21846967915e-07,0.0,0.0,0.0,1.21846967915e-07,-0.18632635,0.40207265,9.34573745,9e-08,0.0,0.0,0.0,9e-08,0.0,0.0,0.0,9e-08
1538769566738525792,1524,1538769566738247488,base_link,-0.000583660011797,-0.0229379325158,0.324371105694,-0.945651572401,1.0,0.0,0.0,0.0,1.0,0.0,0.0,0.0,1.0,-0.154848799109,0.0302172377706,-0.0382270887494,1.21846967915e-07,0.0,0.0,0.0,1.21846967915e-07,0.0,0.0,0.0,1.21846967915e-07,-0.1765197,0.588399,8.1002929,9e-08,0.0,0.0,0.0,9e-08,0.0,0.0,0.0,9e-08
1538769567079014400,1525,1538769567078797664,base_link,-0.0161190849988,-0.0194128028587,0.333740718287,-0.942327146559,1.0,0.0,0.0,0.0,1.0,0.0,0.0,0.0,1.0,0.183457374573,0.0221344605088,-0.0417563281953,1.21846967915e-07,0.0,0.0,0.0,1.21846967915e-07,0.0,0.0,0.0,1.21846967915e-07,-0.0196133,0.50013915,9.30651085,9e-08,0.0,0.0,0.0,9e-08,0.0,0.0,0.0,9e-08
1538769567504997312,1526,1538769567504793568,base_link,-0.0407423759743,-0.0149080324386,0.333374972287,-0.941795592059,1.0,0.0,0.0,0.0,1.0,0.0,0.0,0.0,1.0,0.046677198261,0.0318976156414,0.0124593311921,1.21846967915e-07,0.0,0.0,0.0,1.21846967915e-07,0.0,0.0,0.0,1.21846967915e-07,0.18632635,0.5687857,9.65955025,9e-08,0.0,0.0,0.0,9e-08,0.0,0.0,0.0,9e-08
1538769567867252800,1527,1538769567866900416,base_link,-0.0493948361971,-0.0143006720674,0.337835915209,-0.939799199473,1.0,0.0,0.0,0.0,1.0,0.0,0.0,0.0,1.0,0.0182124711573,-0.0105298813432,-0.0402876101434,1.21846967915e-07,0.0,0.0,0.0,1.21846967915e-07,0.0,0.0,0.0,1.21846967915e-07,0.16671305,0.5099458,10.22833595,9e-08,0.0,0.0,0.0,9e-08,0.0,0.0,0.0,9e-08
1538769568216427040,1528,1538769568215804032,base_link,-0.0503623620499,-0.0122391191302,0.34328599228,-0.937799852824,1.0,0.0,0.0,0.0,1.0,0.0,0.0,0.0,1.0,-0.0653570592403,-0.0318675488234,-0.0670730471611,1.21846967915e-07,0.0,0.0,0.0,1.21846967915e-07,0.0,0.0,0.0,1.21846967915e-07,0.0588399,0.55897905,9.91452315,9e-08,0.0,0.0,0.0,9e-08,0.0,0.0,0.0,9e-08
1538769568658718400,1529,1538769568658464640,base_link,-0.0406477099902,-0.00370693032133,0.346472620765,-0.937171673388,1.0,0.0,0.0,0.0,1.0,0.0,0.0,0.0,1.0,-0.00424322579056,-0.0709562152624,0.0135097512975,1.21846967915e-07,0.0,0.0,0.0,1.21846967915e-07,0.0,0.0,0.0,1.21846967915e-07,0.28439285,0.40207265,11.26784085,9e-08,0.0,0.0,0.0,9e-08,0.0,0.0,0.0,9e-08
1538769568991304704,1530,1538769568990891872,base_link,-0.0363797668512,0.00815915187311,0.343655122005,-0.938355528531,1.0,0.0,0.0,0.0,1.0,0.0,0.0,0.0,1.0,0.00653344299644,-0.0664868652821,0.0422939620912,1.21846967915e-07,0.0,0.0,0.0,1.21846967915e-07,0.0,0.0,0.0,1.21846967915e-07,0.2941995,0.4511059,11.85623985,9e-08,0.0,0.0,0.0,9e-08,0.0,0.0,0.0,9e-08
1538769569405716480,1531,1538769569405352608,base_link,-0.0249994344898,0.0151295408969,0.339123032264,-0.940288091095,1.0,0.0,0.0,0.0,1.0,0.0,0.0,0.0,1.0,-0.0288090519607,-0.0206506196409,0.0271222777665,1.21846967915e-07,0.0,0.0,0.0,1.21846967915e-07,0.0,0.0,0.0,1.21846967915e-07,0.22555295,0.588399,10.85596155,9e-08,0.0,0.0,0.0,9e-08,0.0,0.0,0.0,9e-08
1538769569722549792,1532,1538769569722353824,base_link,-0.0206641435002,0.0174181853417,0.337711362594,-0.940861645285,1.0,0.0,0.0,0.0,1.0,0.0,0.0,0.0,1.0,0.033893276006,-0.0141986943781,-0.0257646944374,1.21846967915e-07,0.0,0.0,0.0,1.21846967915e-07,0.0,0.0,0.0,1.21846967915e-07,0.12748645,0.6080123,10.0223963,9e-08,0.0,0.0,0.0,9e-08,0.0,0.0,0.0,9e-08
1538769570196536608,1533,1538769570196251936,base_link,-0.0172199565114,0.019467297965,0.345254720957,-0.93814906868,1.0,0.0,0.0,0.0,1.0,0.0,0.0,0.0,1.0,0.0486075431108,0.016557732597,-0.00790344271809,1.21846967915e-07,0.0,0.0,0.0,1.21846967915e-07,0.0,0.0,0.0,1.21846967915e-07,0.2157463,0.2157463,10.09104285,9e-08,0.0,0.0,0.0,9e-08,0.0,0.0,0.0,9e-08
1538769570560529440,1534,1538769570560221760,base_link,-0.0357481448567,0.0253462955331,0.333894435683,-0.941591281429,1.0,0.0,0.0,0.0,1.0,0.0,0.0,0.0,1.0,0.125848501921,0.0110995899886,0.0875512808561,1.21846967915e-07,0.0,0.0,0.0,1.21846967915e-07,0.0,0.0,0.0,1.21846967915e-07,0.2745862,0.30400615,9.9243298,9e-08,0.0,0.0,0.0,9e-08,0.0,0.0,0.0,9e-08
1538769570919833888,1535,1538769570919508544,base_link,-0.0382436925259,0.0222037721589,0.3199870019,-0.94638931265,1.0,0.0,0.0,0.0,1.0,0.0,0.0,0.0,1.0,-0.0268576145172,0.0464209206402,0.0354718081653,1.21846967915e-07,0.0,0.0,0.0,1.21846967915e-07,0.0,0.0,0.0,1.21846967915e-07,0.24516625,0.67665885,9.93413645,9e-08,0.0,0.0,0.0,9e-08,0.0,0.0,0.0,9e-08
1538769571277398048,1536,1538769571276566880,base_link,-0.0403979927307,0.0141337662029,0.322655055796,-0.94554849363,1.0,0.0,0.0,0.0,1.0,0.0,0.0,0.0,1.0,0.0301929805428,0.047759309411,-0.0450118593872,1.21846967915e-07,0.0,0.0,0.0,1.21846967915e-07,0.0,0.0,0.0,1.21846967915e-07,0.22555295,0.59820565,9.3555441,9e-08,0.0,0.0,0.0,9e-08,0.0,0.0,0.0,9e-08
1538769571716522432,1537,1538769571716245088,base_link,0.0552318033511,-0.021703484384,0.321493470369,-0.945050451126,1.0,0.0,0.0,0.0,1.0,0.0,0.0,0.0,1.0,-1.09052360058,-0.0378736332059,0.110783398151,1.21846967915e-07,0.0,0.0,0.0,1.21846967915e-07,0.0,0.0,0.0,1.21846967915e-07,0.2157463,0.30400615,9.97336305,9e-08,0.0,0.0,0.0,9e-08,0.0,0.0,0.0,9e-08
1538769572172959680,1538,1538769572172252288,base_link,0.237627299665,-0.0739907845165,0.269729911665,-0.930217396641,1.0,0.0,0.0,0.0,1.0,0.0,0.0,0.0,1.0,-0.512026131153,-0.116840109229,0.230526506901,1.21846967915e-07,0.0,0.0,0.0,1.21846967915e-07,0.0,0.0,0.0,1.21846967915e-07,0.3334261,0.08825985,10.0223963,9e-08,0.0,0.0,0.0,9e-08,0.0,0.0,0.0,9e-08
1538769572585496288,1539,1538769572584249376,base_link,0.312837822983,-0.0742309944344,0.196698686509,-0.926246124258,1.0,0.0,0.0,0.0,1.0,0.0,0.0,0.0,1.0,-0.309843569994,-0.255929738283,0.366196841002,1.21846967915e-07,0.0,0.0,0.0,1.21846967915e-07,0.0,0.0,0.0,1.21846967915e-07,0.6080123,-0.02941995,11.15016105,9e-08,0.0,0.0,0.0,9e-08,0.0,0.0,0.0,9e-08
1538769573003138816,1540,1538769573002841472,base_link,0.359999581183,-0.049635192514,0.0952615144621,-0.92674802027,1.0,0.0,0.0,0.0,1.0,0.0,0.0,0.0,1.0,-0.133734256029,-0.380830824375,0.409602880478,1.21846967915e-07,0.0,0.0,0.0,1.21846967915e-07,0.0,0.0,0.0,1.21846967915e-07,0.8825985,0.1372931,12.69961175,9e-08,0.0,0.0,0.0,9e-08,0.0,0.0,0.0,9e-08
1538769573451595168,1541,1538769573451158112,base_link,0.400877577709,0.00920573957938,-0.0183577425287,-0.915901422282,1.0,0.0,0.0,0.0,1.0,0.0,0.0,0.0,1.0,-0.0968038737774,-0.472083240747,0.362722933292,1.21846967915e-07,0.0,0.0,0.0,1.21846967915e-07,0.0,0.0,0.0,1.21846967915e-07,1.4317709,-0.10787315,15.19050085,9e-08,0.0,0.0,0.0,9e-08,0.0,0.0,0.0,9e-08
1538769573891567008,1542,1538769573891287424,base_link,0.39262365302,0.0718628295033,-0.159499037031,-0.90290777935,1.0,0.0,0.0,0.0,1.0,0.0,0.0,0.0,1.0,0.273704499006,-0.538791596889,0.474742740393,1.21846967915e-07,0.0,0.0,0.0,1.21846967915e-07,0.0,0.0,0.0,1.21846967915e-07,2.02997655,0.16671305,16.7105316,9e-08,0.0,0.0,0.0,9e-08,0.0,0.0,0.0,9e-08
1538769574279786752,1543,1538769574279545952,base_link,0.294151550778,0.113939839437,-0.272709428116,-0.908912617352,1.0,0.0,0.0,0.0,1.0,0.0,0.0,0.0,1.0,0.547902703285,-0.477877646685,0.352491021156,1.21846967915e-07,0.0,0.0,0.0,1.21846967915e-07,0.0,0.0,0.0,1.21846967915e-07,1.69655045,0.5491724,17.19105745,9e-08,0.0,0.0,0.0,9e-08,0.0,0.0,0.0,9e-08
1538769574558011520,1544,1538769574557673696,base_link,0.187256383315,0.124529790783,-0.333551070272,-0.915516827609,1.0,0.0,0.0,0.0,1.0,0.0,0.0,0.0,1.0,0.839814066887,-0.31893658638,0.199946895242,1.21846967915e-07,0.0,0.0,0.0,1.21846967915e-07,0.0,0.0,0.0,1.21846967915e-07,1.1964113,0.51975245,15.99464615,9e-08,0.0,0.0,0.0,9e-08,0.0,0.0,0.0,9e-08
1538769574871663360,1545,1538769574870729888,base_link,0.0627161301705,0.113505571986,-0.384481703475,-0.913978660493,1.0,0.0,0.0,0.0,1.0,0.0,0.0,0.0,1.0,0.747513473034,-0.177980035543,0.193329408765,1.21846967915e-07,0.0,0.0,0.0,1.21846967915e-07,0.0,0.0,0.0,1.21846967915e-07,1.01008495,0.63743225,16.17116585,9e-08,0.0,0.0,0.0,9e-08,0.0,0.0,0.0,9e-08
1538769575346712064,1546,1538769575346486560,base_link,-0.0767536335504,0.0625180597243,-0.428725728704,-0.897994778098,1.0,0.0,0.0,0.0,1.0,0.0,0.0,0.0,1.0,0.463045686483,0.0224946737289,-0.0102816559374,1.21846967915e-07,0.0,0.0,0.0,1.21846967915e-07,0.0,0.0,0.0,1.21846967915e-07,0.1569064,0.8237586,11.2580342,9e-08,0.0,0.0,0.0,9e-08,0.0,0.0,0.0,9e-08
1538769575799853824,1547,1538769575799614016,base_link,-0.161202075174,0.00301872383713,-0.41265557532,-0.89650440848,1.0,0.0,0.0,0.0,1.0,0.0,0.0,0.0,1.0,0.366946399212,0.0835128724575,-0.172195345163,1.21846967915e-07,0.0,0.0,0.0,1.21846967915e-07,0.0,0.0,0.0,1.21846967915e-07,-0.14709975,0.59820565,8.40429905,9e-08,0.0,0.0,0.0,9e-08,0.0,0.0,0.0,9e-08
1538769576161276000,1548,1538769576161057216,base_link,-0.187358795575,-0.0331564415244,-0.398023792569,-0.897426538863,1.0,0.0,0.0,0.0,1.0,0.0,0.0,0.0,1.0,0.0321382954717,0.0987113118172,-0.111369863153,1.21846967915e-07,0.0,0.0,0.0,1.21846967915e-07,0.0,0.0,0.0,1.21846967915e-07,-0.2353596,0.65704555,6.8058151,9e-08,0.0,0.0,0.0,9e-08,0.0,0.0,0.0,9e-08
1538769576500688896,1549,1538769576500302912,base_link,-0.165884919856,-0.0553364425436,-0.37302002832,-0.911194891317,1.0,0.0,0.0,0.0,1.0,0.0,0.0,0.0,1.0,-0.0974581390619,0.125290557742,-0.230398520827,1.21846967915e-07,0.0,0.0,0.0,1.21846967915e-07,0.0,0.0,0.0,1.21846967915e-07,-0.30400615,0.55897905,6.40374245,9e-08,0.0,0.0,0.0,9e-08,0.0,0.0,0.0,9e-08
1538769576812610816,1550,1538769576812342656,base_link,-0.157248921382,-0.073083084975,-0.349260874656,-0.920841181121,1.0,0.0,0.0,0.0,1.0,0.0,0.0,0.0,1.0,-0.0376296527684,0.0263770930469,-0.139823034406,1.21846967915e-07,0.0,0.0,0.0,1.21846967915e-07,0.0,0.0,0.0,1.21846967915e-07,-0.32361945,0.3138128,6.0408964,9e-08,0.0,0.0,0.0,9e-08,0.0,0.0,0.0,9e-08
1538769577328999904,1551,1538769577327630080,base_link,-0.08831139855,-0.0515231741574,-0.342033773202,-0.934108857361,1.0,0.0,0.0,0.0,1.0,0.0,0.0,0.0,1.0,-0.540967643261,0.0294347852468,-0.048302423209,1.21846967915e-07,0.0,0.0,0.0,1.21846967915e-07,0.0,0.0,0.0,1.21846967915e-07,-0.2353596,0.7453054,9.9047165,9e-08,0.0,0.0,0.0,9e-08,0.0,0.0,0.0,9e-08
1538769577811913792,1552,1538769577804503872,base_link,-0.00066031425272,-0.0291648991849,-0.334512275648,-0.941939759263,1.0,0.0,0.0,0.0,1.0,0.0,0.0,0.0,1.0,-0.213957607746,0.0328485481441,-0.039821844548,1.21846967915e-07,0.0,0.0,0.0,1.21846967915e-07,0.0,0.0,0.0,1.21846967915e-07,-0.196133,0.59820565,8.91424485,9e-08,0.0,0.0,0.0,9e-08,0.0,0.0,0.0,9e-08
1538769578256828864,1553,1538769578256274048,base_link,0.0319554102745,-0.0158979925131,-0.33640231799,-0.941041755736,1.0,0.0,0.0,0.0,1.0,0.0,0.0,0.0,1.0,-0.0958704128861,-0.0495047830045,0.0567731522024,1.21846967915e-07,0.0,0.0,0.0,1.21846967915e-07,0.0,0.0,0.0,1.21846967915e-07,-0.1765197,0.1569064,10.77750835,9e-08,0.0,0.0,0.0,9e-08,0.0,0.0,0.0,9e-08
1538769578609233728,1554,1538769578608652544,base_link,0.042718912756,-0.00376157543205,-0.355666553375,-0.933628538474,1.0,0.0,0.0,0.0,1.0,0.0,0.0,0.0,1.0,-0.0824940949678,-0.0497146546841,0.137643009424,1.21846967915e-07,0.0,0.0,0.0,1.21846967915e-07,0.0,0.0,0.0,1.21846967915e-07,-0.0980665,0.392266,10.79712165,9e-08,0.0,0.0,0.0,9e-08,0.0,0.0,0.0,9e-08
1538769578895038592,1555,1538769578894627968,base_link,0.048612137809,0.00383962961459,-0.367110036916,-0.928898454137,1.0,0.0,0.0,0.0,1.0,0.0,0.0,0.0,1.0,-0.040166862309,-0.0486071035266,0.0555479377508,1.21846967915e-07,0.0,0.0,0.0,1.21846967915e-07,0.0,0.0,0.0,1.21846967915e-07,-0.0784532,0.42168595,10.2577559,9e-08,0.0,0.0,0.0,9e-08,0.0,0.0,0.0,9e-08
1538769579317349024,1556,1538769579315065472,base_link,0.0426437615034,0.0110358678681,-0.379358193171,-0.924200779322,1.0,0.0,0.0,0.0,1.0,0.0,0.0,0.0,1.0,0.103330999613,-0.038634788245,0.0852377563715,1.21846967915e-07,0.0,0.0,0.0,1.21846967915e-07,0.0,0.0,0.0,1.21846967915e-07,0.02941995,0.22555295,10.79712165,9e-08,0.0,0.0,0.0,9e-08,0.0,0.0,0.0,9e-08
1538769579757732864,1557,1538769579757537632,base_link,0.0175712769088,0.000712291053544,-0.397783799498,-0.917310629899,1.0,0.0,0.0,0.0,1.0,0.0,0.0,0.0,1.0,0.0819082260132,-0.00243811495602,0.0622976049781,1.21846967915e-07,0.0,0.0,0.0,1.21846967915e-07,0.0,0.0,0.0,1.21846967915e-07,-0.0588399,0.20593965,10.20872265,9e-08,0.0,0.0,0.0,9e-08,0.0,0.0,0.0,9e-08
1538769580108542560,1558,1538769580108221728,base_link,0.00110741102561,-0.00633112299846,-0.404363564881,-0.914575747502,1.0,0.0,0.0,0.0,1.0,0.0,0.0,0.0,1.0,0.12921884656,-0.00408231187612,0.0482704155147,1.21846967915e-07,0.0,0.0,0.0,1.21846967915e-07,0.0,0.0,0.0,1.21846967915e-07,-0.0392266,0.3138128,10.4342756,9e-08,0.0,0.0,0.0,9e-08,0.0,0.0,0.0,9e-08
1538769580511862336,1559,1538769580511646624,base_link,-0.0146957403935,-0.0141627003392,-0.412701867983,-0.910637480722,1.0,0.0,0.0,0.0,1.0,0.0,0.0,0.0,1.0,0.0610088221729,0.00497562810779,0.0377743132412,1.21846967915e-07,0.0,0.0,0.0,1.21846967915e-07,0.0,0.0,0.0,1.21846967915e-07,-0.0784532,0.5099458,9.7478101,9e-08,0.0,0.0,0.0,9e-08,0.0,0.0,0.0,9e-08
1538769580933962112,1560,1538769580933527072,base_link,-0.0292510221188,-0.0193126514569,-0.409875836378,-0.911467606639,1.0,0.0,0.0,0.0,1.0,0.0,0.0,0.0,1.0,0.0698486045003,-0.033050339669,-0.010849121958,1.21846967915e-07,0.0,0.0,0.0,1.21846967915e-07,0.0,0.0,0.0,1.21846967915e-07,-0.0588399,0.26477955,11.6699135,9e-08,0.0,0.0,0.0,9e-08,0.0,0.0,0.0,9e-08
