%time,field.header.seq,field.header.stamp,field.header.frame_id,field.orientation.x,field.orientation.y,field.orientation.z,field.orientation.w,field.orientation_covariance0,field.orientation_covariance1,field.orientation_covariance2,field.orientation_covariance3,field.orientation_covariance4,field.orientation_covariance5,field.orientation_covariance6,field.orientation_covariance7,field.orientation_covariance8,field.angular_velocity.x,field.angular_velocity.y,field.angular_velocity.z,field.angular_velocity_covariance0,field.angular_velocity_covariance1,field.angular_velocity_covariance2,field.angular_velocity_covariance3,field.angular_velocity_covariance4,field.angular_velocity_covariance5,field.angular_velocity_covariance6,field.angular_velocity_covariance7,field.angular_velocity_covariance8,field.linear_acceleration.x,field.linear_acceleration.y,field.linear_acceleration.z,field.linear_acceleration_covariance0,field.linear_acceleration_covariance1,field.linear_acceleration_covariance2,field.linear_acceleration_covariance3,field.linear_acceleration_covariance4,field.linear_acceleration_covariance5,field.linear_acceleration_covariance6,field.linear_acceleration_covariance7,field.linear_acceleration_covariance8
1536691717865668216,1351,1536691717861806904,base_link,0.0223078962353,0.0158096294537,-0.997505765699,-0.0650742712604,1.0,0.0,0.0,0.0,1.0,0.0,0.0,0.0,1.0,-0.209915474057,-0.0164986513555,0.0237818416208,1.21846967915e-07,0.0,0.0,0.0,1.21846967915e-07,0.0,0.0,0.0,1.21846967915e-07,-0.00980665,0.5295591,10.3165958,9e-08,0.0,0.0,0.0,9e-08,0.0,0.0,0.0,9e-08
1536691718267119640,1352,1536691718266740504,base_link,0.00879865200066,-0.0114654164907,-0.998124609363,-0.0594843856109,1.0,0.0,0.0,0.0,1.0,0.0,0.0,0.0,1.0,0.648256719112,-0.0681782439351,0.0355644673109,1.21846967915e-07,0.0,0.0,0.0,1.21846967915e-07,0.0,0.0,0.0,1.21846967915e-07,0.57859235,0.38245935,11.20900095,9e-08,0.0,0.0,0.0,9e-08,0.0,0.0,0.0,9e-08
1536691718663150328,1353,1536691718662690904,base_link,-0.0112323198922,-0.130331885455,-0.990133956421,-0.0502213397541,1.0,0.0,0.0,0.0,1.0,0.0,0.0,0.0,1.0,0.513216972351,-0.0641711875796,0.00126573326997,1.21846967915e-07,0.0,0.0,0.0,1.21846967915e-07,0.0,0.0,0.0,1.21846967915e-07,0.4903325,0.91201845,10.6500219,9e-08,0.0,0.0,0.0,9e-08,0.0,0.0,0.0,9e-08
1536691719083969944,1354,1536691719082990776,base_link,-0.0224320113931,-0.221095957653,-0.97247122336,-0.070093524026,1.0,0.0,0.0,0.0,1.0,0.0,0.0,0.0,1.0,0.4147990942,-0.0461380556226,-0.184856235981,1.21846967915e-07,0.0,0.0,0.0,1.21846967915e-07,0.0,0.0,0.0,1.21846967915e-07,0.5099458,0.75511205,10.48330885,9e-08,0.0,0.0,0.0,9e-08,0.0,0.0,0.0,9e-08
1536691719501963352,1355,1536691719500664664,base_link,-0.0369597110929,-0.296266117466,-0.946412662903,-0.123139915926,1.0,0.0,0.0,0.0,1.0,0.0,0.0,0.0,1.0,0.399470716715,-0.151774913073,-0.27450081706,1.21846967915e-07,0.0,0.0,0.0,1.21846967915e-07,0.0,0.0,0.0,1.21846967915e-07,0.6472389,0.7649187,10.1793027,9e-08,0.0,0.0,0.0,9e-08,0.0,0.0,0.0,9e-08
1536691719891437240,1356,1536691719890813624,base_link,-0.0693236831334,-0.345726146469,-0.917801810496,-0.182503411626,1.0,0.0,0.0,0.0,1.0,0.0,0.0,0.0,1.0,0.171776279807,-0.286345273256,-0.269716948271,1.21846967915e-07,0.0,0.0,0.0,1.21846967915e-07,0.0,0.0,0.0,1.21846967915e-07,0.97085835,0.8433719,12.05237285,9e-08,0.0,0.0,0.0,9e-08,0.0,0.0,0.0,9e-08
1536691720211487000,1357,1536691720211192312,base_link,-0.103229767892,-0.35545004122,-0.897307926464,-0.240494008914,1.0,0.0,0.0,0.0,1.0,0.0,0.0,0.0,1.0,0.0578941777349,-0.324718177319,-0.301537424326,1.21846967915e-07,0.0,0.0,0.0,1.21846967915e-07,0.0,0.0,0.0,1.21846967915e-07,1.3140911,1.04931155,13.64105015,9e-08,0.0,0.0,0.0,9e-08,0.0,0.0,0.0,9e-08
1536691720487939672,1358,1536691720487614328,base_link,-0.130108877674,-0.354681632723,-0.877682954205,-0.294864801658,1.0,0.0,0.0,0.0,1.0,0.0,0.0,0.0,1.0,0.0396534055471,-0.314111560583,-0.321904063225,1.21846967915e-07,0.0,0.0,0.0,1.21846967915e-07,0.0,0.0,0.0,1.21846967915e-07,1.50041745,1.0395049,13.09187775,9e-08,0.0,0.0,0.0,9e-08,0.0,0.0,0.0,9e-08
1536691720902331480,1359,1536691720902134296,base_link,-0.174247103612,-0.345551381701,-0.840873622019,-0.378369847214,1.0,0.0,0.0,0.0,1.0,0.0,0.0,0.0,1.0,-0.0277546681464,-0.366693079472,-0.291063785553,1.21846967915e-07,0.0,0.0,0.0,1.21846967915e-07,0.0,0.0,0.0,1.21846967915e-07,1.53964405,1.18660465,13.85679645,9e-08,0.0,0.0,0.0,9e-08,0.0,0.0,0.0,9e-08
1536691721390650040,1360,1536691721390429976,base_link,-0.220405549769,-0.315790296092,-0.792814500774,-0.472380196333,1.0,0.0,0.0,0.0,1.0,0.0,0.0,0.0,1.0,-0.0295426622033,-0.365468889475,-0.325507134199,1.21846967915e-07,0.0,0.0,0.0,1.21846967915e-07,0.0,0.0,0.0,1.21846967915e-07,1.6279039,1.06892485,14.5726819,9e-08,0.0,0.0,0.0,9e-08,0.0,0.0,0.0,9e-08
1536691721748991000,1361,1536691721748766840,base_link,-0.259821364379,-0.295061445638,-0.746199440621,-0.537231790503,1.0,0.0,0.0,0.0,1.0,0.0,0.0,0.0,1.0,-0.0104504190385,-0.362913578749,-0.283028244972,1.21846967915e-07,0.0,0.0,0.0,1.21846967915e-07,0.0,0.0,0.0,1.21846967915e-07,1.63771055,1.18660465,14.4550021,9e-08,0.0,0.0,0.0,9e-08,0.0,0.0,0.0,9e-08
1536691722122540952,1362,1536691722122273048,base_link,-0.291913524668,-0.271347813735,-0.694216089307,-0.5993503812,1.0,0.0,0.0,0.0,1.0,0.0,0.0,0.0,1.0,-0.0348664969206,-0.322220921516,-0.325449973345,1.21846967915e-07,0.0,0.0,0.0,1.21846967915e-07,0.0,0.0,0.0,1.21846967915e-07,1.65732385,1.02969825,13.89602305,9e-08,0.0,0.0,0.0,9e-08,0.0,0.0,0.0,9e-08
1536691722477833368,1363,1536691722476403096,base_link,-0.31466676924,-0.249311331952,-0.638017051533,-0.657086695992,1.0,0.0,0.0,0.0,1.0,0.0,0.0,0.0,1.0,-0.0164304897189,-0.32031917572,-0.339701026678,1.21846967915e-07,0.0,0.0,0.0,1.21846967915e-07,0.0,0.0,0.0,1.21846967915e-07,1.22583125,1.22583125,13.07226445,9e-08,0.0,0.0,0.0,9e-08,0.0,0.0,0.0,9e-08
1536691722845337592,1364,1536691722845036184,base_link,-0.337383204872,-0.226116705226,-0.576060226282,-0.709364803457,1.0,0.0,0.0,0.0,1.0,0.0,0.0,0.0,1.0,-0.0241860188544,-0.332815974951,-0.329916864634,1.21846967915e-07,0.0,0.0,0.0,1.21846967915e-07,0.0,0.0,0.0,1.21846967915e-07,1.10815145,0.93163175,13.1605243,9e-08,0.0,0.0,0.0,9e-08,0.0,0.0,0.0,9e-08
1536691723261212568,1365,1536691723260959928,base_link,-0.360324968608,-0.191254414621,-0.500809475689,-0.76339867366,1.0,0.0,0.0,0.0,1.0,0.0,0.0,0.0,1.0,-0.0526421070099,-0.346198171377,-0.316672831774,1.21846967915e-07,0.0,0.0,0.0,1.21846967915e-07,0.0,0.0,0.0,1.21846967915e-07,0.93163175,1.06892485,13.42530385,9e-08,0.0,0.0,0.0,9e-08,0.0,0.0,0.0,9e-08
1536691723567916024,1366,1536691723567537080,base_link,-0.37092012255,-0.165513699788,-0.444155724376,-0.79859199243,1.0,0.0,0.0,0.0,1.0,0.0,0.0,0.0,1.0,-0.0418046191335,-0.303687900305,-0.330106943846,1.21846967915e-07,0.0,0.0,0.0,1.21846967915e-07,0.0,0.0,0.0,1.21846967915e-07,0.8825985,0.9414384,13.2585908,9e-08,0.0,0.0,0.0,9e-08,0.0,0.0,0.0,9e-08
1536691724001643512,1367,1536691723999577080,base_link,-0.379531959956,-0.132046399485,-0.364557527585,-0.840010148056,1.0,0.0,0.0,0.0,1.0,0.0,0.0,0.0,1.0,-0.0671457648277,-0.299638241529,-0.318446606398,1.21846967915e-07,0.0,0.0,0.0,1.21846967915e-07,0.0,0.0,0.0,1.21846967915e-07,0.79433865,0.75511205,13.09187775,9e-08,0.0,0.0,0.0,9e-08,0.0,0.0,0.0,9e-08
1536691724453185816,1368,1536691724452936216,base_link,-0.387480035791,-0.0953006331885,-0.26946722372,-0.876449899605,1.0,0.0,0.0,0.0,1.0,0.0,0.0,0.0,1.0,0.0378199219704,-0.298922181129,-0.327001184225,1.21846967915e-07,0.0,0.0,0.0,1.21846967915e-07,0.0,0.0,0.0,1.21846967915e-07,0.4118793,0.83356525,12.5721253,9e-08,0.0,0.0,0.0,9e-08,0.0,0.0,0.0,9e-08
1536691724774766552,1369,1536691724773710392,base_link,-0.395151817913,-0.0711106206097,-0.204836377312,-0.892659161699,1.0,0.0,0.0,0.0,1.0,0.0,0.0,0.0,1.0,-0.0717221796513,-0.314542979002,-0.311718016863,1.21846967915e-07,0.0,0.0,0.0,1.21846967915e-07,0.0,0.0,0.0,1.21846967915e-07,0.3530394,0.9022118,12.48386545,9e-08,0.0,0.0,0.0,9e-08,0.0,0.0,0.0,9e-08
1536691725120258936,1370,1536691725119992056,base_link,-0.391240726907,-0.0450136526935,-0.134247102301,-0.909330622054,1.0,0.0,0.0,0.0,1.0,0.0,0.0,0.0,1.0,-0.0501559078693,-0.297345012426,-0.365527302027,1.21846967915e-07,0.0,0.0,0.0,1.21846967915e-07,0.0,0.0,0.0,1.21846967915e-07,0.38245935,0.91201845,12.4740588,9e-08,0.0,0.0,0.0,9e-08,0.0,0.0,0.0,9e-08
1536691725643238904,1371,1536691725642917592,base_link,-0.396974261874,-0.00300774449608,-0.0249280737254,-0.917486228792,1.0,0.0,0.0,0.0,1.0,0.0,0.0,0.0,1.0,-0.017619241029,-0.311712801456,-0.310378730297,1.21846967915e-07,0.0,0.0,0.0,1.21846967915e-07,0.0,0.0,0.0,1.21846967915e-07,0.48052585,0.73549875,13.15071765,9e-08,0.0,0.0,0.0,9e-08,0.0,0.0,0.0,9e-08
1536691725974397240,1372,1536691725974122904,base_link,-0.397390977326,0.0251675565165,0.0451427996805,-0.916192737843,1.0,0.0,0.0,0.0,1.0,0.0,0.0,0.0,1.0,-0.0440320670605,-0.307745873928,-0.317334085703,1.21846967915e-07,0.0,0.0,0.0,1.21846967915e-07,0.0,0.0,0.0,1.21846967915e-07,0.4511059,1.06892485,13.32723735,9e-08,0.0,0.0,0.0,9e-08,0.0,0.0,0.0,9e-08
1536691726458296856,1373,1536691726458020632,base_link,-0.390934919792,0.0619621193735,0.144617471289,-0.906871750166,1.0,0.0,0.0,0.0,1.0,0.0,0.0,0.0,1.0,-0.028434664011,-0.313798725605,-0.322367727757,1.21846967915e-07,0.0,0.0,0.0,1.21846967915e-07,0.0,0.0,0.0,1.21846967915e-07,0.4511059,0.93163175,13.87640975,9e-08,0.0,0.0,0.0,9e-08,0.0,0.0,0.0,9e-08
1536691726852631192,1374,1536691726852347928,base_link,-0.384852661345,0.0941346019425,0.217809321762,-0.891956391942,1.0,0.0,0.0,0.0,1.0,0.0,0.0,0.0,1.0,-0.0920023173094,-0.311238259077,-0.284288644791,1.21846967915e-07,0.0,0.0,0.0,1.21846967915e-07,0.0,0.0,0.0,1.21846967915e-07,0.4511059,0.9022118,13.32723735,9e-08,0.0,0.0,0.0,9e-08,0.0,0.0,0.0,9e-08
1536691727296673624,1375,1536691727295890776,base_link,-0.333776240998,0.120676077956,0.306446096465,-0.883244867019,1.0,0.0,0.0,0.0,1.0,0.0,0.0,0.0,1.0,-0.328891038895,-0.28136664629,-0.30225071311,1.21846967915e-07,0.0,0.0,0.0,1.21846967915e-07,0.0,0.0,0.0,1.21846967915e-07,0.38245935,1.1571847,13.60182355,9e-08,0.0,0.0,0.0,9e-08,0.0,0.0,0.0,9e-08
1536691727738185560,1376,1536691727737880152,base_link,-0.28327654672,0.136065083269,0.389895039811,-0.865576425929,1.0,0.0,0.0,0.0,1.0,0.0,0.0,0.0,1.0,-0.144482150674,-0.242382615805,-0.241944819689,1.21846967915e-07,0.0,0.0,0.0,1.21846967915e-07,0.0,0.0,0.0,1.21846967915e-07,0.14709975,0.53936575,13.7685366,9e-08,0.0,0.0,0.0,9e-08,0.0,0.0,0.0,9e-08
1536691728127429368,1377,1536691728127187064,base_link,-0.229051460684,0.139561543196,0.432934374979,-0.860596206697,1.0,0.0,0.0,0.0,1.0,0.0,0.0,0.0,1.0,-0.396579623222,-0.143874391913,-0.149854257703,1.21846967915e-07,0.0,0.0,0.0,1.21846967915e-07,0.0,0.0,0.0,1.21846967915e-07,-0.18632635,0.71588545,12.2779258,9e-08,0.0,0.0,0.0,9e-08,0.0,0.0,0.0,9e-08
1536691728617778712,1378,1536691728617507672,base_link,-0.16891090731,0.117009079925,0.497173178031,-0.842969045489,1.0,0.0,0.0,0.0,1.0,0.0,0.0,0.0,1.0,-0.0971008464694,-0.0790866091847,-0.248753532767,1.21846967915e-07,0.0,0.0,0.0,1.21846967915e-07,0.0,0.0,0.0,1.21846967915e-07,-0.3726527,0.65704555,11.30706745,9e-08,0.0,0.0,0.0,9e-08,0.0,0.0,0.0,9e-08
1536691729001190264,1379,1536691729000954264,base_link,-0.152471633626,0.11244884628,0.53435930758,-0.823752261491,1.0,0.0,0.0,0.0,1.0,0.0,0.0,0.0,1.0,-0.108161978424,-0.0621755681932,-0.187968239188,1.21846967915e-07,0.0,0.0,0.0,1.21846967915e-07,0.0,0.0,0.0,1.21846967915e-07,-0.34323275,0.32361945,10.38524235,9e-08,0.0,0.0,0.0,9e-08,0.0,0.0,0.0,9e-08
1536691729342172312,1380,1536691729341924632,base_link,-0.148976323986,0.114548113516,0.558611120647,-0.807860384269,1.0,0.0,0.0,0.0,1.0,0.0,0.0,0.0,1.0,0.0823098793626,-0.0466021299362,-0.164254143834,1.21846967915e-07,0.0,0.0,0.0,1.21846967915e-07,0.0,0.0,0.0,1.21846967915e-07,-0.5295591,0.588399,10.26756255,9e-08,0.0,0.0,0.0,9e-08,0.0,0.0,0.0,9e-08
1536691729784617752,1381,1536691729784353080,base_link,-0.177034437795,0.133134963623,0.590123163947,-0.776330175034,1.0,0.0,0.0,0.0,1.0,0.0,0.0,0.0,1.0,0.196123927832,-0.0294981114566,-0.244814753532,1.21846967915e-07,0.0,0.0,0.0,1.21846967915e-07,0.0,0.0,0.0,1.21846967915e-07,-0.5687857,0.6276256,9.03192465,9e-08,0.0,0.0,0.0,9e-08,0.0,0.0,0.0,9e-08
1536691730138965144,1382,1536691730138754200,base_link,-0.212356986596,0.156311484459,0.618102951426,-0.740553827556,1.0,0.0,0.0,0.0,1.0,0.0,0.0,0.0,1.0,0.28888297081,-0.0446623302996,-0.228221923113,1.21846967915e-07,0.0,0.0,0.0,1.21846967915e-07,0.0,0.0,0.0,1.21846967915e-07,-0.5099458,0.55897905,8.48275225,9e-08,0.0,0.0,0.0,9e-08,0.0,0.0,0.0,9e-08
1536691730445751704,1383,1536691730437538008,base_link,-0.234818888496,0.178445274551,0.641062763954,-0.708559035132,1.0,0.0,0.0,0.0,1.0,0.0,0.0,0.0,1.0,0.21233253181,-0.091862782836,-0.223418533802,1.21846967915e-07,0.0,0.0,0.0,1.21846967915e-07,0.0,0.0,0.0,1.21846967915e-07,-0.30400615,0.75511205,9.8458766,9e-08,0.0,0.0,0.0,9e-08,0.0,0.0,0.0,9e-08
1536691730867796504,1384,1536691730867494616,base_link,-0.253893001146,0.208910262418,0.673967425706,-0.661560847778,1.0,0.0,0.0,0.0,1.0,0.0,0.0,0.0,1.0,0.151591256261,-0.158932492137,-0.281834572554,1.21846967915e-07,0.0,0.0,0.0,1.21846967915e-07,0.0,0.0,0.0,1.21846967915e-07,-0.10787315,0.67665885,10.79712165,9e-08,0.0,0.0,0.0,9e-08,0.0,0.0,0.0,9e-08
1536691731392677880,1385,1536691731392326264,base_link,0.258352958552,-0.253252642834,-0.727722801065,0.582697496575,1.0,0.0,0.0,0.0,1.0,0.0,0.0,0.0,1.0,0.067253395915,-0.270257115364,-0.283761590719,1.21846967915e-07,0.0,0.0,0.0,1.21846967915e-07,0.0,0.0,0.0,1.21846967915e-07,0.2745862,0.5491724,12.160246,9e-08,0.0,0.0,0.0,9e-08,0.0,0.0,0.0,9e-08
1536691731689087416,1386,1536691731688500536,base_link,0.245480686723,-0.27782483779,-0.757536850522,0.53729927606,1.0,0.0,0.0,0.0,1.0,0.0,0.0,0.0,1.0,0.103124752641,-0.300598263741,-0.281649053097,1.21846967915e-07,0.0,0.0,0.0,1.21846967915e-07,0.0,0.0,0.0,1.21846967915e-07,0.4903325,0.93163175,12.93497135,9e-08,0.0,0.0,0.0,9e-08,0.0,0.0,0.0,9e-08
1536691732162414392,1387,1536691732162103672,base_link,0.210913404945,-0.312632350253,-0.806878703197,0.454668348929,1.0,0.0,0.0,0.0,1.0,0.0,0.0,0.0,1.0,0.0107341008261,-0.359962642193,-0.302815288305,1.21846967915e-07,0.0,0.0,0.0,1.21846967915e-07,0.0,0.0,0.0,1.21846967915e-07,0.87279185,0.95124505,14.6315218,9e-08,0.0,0.0,0.0,9e-08,0.0,0.0,0.0,9e-08
1536691732506115256,1388,1536691732505827352,base_link,0.181805881978,-0.336491935952,-0.836983652124,0.391379821137,1.0,0.0,0.0,0.0,1.0,0.0,0.0,0.0,1.0,-0.00317144207656,-0.371205151081,-0.305562585592,1.21846967915e-07,0.0,0.0,0.0,1.21846967915e-07,0.0,0.0,0.0,1.21846967915e-07,0.99047165,1.10815145,14.79823485,9e-08,0.0,0.0,0.0,9e-08,0.0,0.0,0.0,9e-08
1536691732910240056,1389,1536691732909662200,base_link,0.141945895999,-0.363719686469,-0.866601676981,0.310742474948,1.0,0.0,0.0,0.0,1.0,0.0,0.0,0.0,1.0,-0.0371715202928,-0.413588911295,-0.296307086945,1.21846967915e-07,0.0,0.0,0.0,1.21846967915e-07,0.0,0.0,0.0,1.21846967915e-07,1.3337044,0.784532,15.4748937,9e-08,0.0,0.0,0.0,9e-08,0.0,0.0,0.0,9e-08
1536691733154444920,1390,1536691733153980088,base_link,0.110188671553,-0.371084015703,-0.88342214658,0.264046247623,1.0,0.0,0.0,0.0,1.0,0.0,0.0,0.0,1.0,-0.0296544916928,-0.417875349522,-0.275217443705,1.21846967915e-07,0.0,0.0,0.0,1.21846967915e-07,0.0,0.0,0.0,1.21846967915e-07,1.4121576,1.14737805,16.44575205,9e-08,0.0,0.0,0.0,9e-08,0.0,0.0,0.0,9e-08
1536691733562214232,1391,1536691733561901400,base_link,0.0493123142272,-0.36889008839,-0.909925918433,0.183093476992,1.0,0.0,0.0,0.0,1.0,0.0,0.0,0.0,1.0,-0.158746421337,-0.401973843575,-0.27756485343,1.21846967915e-07,0.0,0.0,0.0,1.21846967915e-07,0.0,0.0,0.0,1.21846967915e-07,1.34351105,1.20621795,18.240369,9e-08,0.0,0.0,0.0,9e-08,0.0,0.0,0.0,9e-08
1536691733844847704,1392,1536691733844483288,base_link,0.0180124908089,-0.370678587621,-0.920129786488,0.125036438179,1.0,0.0,0.0,0.0,1.0,0.0,0.0,0.0,1.0,0.067798152566,-0.349827498198,-0.344403117895,1.21846967915e-07,0.0,0.0,0.0,1.21846967915e-07,0.0,0.0,0.0,1.21846967915e-07,0.89240515,1.01008495,13.07226445,9e-08,0.0,0.0,0.0,9e-08,0.0,0.0,0.0,9e-08
1536691734115396984,1393,1536691734114903096,base_link,-0.0130903540979,-0.363240351502,-0.929544934777,0.0618975274281,1.0,0.0,0.0,0.0,1.0,0.0,0.0,0.0,1.0,-0.152470096946,-0.341761320829,-0.327384352684,1.21846967915e-07,0.0,0.0,0.0,1.21846967915e-07,0.0,0.0,0.0,1.21846967915e-07,0.784532,1.0983448,18.19133575,9e-08,0.0,0.0,0.0,9e-08,0.0,0.0,0.0,9e-08
1536691734550609528,1394,1536691734550332344,base_link,-0.0476387639485,-0.383260327018,-0.922193575215,-0.0200269751954,1.0,0.0,0.0,0.0,1.0,0.0,0.0,0.0,1.0,0.118190638721,-0.266927361488,-0.276872098446,1.21846967915e-07,0.0,0.0,0.0,1.21846967915e-07,0.0,0.0,0.0,1.21846967915e-07,0.0980665,0.8433719,11.2972608,9e-08,0.0,0.0,0.0,9e-08,0.0,0.0,0.0,9e-08
1536691734865921432,1395,1536691734859627224,base_link,-0.0695121451141,-0.362568533506,-0.925965143366,-0.0793767816435,1.0,0.0,0.0,0.0,1.0,0.0,0.0,0.0,1.0,-0.178938180208,-0.271246671677,-0.249236240983,1.21846967915e-07,0.0,0.0,0.0,1.21846967915e-07,0.0,0.0,0.0,1.21846967915e-07,-0.0392266,0.61781895,13.03303785,9e-08,0.0,0.0,0.0,9e-08,0.0,0.0,0.0,9e-08
1536691735344014072,1396,1536691735343882456,base_link,-0.0866185031358,-0.345735427832,-0.922286755524,-0.149503810793,1.0,0.0,0.0,0.0,1.0,0.0,0.0,0.0,1.0,-0.0366195254028,-0.1199099347,-0.344467997551,1.21846967915e-07,0.0,0.0,0.0,1.21846967915e-07,0.0,0.0,0.0,1.21846967915e-07,-0.5099458,0.8629852,7.14904785,9e-08,0.0,0.0,0.0,9e-08,0.0,0.0,0.0,9e-08
1536691735743973784,1397,1536691735742282232,base_link,-0.0896613578976,-0.350514862193,-0.906095634536,-0.219296314052,1.0,0.0,0.0,0.0,1.0,0.0,0.0,0.0,1.0,0.102429114282,-0.160227939487,-0.271714270115,1.21846967915e-07,0.0,0.0,0.0,1.21846967915e-07,0.0,0.0,0.0,1.21846967915e-07,-0.588399,0.1569064,10.14988275,9e-08,0.0,0.0,0.0,9e-08,0.0,0.0,0.0,9e-08
1536691736074360440,1398,1536691736073973240,base_link,-0.103460356318,-0.356711061501,-0.891390830936,-0.259760581684,1.0,0.0,0.0,0.0,1.0,0.0,0.0,0.0,1.0,-0.0577175095677,-0.192513585091,-0.205349102616,1.21846967915e-07,0.0,0.0,0.0,1.21846967915e-07,0.0,0.0,0.0,1.21846967915e-07,-0.57859235,0.73549875,9.80665,9e-08,0.0,0.0,0.0,9e-08,0.0,0.0,0.0,9e-08
1536691736535888120,1399,1536691736534785144,base_link,-0.106618364729,-0.32614351105,-0.878615013476,-0.332112319248,1.0,0.0,0.0,0.0,1.0,0.0,0.0,0.0,1.0,-0.0676884949207,-0.131944343448,-0.323234081268,1.21846967915e-07,0.0,0.0,0.0,1.21846967915e-07,0.0,0.0,0.0,1.21846967915e-07,-0.51975245,0.7453054,10.5323421,9e-08,0.0,0.0,0.0,9e-08,0.0,0.0,0.0,9e-08
1536691736778627032,1400,1536691736778357016,base_link,-0.107514311153,-0.319568006411,-0.862799105664,-0.376689083251,1.0,0.0,0.0,0.0,1.0,0.0,0.0,0.0,1.0,-0.0526897609234,-0.152079492807,-0.323824465275,1.21846967915e-07,0.0,0.0,0.0,1.21846967915e-07,0.0,0.0,0.0,1.21846967915e-07,-0.55897905,0.59820565,10.42446895,9e-08,0.0,0.0,0.0,9e-08,0.0,0.0,0.0,9e-08
1536691737137473144,1401,1536691737135916856,base_link,-0.116793623073,-0.315467336624,-0.836882846149,-0.431817914118,1.0,0.0,0.0,0.0,1.0,0.0,0.0,0.0,1.0,0.03427034989,-0.188925236464,-0.288370758295,1.21846967915e-07,0.0,0.0,0.0,1.21846967915e-07,0.0,0.0,0.0,1.21846967915e-07,-0.67665885,0.5295591,10.65982855,9e-08,0.0,0.0,0.0,9e-08,0.0,0.0,0.0,9e-08
1536691737452190904,1402,1536691737451918648,base_link,-0.129824735925,-0.308989445602,-0.814718327473,-0.473186123347,1.0,0.0,0.0,0.0,1.0,0.0,0.0,0.0,1.0,0.02923402749,-0.193930521607,-0.274971187115,1.21846967915e-07,0.0,0.0,0.0,1.21846967915e-07,0.0,0.0,0.0,1.21846967915e-07,-0.36284605,0.6668522,11.44436055,9e-08,0.0,0.0,0.0,9e-08,0.0,0.0,0.0,9e-08
1536691737885833368,1403,1536691737881997784,base_link,-0.15514877785,-0.301935512961,-0.774109026259,-0.534339796579,1.0,0.0,0.0,0.0,1.0,0.0,0.0,0.0,1.0,0.0534520447254,-0.256653130054,-0.280344456434,1.21846967915e-07,0.0,0.0,0.0,1.21846967915e-07,0.0,0.0,0.0,1.21846967915e-07,-0.2353596,0.5295591,12.3367657,9e-08,0.0,0.0,0.0,9e-08,0.0,0.0,0.0,9e-08
1536691738209429112,1404,1536691738209159992,base_link,-0.180684973619,-0.294416753837,-0.739780426336,-0.577405088459,1.0,0.0,0.0,0.0,1.0,0.0,0.0,0.0,1.0,0.0451982542872,-0.273147702217,-0.264832377434,1.21846967915e-07,0.0,0.0,0.0,1.21846967915e-07,0.0,0.0,0.0,1.21846967915e-07,-0.10787315,0.77472535,12.83690485,9e-08,0.0,0.0,0.0,9e-08,0.0,0.0,0.0,9e-08
1536691738697816120,1405,1536691738697427736,base_link,-0.213822786454,-0.268273660635,-0.684515841387,-0.643231779294,1.0,0.0,0.0,0.0,1.0,0.0,0.0,0.0,1.0,-0.0338123589754,-0.283311575651,-0.282505452633,1.21846967915e-07,0.0,0.0,0.0,1.21846967915e-07,0.0,0.0,0.0,1.21846967915e-07,0.06864655,0.8629852,13.91563635,9e-08,0.0,0.0,0.0,9e-08,0.0,0.0,0.0,9e-08
1536691739106576568,1406,1536691739106279064,base_link,-0.236072398963,-0.243865119062,-0.632448223385,-0.696282177633,1.0,0.0,0.0,0.0,1.0,0.0,0.0,0.0,1.0,0.025550276041,-0.288107901812,-0.306483596563,1.21846967915e-07,0.0,0.0,0.0,1.21846967915e-07,0.0,0.0,0.0,1.21846967915e-07,0.1372931,0.73549875,13.2978174,9e-08,0.0,0.0,0.0,9e-08,0.0,0.0,0.0,9e-08
1536691739447252184,1407,1536691739447019256,base_link,-0.260751206908,-0.225812507052,-0.583682882134,-0.735072658217,1.0,0.0,0.0,0.0,1.0,0.0,0.0,0.0,1.0,0.0455438494682,-0.29542440176,-0.2681620121,1.21846967915e-07,0.0,0.0,0.0,1.21846967915e-07,0.0,0.0,0.0,1.21846967915e-07,0.08825985,0.7060788,13.46453045,9e-08,0.0,0.0,0.0,9e-08,0.0,0.0,0.0,9e-08
1536691739905570360,1408,1536691739899669432,base_link,-0.292734129788,-0.194643866552,-0.518372336509,-0.77955796142,1.0,0.0,0.0,0.0,1.0,0.0,0.0,0.0,1.0,0.0025444207713,-0.302275180817,-0.271655887365,1.21846967915e-07,0.0,0.0,0.0,1.21846967915e-07,0.0,0.0,0.0,1.21846967915e-07,0.2941995,0.79433865,13.6508568,9e-08,0.0,0.0,0.0,9e-08,0.0,0.0,0.0,9e-08
1536691740274891288,1409,1536691740271694008,base_link,-0.309760127372,-0.169808102308,-0.461738979732,-0.813640575732,1.0,0.0,0.0,0.0,1.0,0.0,0.0,0.0,1.0,0.0490526631474,-0.277792990208,-0.303292572498,1.21846967915e-07,0.0,0.0,0.0,1.21846967915e-07,0.0,0.0,0.0,1.21846967915e-07,0.32361945,0.6668522,13.1016844,9e-08,0.0,0.0,0.0,9e-08,0.0,0.0,0.0,9e-08
1536691740680715000,1410,1536691740680182584,base_link,-0.333366190501,-0.144794557484,-0.391948607442,-0.845149577458,1.0,0.0,0.0,0.0,1.0,0.0,0.0,0.0,1.0,-0.0086261825636,-0.277262419462,-0.287313312292,1.21846967915e-07,0.0,0.0,0.0,1.21846967915e-07,0.0,0.0,0.0,1.21846967915e-07,0.32361945,0.7649187,13.03303785,9e-08,0.0,0.0,0.0,9e-08,0.0,0.0,0.0,9e-08
1536691740973066168,1411,1536691740972507480,base_link,-0.343073229591,-0.125731643456,-0.343696525455,-0.865080927638,1.0,0.0,0.0,0.0,1.0,0.0,0.0,0.0,1.0,-0.00538796931505,-0.276508122683,-0.295453876257,1.21846967915e-07,0.0,0.0,0.0,1.21846967915e-07,0.0,0.0,0.0,1.21846967915e-07,0.4118793,0.6080123,12.93497135,9e-08,0.0,0.0,0.0,9e-08,0.0,0.0,0.0,9e-08
1536691741277007480,1412,1536691741276253048,base_link,-0.352348882938,-0.102331149739,-0.28907257134,-0.884203397972,1.0,0.0,0.0,0.0,1.0,0.0,0.0,0.0,1.0,-0.00477901566774,-0.277575582266,-0.271712332964,1.21846967915e-07,0.0,0.0,0.0,1.21846967915e-07,0.0,0.0,0.0,1.21846967915e-07,0.38245935,0.9022118,13.0232312,9e-08,0.0,0.0,0.0,9e-08,0.0,0.0,0.0,9e-08
1536691741736254200,1413,1536691741735795320,base_link,-0.35897881397,-0.0666691741916,-0.2139000333,-0.906055300789,1.0,0.0,0.0,0.0,1.0,0.0,0.0,0.0,1.0,-0.059650734067,-0.274853169918,-0.272854447365,1.21846967915e-07,0.0,0.0,0.0,1.21846967915e-07,0.0,0.0,0.0,1.21846967915e-07,0.4707192,1.01008495,13.337044,9e-08,0.0,0.0,0.0,9e-08,0.0,0.0,0.0,9e-08
1536691742100844856,1414,1536691742100600280,base_link,-0.364714514451,-0.0411023870271,-0.144333488803,-0.918946005345,1.0,0.0,0.0,0.0,1.0,0.0,0.0,0.0,1.0,0.018368050456,-0.240295574069,-0.335569471121,1.21846967915e-07,0.0,0.0,0.0,1.21846967915e-07,0.0,0.0,0.0,1.21846967915e-07,0.2745862,1.0002783,12.3759923,9e-08,0.0,0.0,0.0,9e-08,0.0,0.0,0.0,9e-08
1536691742533534680,1415,1536691742533055800,base_link,-0.358969657825,-0.0128736093656,-0.0597300608456,-0.931347075356,1.0,0.0,0.0,0.0,1.0,0.0,0.0,0.0,1.0,0.0245180800557,-0.290464788675,-0.284216463566,1.21846967915e-07,0.0,0.0,0.0,1.21846967915e-07,0.0,0.0,0.0,1.21846967915e-07,0.32361945,0.4511059,12.4152189,9e-08,0.0,0.0,0.0,9e-08,0.0,0.0,0.0,9e-08
1536691742833419160,1416,1536691742833162264,base_link,-0.364262812636,0.0141249865632,-0.00902475295733,-0.931145338773,1.0,0.0,0.0,0.0,1.0,0.0,0.0,0.0,1.0,-0.0211333874613,-0.294291108847,-0.244137585163,1.21846967915e-07,0.0,0.0,0.0,1.21846967915e-07,0.0,0.0,0.0,1.21846967915e-07,0.3138128,0.53936575,12.73883835,9e-08,0.0,0.0,0.0,9e-08,0.0,0.0,0.0,9e-08
1536691743332783672,1417,1536691743332332920,base_link,-0.364896597242,0.0501962435164,0.07796096789,-0.926419396355,1.0,0.0,0.0,0.0,1.0,0.0,0.0,0.0,1.0,-0.002297218889,-0.224589467049,-0.318236142397,1.21846967915e-07,0.0,0.0,0.0,1.21846967915e-07,0.0,0.0,0.0,1.21846967915e-07,0.196133,0.980665,12.69961175,9e-08,0.0,0.0,0.0,9e-08,0.0,0.0,0.0,9e-08
1536691743709161336,1418,1536691743708926392,base_link,-0.370303314046,0.0700792470338,0.148305503795,-0.914313858741,1.0,0.0,0.0,0.0,1.0,0.0,0.0,0.0,1.0,0.0689165890217,-0.233761563897,-0.290963232517,1.21846967915e-07,0.0,0.0,0.0,1.21846967915e-07,0.0,0.0,0.0,1.21846967915e-07,0.34323275,0.5295591,12.1798593,9e-08,0.0,0.0,0.0,9e-08,0.0,0.0,0.0,9e-08
1536691744100625048,1419,1536691744099794776,base_link,-0.371871763858,0.0943378129507,0.215519876563,-0.897977143974,1.0,0.0,0.0,0.0,1.0,0.0,0.0,0.0,1.0,0.0598763562739,-0.261059135199,-0.283187776804,1.21846967915e-07,0.0,0.0,0.0,1.21846967915e-07,0.0,0.0,0.0,1.21846967915e-07,0.4118793,0.73549875,12.5328987,9e-08,0.0,0.0,0.0,9e-08,0.0,0.0,0.0,9e-08
1536691744490688664,1420,1536691744490246712,base_link,-0.373280530453,0.11960901315,0.286294972515,-0.874294297288,1.0,0.0,0.0,0.0,1.0,0.0,0.0,0.0,1.0,0.0772757455707,-0.258812695742,-0.311892330647,1.21846967915e-07,0.0,0.0,0.0,1.21846967915e-07,0.0,0.0,0.0,1.21846967915e-07,0.3530394,0.91201845,11.571847,9e-08,0.0,0.0,0.0,9e-08,0.0,0.0,0.0,9e-08
1536691744888283448,1421,1536691744888008376,base_link,-0.369212938838,0.151047721124,0.359019013921,-0.8437841782,1.0,0.0,0.0,0.0,1.0,0.0,0.0,0.0,1.0,0.0583396069705,-0.304848998785,-0.282310068607,1.21846967915e-07,0.0,0.0,0.0,1.21846967915e-07,0.0,0.0,0.0,1.21846967915e-07,0.6864655,0.980665,13.5724036,9e-08,0.0,0.0,0.0,9e-08,0.0,0.0,0.0,9e-08
1536691745307807608,1422,1536691745307459992,base_link,-0.350724531174,0.177981201708,0.434697785779,-0.810156052937,1.0,0.0,0.0,0.0,1.0,0.0,0.0,0.0,1.0,-0.0358333736658,-0.297332257032,-0.342277556658,1.21846967915e-07,0.0,0.0,0.0,1.21846967915e-07,0.0,0.0,0.0,1.21846967915e-07,0.79433865,0.99047165,13.11149105,9e-08,0.0,0.0,0.0,9e-08,0.0,0.0,0.0,9e-08
1536691745720068600,1423,1536691745719791128,base_link,-0.327983695904,0.207045355534,0.512241729928,-0.76626844258,1.0,0.0,0.0,0.0,1.0,0.0,0.0,0.0,1.0,-0.032522443682,-0.341596841812,-0.29970189929,1.21846967915e-07,0.0,0.0,0.0,1.21846967915e-07,0.0,0.0,0.0,1.21846967915e-07,0.9022118,0.8629852,14.20983585,9e-08,0.0,0.0,0.0,9e-08,0.0,0.0,0.0,9e-08
1536691746125148120,1424,1536691746124730808,base_link,-0.290012869662,0.231948031273,0.579788014622,-0.725216177646,1.0,0.0,0.0,0.0,1.0,0.0,0.0,0.0,1.0,-0.113468654454,-0.334165334702,-0.299674510956,1.21846967915e-07,0.0,0.0,0.0,1.21846967915e-07,0.0,0.0,0.0,1.21846967915e-07,0.8237586,1.1964113,15.0237878,9e-08,0.0,0.0,0.0,9e-08,0.0,0.0,0.0,9e-08
1536691746494057880,1425,1536691746489966648,base_link,-0.268709387937,0.25449741072,0.641133259405,-0.6722904703,1.0,0.0,0.0,0.0,1.0,0.0,0.0,0.0,1.0,0.0344893932343,-0.339986264706,-0.364056050777,1.21846967915e-07,0.0,0.0,0.0,1.21846967915e-07,0.0,0.0,0.0,1.21846967915e-07,0.588399,0.784532,13.40569055,9e-08,0.0,0.0,0.0,9e-08,0.0,0.0,0.0,9e-08
1536691746938189304,1426,1536691746932526392,base_link,0.23409974466,-0.294983420466,-0.703035835007,0.603260064894,1.0,0.0,0.0,0.0,1.0,0.0,0.0,0.0,1.0,0.0153274331242,-0.370465546846,-0.236694842577,1.21846967915e-07,0.0,0.0,0.0,1.21846967915e-07,0.0,0.0,0.0,1.21846967915e-07,0.5295591,0.69627215,15.21011415,9e-08,0.0,0.0,0.0,9e-08,0.0,0.0,0.0,9e-08
1536691747281048344,1427,1536691747280331224,base_link,0.205738283062,-0.326521646645,-0.738645427133,0.552682825977,1.0,0.0,0.0,0.0,1.0,0.0,0.0,0.0,1.0,0.0262420810759,-0.3482183218,-0.262502372265,1.21846967915e-07,0.0,0.0,0.0,1.21846967915e-07,0.0,0.0,0.0,1.21846967915e-07,0.8041453,0.85317855,15.3572139,9e-08,0.0,0.0,0.0,9e-08,0.0,0.0,0.0,9e-08
1536691747685053304,1428,1536691747684802680,base_link,0.174815127799,-0.351818085563,-0.779304719265,0.488208828571,1.0,0.0,0.0,0.0,1.0,0.0,0.0,0.0,1.0,-0.0275888219476,-0.300280243158,-0.292147278786,1.21846967915e-07,0.0,0.0,0.0,1.21846967915e-07,0.0,0.0,0.0,1.21846967915e-07,0.63743225,0.85317855,14.3961622,9e-08,0.0,0.0,0.0,9e-08,0.0,0.0,0.0,9e-08
1536691748055383224,1429,1536691748054951960,base_link,0.149166806243,-0.370227113788,-0.81396266946,0.422073359569,1.0,0.0,0.0,0.0,1.0,0.0,0.0,0.0,1.0,-0.0246718488634,-0.310252636671,-0.295499175787,1.21846967915e-07,0.0,0.0,0.0,1.21846967915e-07,0.0,0.0,0.0,1.21846967915e-07,0.4511059,0.9610517,13.1801376,9e-08,0.0,0.0,0.0,9e-08,0.0,0.0,0.0,9e-08
1536691748391622328,1430,1536691748391377272,base_link,0.125868877437,-0.382144047793,-0.839634122495,0.364880107393,1.0,0.0,0.0,0.0,1.0,0.0,0.0,0.0,1.0,-0.0152944521978,-0.317004710436,-0.298387169838,1.21846967915e-07,0.0,0.0,0.0,1.21846967915e-07,0.0,0.0,0.0,1.21846967915e-07,0.392266,0.8629852,13.6704701,9e-08,0.0,0.0,0.0,9e-08,0.0,0.0,0.0,9e-08
1536691748793917176,1431,1536691748793678552,base_link,0.0923543776391,-0.39056678792,-0.869578352584,0.287683405538,1.0,0.0,0.0,0.0,1.0,0.0,0.0,0.0,1.0,-0.0407850407064,-0.301664024591,-0.322027355433,1.21846967915e-07,0.0,0.0,0.0,1.21846967915e-07,0.0,0.0,0.0,1.21846967915e-07,0.34323275,0.85317855,13.5920169,9e-08,0.0,0.0,0.0,9e-08,0.0,0.0,0.0,9e-08
1536691749126461208,1432,1536691749125958136,base_link,0.0737871369576,-0.39384244263,-0.887560160546,0.227333565966,1.0,0.0,0.0,0.0,1.0,0.0,0.0,0.0,1.0,-0.045866087079,-0.249749809504,-0.311632066965,1.21846967915e-07,0.0,0.0,0.0,1.21846967915e-07,0.0,0.0,0.0,1.21846967915e-07,0.1176798,0.87279185,13.09187775,9e-08,0.0,0.0,0.0,9e-08,0.0,0.0,0.0,9e-08
1536691749557723160,1433,1536691749557403576,base_link,0.0551394224256,-0.410491978741,-0.898661845392,0.144439839108,1.0,0.0,0.0,0.0,1.0,0.0,0.0,0.0,1.0,0.107971340418,-0.258647382259,-0.299032598734,1.21846967915e-07,0.0,0.0,0.0,1.21846967915e-07,0.0,0.0,0.0,1.21846967915e-07,0.2745862,0.9610517,12.3759923,9e-08,0.0,0.0,0.0,9e-08,0.0,0.0,0.0,9e-08
1536691749811159832,1434,1536691749810908792,base_link,0.0447938030723,-0.410198540527,-0.906252912115,0.0918495064741,1.0,0.0,0.0,0.0,1.0,0.0,0.0,0.0,1.0,-0.177998557687,-0.209425851703,-0.368127882481,1.21846967915e-07,0.0,0.0,0.0,1.21846967915e-07,0.0,0.0,0.0,1.21846967915e-07,0.1569064,1.4121576,9.1594111,9e-08,0.0,0.0,0.0,9e-08,0.0,0.0,0.0,9e-08
1536691750170984184,1435,1536691750170596376,base_link,0.0271974361073,-0.404060123229,-0.914197197368,0.0154661116637,1.0,0.0,0.0,0.0,1.0,0.0,0.0,0.0,1.0,-0.0372499898076,-0.328068673611,-0.336661219597,1.21846967915e-07,0.0,0.0,0.0,1.21846967915e-07,0.0,0.0,0.0,1.21846967915e-07,-0.30400615,0.7453054,14.17060925,9e-08,0.0,0.0,0.0,9e-08,0.0,0.0,0.0,9e-08
1536691750518656824,1436,1536691750518193176,base_link,-0.00874641084001,-0.410649712956,-0.909990280779,-0.056639230526,1.0,0.0,0.0,0.0,1.0,0.0,0.0,0.0,1.0,-0.0906572788954,-0.351551264524,-0.251199841499,1.21846967915e-07,0.0,0.0,0.0,1.21846967915e-07,0.0,0.0,0.0,1.21846967915e-07,-0.2353596,0.8237586,14.2000292,9e-08,0.0,0.0,0.0,9e-08,0.0,0.0,0.0,9e-08
1536691750964490968,1437,1536691750964083128,base_link,-0.0490424395976,-0.387029148683,-0.909993885867,-0.140407994333,1.0,0.0,0.0,0.0,1.0,0.0,0.0,0.0,1.0,-0.00287931598723,-0.310106426477,-0.303775191307,1.21846967915e-07,0.0,0.0,0.0,1.21846967915e-07,0.0,0.0,0.0,1.21846967915e-07,-0.16671305,0.79433865,13.4547238,9e-08,0.0,0.0,0.0,9e-08,0.0,0.0,0.0,9e-08
1536691751343288024,1438,1536691751342904664,base_link,-0.0715140536298,-0.359885040004,-0.905219687792,-0.21434974912,1.0,0.0,0.0,0.0,1.0,0.0,0.0,0.0,1.0,-0.105916894972,-0.28976392746,-0.321297734976,1.21846967915e-07,0.0,0.0,0.0,1.21846967915e-07,0.0,0.0,0.0,1.21846967915e-07,-0.22555295,0.8825985,12.9840046,9e-08,0.0,0.0,0.0,9e-08,0.0,0.0,0.0,9e-08
1536691751712087320,1439,1536691751710464568,base_link,-0.0960823919001,-0.335261777729,-0.892831750528,-0.284989788605,1.0,0.0,0.0,0.0,1.0,0.0,0.0,0.0,1.0,-0.119940370321,-0.246574774384,-0.249157145619,1.21846967915e-07,0.0,0.0,0.0,1.21846967915e-07,0.0,0.0,0.0,1.21846967915e-07,-0.36284605,0.7256921,12.85651815,9e-08,0.0,0.0,0.0,9e-08,0.0,0.0,0.0,9e-08
1536691752067495416,1440,1536691752067252856,base_link,-0.109175230438,-0.305262303972,-0.883595995939,-0.337866557673,1.0,0.0,0.0,0.0,1.0,0.0,0.0,0.0,1.0,-0.157368376851,-0.208302691579,-0.260193735361,1.21846967915e-07,0.0,0.0,0.0,1.21846967915e-07,0.0,0.0,0.0,1.21846967915e-07,-0.38245935,0.6472389,12.32695905,9e-08,0.0,0.0,0.0,9e-08,0.0,0.0,0.0,9e-08
1536691752523109208,1441,1536691752522855160,base_link,-0.115204785273,-0.271164041363,-0.865498008968,-0.405106302832,1.0,0.0,0.0,0.0,1.0,0.0,0.0,0.0,1.0,-0.0906684696674,-0.140761494637,-0.266371697187,1.21846967915e-07,0.0,0.0,0.0,1.21846967915e-07,0.0,0.0,0.0,1.21846967915e-07,-0.5295591,0.8041453,11.44436055,9e-08,0.0,0.0,0.0,9e-08,0.0,0.0,0.0,9e-08
1536691752960567832,1442,1536691752960345624,base_link,-0.122333782941,-0.254293294313,-0.841807279502,-0.460141141604,1.0,0.0,0.0,0.0,1.0,0.0,0.0,0.0,1.0,-0.0244011823088,-0.138220623136,-0.237767606974,1.21846967915e-07,0.0,0.0,0.0,1.21846967915e-07,0.0,0.0,0.0,1.21846967915e-07,-0.6864655,0.59820565,10.87557485,9e-08,0.0,0.0,0.0,9e-08,0.0,0.0,0.0,9e-08
1536691753324183576,1443,1536691753323918072,base_link,-0.132532391468,-0.247028137755,-0.81912072137,-0.500453302708,1.0,0.0,0.0,0.0,1.0,0.0,0.0,0.0,1.0,0.00911314319819,-0.13440784812,-0.223130643368,1.21846967915e-07,0.0,0.0,0.0,1.21846967915e-07,0.0,0.0,0.0,1.21846967915e-07,-0.65704555,0.53936575,11.1011278,9e-08,0.0,0.0,0.0,9e-08,0.0,0.0,0.0,9e-08
1536691753746000920,1444,1536691753745722648,base_link,-0.144307007374,-0.238705991975,-0.791258958327,-0.544154571684,1.0,0.0,0.0,0.0,1.0,0.0,0.0,0.0,1.0,-0.000837950967252,-0.123813971877,-0.235838547349,1.21846967915e-07,0.0,0.0,0.0,1.21846967915e-07,0.0,0.0,0.0,1.21846967915e-07,-0.5295591,0.588399,11.0030613,9e-08,0.0,0.0,0.0,9e-08,0.0,0.0,0.0,9e-08
1536691754129278360,1445,1536691754128911032,base_link,-0.156592861265,-0.240525767841,-0.75876731106,-0.58472061574,1.0,0.0,0.0,0.0,1.0,0.0,0.0,0.0,1.0,0.0104739209637,-0.115076676011,-0.270918101072,1.21846967915e-07,0.0,0.0,0.0,1.21846967915e-07,0.0,0.0,0.0,1.21846967915e-07,-0.55897905,0.69627215,10.97364135,9e-08,0.0,0.0,0.0,9e-08,0.0,0.0,0.0,9e-08
1536691754616327512,1446,1536691754616036408,base_link,-0.168846067051,-0.238083307554,-0.713052656883,-0.637466275828,1.0,0.0,0.0,0.0,1.0,0.0,0.0,0.0,1.0,0.130036503077,-0.12004968524,-0.244731381536,1.21846967915e-07,0.0,0.0,0.0,1.21846967915e-07,0.0,0.0,0.0,1.21846967915e-07,-0.46091255,0.53936575,11.01286795,9e-08,0.0,0.0,0.0,9e-08,0.0,0.0,0.0,9e-08
1536691755077263096,1447,1536691755076982648,base_link,-0.197409953224,-0.240480463122,-0.663201810348,-0.680706850249,1.0,0.0,0.0,0.0,1.0,0.0,0.0,0.0,1.0,0.108107961714,-0.187305405736,-0.252052277327,1.21846967915e-07,0.0,0.0,0.0,1.21846967915e-07,0.0,0.0,0.0,1.21846967915e-07,-0.12748645,0.69627215,11.58165365,9e-08,0.0,0.0,0.0,9e-08,0.0,0.0,0.0,9e-08
1536691755455306840,1448,1536691755455043480,base_link,-0.224607487965,-0.238568685587,-0.616354373754,-0.716061271513,1.0,0.0,0.0,0.0,1.0,0.0,0.0,0.0,1.0,0.0937763750553,-0.193061470985,-0.268372267485,1.21846967915e-07,0.0,0.0,0.0,1.21846967915e-07,0.0,0.0,0.0,1.21846967915e-07,0.1176798,0.6668522,11.89546645,9e-08,0.0,0.0,0.0,9e-08,0.0,0.0,0.0,9e-08
1536691755919854104,1449,1536691755919483960,base_link,-0.262039987468,-0.226697515026,-0.550614262322,-0.759451918015,1.0,0.0,0.0,0.0,1.0,0.0,0.0,0.0,1.0,0.0657035410404,-0.285994112492,-0.263026982546,1.21846967915e-07,0.0,0.0,0.0,1.21846967915e-07,0.0,0.0,0.0,1.21846967915e-07,0.24516625,0.61781895,12.6701918,9e-08,0.0,0.0,0.0,9e-08,0.0,0.0,0.0,9e-08
1536691756212748792,1450,1536691756212451704,base_link,-0.283567439573,-0.211882933192,-0.510229840398,-0.783811609893,1.0,0.0,0.0,0.0,1.0,0.0,0.0,0.0,1.0,0.0523794069886,-0.286911040545,-0.257130324841,1.21846967915e-07,0.0,0.0,0.0,1.21846967915e-07,0.0,0.0,0.0,1.21846967915e-07,0.40207265,0.7453054,13.03303785,9e-08,0.0,0.0,0.0,9e-08,0.0,0.0,0.0,9e-08
1536691756613020216,1451,1536691756612697976,base_link,-0.309398241338,-0.188835101927,-0.446898459716,-0.817860501088,1.0,0.0,0.0,0.0,1.0,0.0,0.0,0.0,1.0,0.0541758462787,-0.299248486757,-0.284143328667,1.21846967915e-07,0.0,0.0,0.0,1.21846967915e-07,0.0,0.0,0.0,1.21846967915e-07,0.46091255,0.97085835,12.8467115,9e-08,0.0,0.0,0.0,9e-08,0.0,0.0,0.0,9e-08
1536691756869485336,1452,1536691756869229400,base_link,-0.327209703852,-0.171051683231,-0.400940811772,-0.838404196569,1.0,0.0,0.0,0.0,1.0,0.0,0.0,0.0,1.0,0.0978037714958,-0.328158915043,-0.297079622746,1.21846967915e-07,0.0,0.0,0.0,1.21846967915e-07,0.0,0.0,0.0,1.21846967915e-07,0.65704555,1.0002783,13.7489233,9e-08,0.0,0.0,0.0,9e-08,0.0,0.0,0.0,9e-08
1536691757277517400,1453,1536691757277205560,base_link,-0.347275422601,-0.131040473284,-0.326673518068,-0.869202270943,1.0,0.0,0.0,0.0,1.0,0.0,0.0,0.0,1.0,-0.116411961615,-0.338390141726,-0.279759258032,1.21846967915e-07,0.0,0.0,0.0,1.21846967915e-07,0.0,0.0,0.0,1.21846967915e-07,0.99047165,0.93163175,14.19022255,9e-08,0.0,0.0,0.0,9e-08,0.0,0.0,0.0,9e-08
1536691757696244536,1454,1536691757696011480,base_link,-0.383389791614,-0.0909056977544,-0.243463016036,-0.886269813107,1.0,0.0,0.0,0.0,1.0,0.0,0.0,0.0,1.0,0.234369516373,-0.375827878714,-0.274739325047,1.21846967915e-07,0.0,0.0,0.0,1.21846967915e-07,0.0,0.0,0.0,1.21846967915e-07,1.10815145,0.99047165,15.75928655,9e-08,0.0,0.0,0.0,9e-08,0.0,0.0,0.0,9e-08
1536691758068478552,1455,1536691758068181848,base_link,-0.399089541125,-0.0541103848052,-0.168252425788,-0.899717025312,1.0,0.0,0.0,0.0,1.0,0.0,0.0,0.0,1.0,0.0532664470375,-0.371873170137,-0.28024277091,1.21846967915e-07,0.0,0.0,0.0,1.21846967915e-07,0.0,0.0,0.0,1.21846967915e-07,1.2748645,0.9610517,14.9453346,9e-08,0.0,0.0,0.0,9e-08,0.0,0.0,0.0,9e-08
1536691758469006424,1456,1536691758468766072,base_link,-0.391944135038,-0.00192081601968,-0.0914500491767,-0.915430496532,1.0,0.0,0.0,0.0,1.0,0.0,0.0,0.0,1.0,-0.126058116555,-0.356100320816,-0.28632363677,1.21846967915e-07,0.0,0.0,0.0,1.21846967915e-07,0.0,0.0,0.0,1.21846967915e-07,0.97085835,1.0395049,15.0434011,9e-08,0.0,0.0,0.0,9e-08,0.0,0.0,0.0,9e-08
1536691758747744280,1457,1536691758747350200,base_link,-0.384873272421,0.0259515154303,-0.0379085551093,-0.921825376344,1.0,0.0,0.0,0.0,1.0,0.0,0.0,0.0,1.0,-0.028652921319,-0.297115772963,-0.270291507244,1.21846967915e-07,0.0,0.0,0.0,1.21846967915e-07,0.0,0.0,0.0,1.21846967915e-07,0.8237586,1.26505785,14.44519545,9e-08,0.0,0.0,0.0,9e-08,0.0,0.0,0.0,9e-08
1536691759196508216,1458,1536691759196113560,base_link,-0.378014094392,0.0523175728328,0.0609283752545,-0.922310115473,1.0,0.0,0.0,0.0,1.0,0.0,0.0,0.0,1.0,-0.00613840296865,-0.286295384169,-0.351379990578,1.21846967915e-07,0.0,0.0,0.0,1.21846967915e-07,0.0,0.0,0.0,1.21846967915e-07,0.3530394,0.83356525,11.93469305,9e-08,0.0,0.0,0.0,9e-08,0.0,0.0,0.0,9e-08
1536691759679003736,1459,1536691759678674904,base_link,-0.377391511642,0.0964745857391,0.151183793836,-0.908521745325,1.0,0.0,0.0,0.0,1.0,0.0,0.0,0.0,1.0,-0.0179602950811,-0.325741291046,-0.240341052413,1.21846967915e-07,0.0,0.0,0.0,1.21846967915e-07,0.0,0.0,0.0,1.21846967915e-07,0.36284605,0.6080123,14.3373223,9e-08,0.0,0.0,0.0,9e-08,0.0,0.0,0.0,9e-08
1536691760094090936,1460,1536691760093740504,base_link,-0.357767151994,0.127897177184,0.219586711189,-0.898569225654,1.0,0.0,0.0,0.0,1.0,0.0,0.0,0.0,1.0,-0.138136610389,-0.212071686983,-0.259558558464,1.21846967915e-07,0.0,0.0,0.0,1.21846967915e-07,0.0,0.0,0.0,1.21846967915e-07,0.20593965,0.9610517,13.3566573,9e-08,0.0,0.0,0.0,9e-08,0.0,0.0,0.0,9e-08
1536691760419241688,1461,1536691760406724824,base_link,-0.340108006299,0.133201629083,0.271837537082,-0.890330401308,1.0,0.0,0.0,0.0,1.0,0.0,0.0,0.0,1.0,-0.145560801029,-0.150856226683,-0.340052336454,1.21846967915e-07,0.0,0.0,0.0,1.21846967915e-07,0.0,0.0,0.0,1.21846967915e-07,-0.0196133,1.1179581,11.571847,9e-08,0.0,0.0,0.0,9e-08,0.0,0.0,0.0,9e-08
1536691760873745176,1462,1536691760873508568,base_link,-0.341434886434,0.139241347935,0.355692606556,-0.858788003521,1.0,0.0,0.0,0.0,1.0,0.0,0.0,0.0,1.0,0.0767469108105,-0.190288946033,-0.31959438324,1.21846967915e-07,0.0,0.0,0.0,1.21846967915e-07,0.0,0.0,0.0,1.21846967915e-07,-0.196133,0.59820565,10.16949605,9e-08,0.0,0.0,0.0,9e-08,0.0,0.0,0.0,9e-08
