%time,field.header.seq,field.header.stamp,field.header.frame_id,field.orientation.x,field.orientation.y,field.orientation.z,field.orientation.w,field.orientation_covariance0,field.orientation_covariance1,field.orientation_covariance2,field.orientation_covariance3,field.orientation_covariance4,field.orientation_covariance5,field.orientation_covariance6,field.orientation_covariance7,field.orientation_covariance8,field.angular_velocity.x,field.angular_velocity.y,field.angular_velocity.z,field.angular_velocity_covariance0,field.angular_velocity_covariance1,field.angular_velocity_covariance2,field.angular_velocity_covariance3,field.angular_velocity_covariance4,field.angular_velocity_covariance5,field.angular_velocity_covariance6,field.angular_velocity_covariance7,field.angular_velocity_covariance8,field.linear_acceleration.x,field.linear_acceleration.y,field.linear_acceleration.z,field.linear_acceleration_covariance0,field.linear_acceleration_covariance1,field.linear_acceleration_covariance2,field.linear_acceleration_covariance3,field.linear_acceleration_covariance4,field.linear_acceleration_covariance5,field.linear_acceleration_covariance6,field.linear_acceleration_covariance7,field.linear_acceleration_covariance8
1532134704751099408,3413,1532134704750883728,base_link,0.000717612611828,-0.139650140369,-0.98938812513,-0.0401056252855,1.0,0.0,0.0,0.0,1.0,0.0,0.0,0.0,1.0,0.802229464054,-0.232096731663,0.0529514960945,1.21846967915e-07,0.0,0.0,0.0,1.21846967915e-07,0.0,0.0,0.0,1.21846967915e-07,-1.55925735,0.2941995,15.9848395,9e-08,0.0,0.0,0.0,9e-08,0.0,0.0,0.0,9e-08
1532134705076622416,3414,1532134705075957168,base_link,-0.030115276189,-0.219457532719,-0.973389632415,-0.0586863270344,1.0,0.0,0.0,0.0,1.0,0.0,0.0,0.0,1.0,0.367531180382,-0.195386230946,-0.238895252347,1.21846967915e-07,0.0,0.0,0.0,1.21846967915e-07,0.0,0.0,0.0,1.21846967915e-07,-1.79461695,1.0002783,11.4149406,9e-08,0.0,0.0,0.0,9e-08,0.0,0.0,0.0,9e-08
1532134705437872496,3415,1532134705437577040,base_link,-0.0621990238326,-0.272607304017,-0.953253703914,-0.11455965784,1.0,0.0,0.0,0.0,1.0,0.0,0.0,0.0,1.0,0.336592882872,-0.194277197123,-0.267442792654,1.21846967915e-07,0.0,0.0,0.0,1.21846967915e-07,0.0,0.0,0.0,1.21846967915e-07,-1.372931,-0.5295591,11.36590735,9e-08,0.0,0.0,0.0,9e-08,0.0,0.0,0.0,9e-08
1532134705703600144,3416,1532134705703381776,base_link,-0.0831425294284,-0.285801228803,-0.944286525375,-0.140456168998,1.0,0.0,0.0,0.0,1.0,0.0,0.0,0.0,1.0,0.0915367901325,-0.19383892417,-0.0684052333236,1.21846967915e-07,0.0,0.0,0.0,1.21846967915e-07,0.0,0.0,0.0,1.21846967915e-07,-1.2552512,0.20593965,10.95402805,9e-08,0.0,0.0,0.0,9e-08,0.0,0.0,0.0,9e-08
1532134706205998352,3417,1532134706205562128,base_link,-0.0972722011197,-0.240493986861,-0.952028574518,-0.16230327931,1.0,0.0,0.0,0.0,1.0,0.0,0.0,0.0,1.0,-0.14752882719,0.0265016946942,-0.123909518123,1.21846967915e-07,0.0,0.0,0.0,1.21846967915e-07,0.0,0.0,0.0,1.21846967915e-07,-1.0198916,0.24516625,11.15016105,9e-08,0.0,0.0,0.0,9e-08,0.0,0.0,0.0,9e-08
1532134706633090896,3418,1532134706631991856,base_link,-0.0479546671486,-0.168834878915,-0.961325910352,-0.212244264106,1.0,0.0,0.0,0.0,1.0,0.0,0.0,0.0,1.0,-0.58157235384,0.188192054629,-0.295476675034,1.21846967915e-07,0.0,0.0,0.0,1.21846967915e-07,0.0,0.0,0.0,1.21846967915e-07,-1.0591182,0.77472535,6.9234949,9e-08,0.0,0.0,0.0,9e-08,0.0,0.0,0.0,9e-08
1532134706979802704,3419,1532134706978823216,base_link,0.00887878113576,-0.121566761225,-0.958927268082,-0.256127281522,1.0,0.0,0.0,0.0,1.0,0.0,0.0,0.0,1.0,-0.263811856508,0.239180192351,-0.202944934368,1.21846967915e-07,0.0,0.0,0.0,1.21846967915e-07,0.0,0.0,0.0,1.21846967915e-07,-1.06892485,-0.392266,7.0215614,9e-08,0.0,0.0,0.0,9e-08,0.0,0.0,0.0,9e-08
1532134707442258128,3420,1532134707441974064,base_link,0.066511376115,-0.0948832468132,-0.95396447855,-0.276631849189,1.0,0.0,0.0,0.0,1.0,0.0,0.0,0.0,1.0,-0.194461941719,0.184539496899,-0.0790973603725,1.21846967915e-07,0.0,0.0,0.0,1.21846967915e-07,0.0,0.0,0.0,1.21846967915e-07,-1.08853815,0.22555295,7.649187,9e-08,0.0,0.0,0.0,9e-08,0.0,0.0,0.0,9e-08
1532134707946915152,3421,1532134707946281712,base_link,0.12385743224,-0.08198477561,-0.938539756045,-0.311578175374,1.0,0.0,0.0,0.0,1.0,0.0,0.0,0.0,1.0,-0.0613590851426,0.193380355835,-0.188961803913,1.21846967915e-07,0.0,0.0,0.0,1.21846967915e-07,0.0,0.0,0.0,1.21846967915e-07,-1.26505785,7.5300709481e-16,6.14876955,9e-08,0.0,0.0,0.0,9e-08,0.0,0.0,0.0,9e-08
1532134708304774192,3422,1532134708304395760,base_link,0.146965719766,-0.0780655284693,-0.930974517752,-0.324951223685,1.0,0.0,0.0,0.0,1.0,0.0,0.0,0.0,1.0,-0.126834347844,0.0975898429751,-0.00475098378956,1.21846967915e-07,0.0,0.0,0.0,1.21846967915e-07,0.0,0.0,0.0,1.21846967915e-07,-1.24544455,-0.392266,7.93357985,9e-08,0.0,0.0,0.0,9e-08,0.0,0.0,0.0,9e-08
1532134708624768656,3423,1532134708624143952,base_link,0.157267228736,-0.0808266432806,-0.933359559216,-0.312368381436,1.0,0.0,0.0,0.0,1.0,0.0,0.0,0.0,1.0,0.0389748848975,0.0424135588109,0.0938408002257,1.21846967915e-07,0.0,0.0,0.0,1.21846967915e-07,0.0,0.0,0.0,1.21846967915e-07,-1.2356379,-0.0196133,8.3356525,9e-08,0.0,0.0,0.0,9e-08,0.0,0.0,0.0,9e-08
1532134709096185232,3424,1532134709095419184,base_link,0.165668109019,-0.0797780601598,-0.931125379293,-0.314952483412,1.0,0.0,0.0,0.0,1.0,0.0,0.0,0.0,1.0,0.197143852711,-0.0114284753799,-0.0540136434138,1.21846967915e-07,0.0,0.0,0.0,1.21846967915e-07,0.0,0.0,0.0,1.21846967915e-07,-1.34351105,-0.2549729,9.03192465,9e-08,0.0,0.0,0.0,9e-08,0.0,0.0,0.0,9e-08
1532134709383021520,3425,1532134709382619088,base_link,0.153040374999,-0.121438438645,-0.927332257539,-0.31919623019,1.0,0.0,0.0,0.0,1.0,0.0,0.0,0.0,1.0,0.134070128202,0.0493500828743,0.132273226976,1.21846967915e-07,0.0,0.0,0.0,1.21846967915e-07,0.0,0.0,0.0,1.21846967915e-07,-1.28467115,-0.36284605,9.7674234,9e-08,0.0,0.0,0.0,9e-08,0.0,0.0,0.0,9e-08
1532134709858486160,3426,1532134709857850384,base_link,0.140932974376,-0.116885620247,-0.941542825392,-0.282794548156,1.0,0.0,0.0,0.0,1.0,0.0,0.0,0.0,1.0,-0.219035372138,-0.0513952411711,0.110293231905,1.21846967915e-07,0.0,0.0,0.0,1.21846967915e-07,0.0,0.0,0.0,1.21846967915e-07,-1.4906108,0.24516625,9.3163175,9e-08,0.0,0.0,0.0,9e-08,0.0,0.0,0.0,9e-08
1532134710354588560,3427,1532134710354244720,base_link,0.144538735812,-0.053592093936,-0.945214144799,-0.287761466826,1.0,0.0,0.0,0.0,1.0,0.0,0.0,0.0,1.0,-0.240449249744,-0.0509521625936,-0.174468368292,1.21846967915e-07,0.0,0.0,0.0,1.21846967915e-07,0.0,0.0,0.0,1.21846967915e-07,-1.52003075,-0.1372931,11.6699135,9e-08,0.0,0.0,0.0,9e-08,0.0,0.0,0.0,9e-08
1532134710683741904,3428,1532134710682268496,base_link,0.128462335631,-0.0442852815128,-0.943637526733,-0.301802021707,1.0,0.0,0.0,0.0,1.0,0.0,0.0,0.0,1.0,0.126705259085,-0.120172947645,0.0147003727034,1.21846967915e-07,0.0,0.0,0.0,1.21846967915e-07,0.0,0.0,0.0,1.21846967915e-07,-1.6279039,0.06864655,11.26784085,9e-08,0.0,0.0,0.0,9e-08,0.0,0.0,0.0,9e-08
1532134711081512208,3429,1532134711079917456,base_link,0.0934336488756,-0.0406013788387,-0.950059828658,-0.294971190567,1.0,0.0,0.0,0.0,1.0,0.0,0.0,0.0,1.0,-0.263804674149,-0.185927391052,0.0909710153937,1.21846967915e-07,0.0,0.0,0.0,1.21846967915e-07,0.0,0.0,0.0,1.21846967915e-07,-1.48080415,-0.0392266,13.75872995,9e-08,0.0,0.0,0.0,9e-08,0.0,0.0,0.0,9e-08
1532134711527151184,3430,1532134711526816432,base_link,0.0567398564828,-0.0255313510091,-0.958997316114,-0.276501150971,1.0,0.0,0.0,0.0,1.0,0.0,0.0,0.0,1.0,0.0689622834325,-0.140688702464,0.0468639433384,1.21846967915e-07,0.0,0.0,0.0,1.21846967915e-07,0.0,0.0,0.0,1.21846967915e-07,-1.53964405,0.65704555,12.50347875,9e-08,0.0,0.0,0.0,9e-08,0.0,0.0,0.0,9e-08
1532134711941011536,3431,1532134711940282640,base_link,0.026678334934,-0.0373483432873,-0.959450749692,-0.278114412814,1.0,0.0,0.0,0.0,1.0,0.0,0.0,0.0,1.0,0.204531639814,-0.125987887383,-0.0197911709547,1.21846967915e-07,0.0,0.0,0.0,1.21846967915e-07,0.0,0.0,0.0,1.21846967915e-07,-1.569064,1.50000934835e-15,12.24850585,9e-08,0.0,0.0,0.0,9e-08,0.0,0.0,0.0,9e-08
1532134712362639024,3432,1532134712362396304,base_link,-0.00586153127551,-0.0893831440053,-0.953171871866,-0.288859271451,1.0,0.0,0.0,0.0,1.0,0.0,0.0,0.0,1.0,0.207058817148,-0.0582018904388,-0.046312905848,1.21846967915e-07,0.0,0.0,0.0,1.21846967915e-07,0.0,0.0,0.0,1.21846967915e-07,-1.48080415,-0.22555295,10.6696352,9e-08,0.0,0.0,0.0,9e-08,0.0,0.0,0.0,9e-08
1532134712806513488,3433,1532134712806255184,base_link,-0.0370256026657,-0.174580669498,-0.933029759177,-0.312419850641,1.0,0.0,0.0,0.0,1.0,0.0,0.0,0.0,1.0,0.612302064896,-0.031239323318,-0.178621441126,1.21846967915e-07,0.0,0.0,0.0,1.21846967915e-07,0.0,0.0,0.0,1.21846967915e-07,-1.48080415,0.0196133,9.8851032,9e-08,0.0,0.0,0.0,9e-08,0.0,0.0,0.0,9e-08
1532134713258298224,3434,1532134713257966160,base_link,-0.0755788614092,-0.280435523374,-0.889817159421,-0.351950530242,1.0,0.0,0.0,0.0,1.0,0.0,0.0,0.0,1.0,0.465647429228,-0.0701136440039,-0.196160331368,1.21846967915e-07,0.0,0.0,0.0,1.21846967915e-07,0.0,0.0,0.0,1.21846967915e-07,-1.2552512,0.4118793,9.97336305,9e-08,0.0,0.0,0.0,9e-08,0.0,0.0,0.0,9e-08
1532134713579129264,3435,1532134713578841936,base_link,-0.0956005475216,-0.318474702471,-0.862343983796,-0.381834064496,1.0,0.0,0.0,0.0,1.0,0.0,0.0,0.0,1.0,0.126508101821,-0.132272392511,-0.258511692286,1.21846967915e-07,0.0,0.0,0.0,1.21846967915e-07,0.0,0.0,0.0,1.21846967915e-07,-1.1964113,0.83356525,8.825985,9e-08,0.0,0.0,0.0,9e-08,0.0,0.0,0.0,9e-08
1532134714059836464,3436,1532134714058693232,base_link,-0.114363527698,-0.34088666625,-0.812764594554,-0.458400456092,1.0,0.0,0.0,0.0,1.0,0.0,0.0,0.0,1.0,0.196774512529,-0.165714353323,-0.340365290642,1.21846967915e-07,0.0,0.0,0.0,1.21846967915e-07,0.0,0.0,0.0,1.21846967915e-07,-1.3337044,0.2745862,9.67916355,9e-08,0.0,0.0,0.0,9e-08,0.0,0.0,0.0,9e-08
1532134714491459728,3437,1532134714485948816,base_link,-0.15114502294,-0.351581323568,-0.761326174662,-0.523381515467,1.0,0.0,0.0,0.0,1.0,0.0,0.0,0.0,1.0,0.149846315384,-0.25574952364,-0.313945859671,1.21846967915e-07,0.0,0.0,0.0,1.21846967915e-07,0.0,0.0,0.0,1.21846967915e-07,-1.2356379,0.2353596,11.1599677,9e-08,0.0,0.0,0.0,9e-08,0.0,0.0,0.0,9e-08
1532134714830976400,3438,1532134714830659824,base_link,-0.174458498936,-0.336174618329,-0.718947345936,-0.582808349213,1.0,0.0,0.0,0.0,1.0,0.0,0.0,0.0,1.0,-0.0265442002565,-0.348885536194,-0.359337449074,1.21846967915e-07,0.0,0.0,0.0,1.21846967915e-07,0.0,0.0,0.0,1.21846967915e-07,-1.14737805,0.3138128,12.6505785,9e-08,0.0,0.0,0.0,9e-08,0.0,0.0,0.0,9e-08
1532134715310560848,3439,1532134715310274416,base_link,-0.21492537382,-0.306111325064,-0.638563832473,-0.672561649378,1.0,0.0,0.0,0.0,1.0,0.0,0.0,0.0,1.0,0.202835083008,-0.405547738075,-0.389956742525,1.21846967915e-07,0.0,0.0,0.0,1.21846967915e-07,0.0,0.0,0.0,1.21846967915e-07,-0.8237586,0.4314926,13.42530385,9e-08,0.0,0.0,0.0,9e-08,0.0,0.0,0.0,9e-08
1532134715538441264,3440,1532134715538154960,base_link,-0.240940083802,-0.289527891512,-0.597612778823,-0.7077997193,1.0,0.0,0.0,0.0,1.0,0.0,0.0,0.0,1.0,0.0593524947762,-0.36322671175,-0.274849176407,1.21846967915e-07,0.0,0.0,0.0,1.21846967915e-07,0.0,0.0,0.0,1.21846967915e-07,-0.87279185,0.1569064,14.64132845,9e-08,0.0,0.0,0.0,9e-08,0.0,0.0,0.0,9e-08
1532134715932071888,3441,1532134715931778096,base_link,-0.262058400733,-0.24662738092,-0.536559086605,-0.763285448681,1.0,0.0,0.0,0.0,1.0,0.0,0.0,0.0,1.0,-0.17295897007,-0.36754566431,-0.390393674374,1.21846967915e-07,0.0,0.0,0.0,1.21846967915e-07,0.0,0.0,0.0,1.21846967915e-07,-0.8629852,0.18632635,15.0434011,9e-08,0.0,0.0,0.0,9e-08,0.0,0.0,0.0,9e-08
1532134716316906736,3442,1532134716315528368,base_link,-0.297185353392,-0.215299475267,-0.453140421171,-0.81239815385,1.0,0.0,0.0,0.0,1.0,0.0,0.0,0.0,1.0,0.208222791553,-0.390565425158,-0.339500308037,1.21846967915e-07,0.0,0.0,0.0,1.21846967915e-07,0.0,0.0,0.0,1.21846967915e-07,-0.784532,0.36284605,14.07254275,9e-08,0.0,0.0,0.0,9e-08,0.0,0.0,0.0,9e-08
1532134716762680304,3443,1532134716761605712,base_link,-0.33891063217,-0.165281566844,-0.36621933274,-0.850708520817,1.0,0.0,0.0,0.0,1.0,0.0,0.0,0.0,1.0,0.0948713347316,-0.416669845581,-0.267187684774,1.21846967915e-07,0.0,0.0,0.0,1.21846967915e-07,0.0,0.0,0.0,1.21846967915e-07,-0.8825985,0.4707192,13.85679645,9e-08,0.0,0.0,0.0,9e-08,0.0,0.0,0.0,9e-08
1532134717083271536,3444,1532134717083059184,base_link,-0.37788528902,-0.132614887483,-0.293348884817,-0.868079738121,1.0,0.0,0.0,0.0,1.0,0.0,0.0,0.0,1.0,0.256770402193,-0.438952177763,-0.359196513891,1.21846967915e-07,0.0,0.0,0.0,1.21846967915e-07,0.0,0.0,0.0,1.21846967915e-07,-0.71588545,0.1569064,16.2005858,9e-08,0.0,0.0,0.0,9e-08,0.0,0.0,0.0,9e-08
1532134717499651536,3445,1532134717499417104,base_link,-0.407278619405,-0.087908360317,-0.192501049234,-0.888447855761,1.0,0.0,0.0,0.0,1.0,0.0,0.0,0.0,1.0,-0.06518009305,-0.41200876236,-0.396168321371,1.21846967915e-07,0.0,0.0,0.0,1.21846967915e-07,0.0,0.0,0.0,1.21846967915e-07,-0.40207265,0.89240515,12.944778,9e-08,0.0,0.0,0.0,9e-08,0.0,0.0,0.0,9e-08
1532134717926865456,3446,1532134717926009584,base_link,-0.426342192742,-0.047134853392,-0.0612349610578,-0.901255191291,1.0,0.0,0.0,0.0,1.0,0.0,0.0,0.0,1.0,0.0224896613508,-0.475857764482,-0.422264695168,1.21846967915e-07,0.0,0.0,0.0,1.21846967915e-07,0.0,0.0,0.0,1.21846967915e-07,-0.3334261,0.99047165,12.13082605,9e-08,0.0,0.0,0.0,9e-08,0.0,0.0,0.0,9e-08
1532134718312517168,3447,1532134718309549904,base_link,-0.421045257855,0.0153918270335,0.0420381013866,-0.905934203201,1.0,0.0,0.0,0.0,1.0,0.0,0.0,0.0,1.0,-0.193149507046,-0.499403178692,-0.28605273366,1.21846967915e-07,0.0,0.0,0.0,1.21846967915e-07,0.0,0.0,0.0,1.21846967915e-07,0.18632635,0.3334261,13.95486295,9e-08,0.0,0.0,0.0,9e-08,0.0,0.0,0.0,9e-08
1532134718650290160,3448,1532134718650031984,base_link,-0.395679155041,0.0715659596626,0.124819193362,-0.907048228405,1.0,0.0,0.0,0.0,1.0,0.0,0.0,0.0,1.0,-0.0965854376554,-0.474967896938,-0.314655780792,1.21846967915e-07,0.0,0.0,0.0,1.21846967915e-07,0.0,0.0,0.0,1.21846967915e-07,0.18632635,0.5099458,13.91563635,9e-08,0.0,0.0,0.0,9e-08,0.0,0.0,0.0,9e-08
1532134719057514640,3449,1532134719057119952,base_link,-0.368193229239,0.126702765584,0.229635745879,-0.891990795553,1.0,0.0,0.0,0.0,1.0,0.0,0.0,0.0,1.0,-0.245238825679,-0.457627356052,-0.374331593513,1.21846967915e-07,0.0,0.0,0.0,1.21846967915e-07,0.0,0.0,0.0,1.21846967915e-07,0.40207265,0.89240515,14.513842,9e-08,0.0,0.0,0.0,9e-08,0.0,0.0,0.0,9e-08
1532134719397509072,3450,1532134719397280400,base_link,-0.297728895254,0.142173396249,0.318810137245,-0.888540559975,1.0,0.0,0.0,0.0,1.0,0.0,0.0,0.0,1.0,-0.526414990425,-0.329857707024,-0.434567183256,1.21846967915e-07,0.0,0.0,0.0,1.21846967915e-07,0.0,0.0,0.0,1.21846967915e-07,0.48052585,0.7649187,14.24906245,9e-08,0.0,0.0,0.0,9e-08,0.0,0.0,0.0,9e-08
1532134719779230704,3451,1532134719778489968,base_link,-0.214711716387,0.149063129167,0.413719397203,-0.872075296489,1.0,0.0,0.0,0.0,1.0,0.0,0.0,0.0,1.0,-0.348298370838,-0.281703710556,-0.310186266899,1.21846967915e-07,0.0,0.0,0.0,1.21846967915e-07,0.0,0.0,0.0,1.21846967915e-07,0.53936575,0.28439285,13.5920169,9e-08,0.0,0.0,0.0,9e-08,0.0,0.0,0.0,9e-08
1532134720181456688,3452,1532134720181131664,base_link,-0.12755478344,0.146435244789,0.473247392625,-0.859257471122,1.0,0.0,0.0,0.0,1.0,0.0,0.0,0.0,1.0,-0.381510794163,-0.151084259152,-0.137209042907,1.21846967915e-07,0.0,0.0,0.0,1.21846967915e-07,0.0,0.0,0.0,1.21846967915e-07,0.18632635,-0.1372931,12.09159945,9e-08,0.0,0.0,0.0,9e-08,0.0,0.0,0.0,9e-08
1532134720580807344,3453,1532134720579347056,base_link,-0.0308106008905,0.112817233144,0.498603311047,-0.858904952245,1.0,0.0,0.0,0.0,1.0,0.0,0.0,0.0,1.0,-0.581046044827,-0.0157816167921,0.0811201110482,1.21846967915e-07,0.0,0.0,0.0,1.21846967915e-07,0.0,0.0,0.0,1.21846967915e-07,0.0980665,-0.4707192,9.40457735,9e-08,0.0,0.0,0.0,9e-08,0.0,0.0,0.0,9e-08
1532134720995769648,3454,1532134720995344752,base_link,0.0691305027969,0.0526554092746,0.49667570773,-0.863574908626,1.0,0.0,0.0,0.0,1.0,0.0,0.0,0.0,1.0,-0.480171829462,0.0594621263444,0.0679493397474,1.21846967915e-07,0.0,0.0,0.0,1.21846967915e-07,0.0,0.0,0.0,1.21846967915e-07,0.22555295,0.06864655,7.99241975,9e-08,0.0,0.0,0.0,9e-08,0.0,0.0,0.0,9e-08
1532134721333235824,3455,1532134721332905520,base_link,0.125887151058,0.0103840237156,0.49032615449,-0.862336859628,1.0,0.0,0.0,0.0,1.0,0.0,0.0,0.0,1.0,-0.46273675561,0.0220645777881,0.102697715163,1.21846967915e-07,0.0,0.0,0.0,1.21846967915e-07,0.0,0.0,0.0,1.21846967915e-07,0.85317855,-0.1569064,10.36562905,9e-08,0.0,0.0,0.0,9e-08,0.0,0.0,0.0,9e-08
1532134721731230448,3456,1532134721731019440,base_link,0.234572360087,-0.0601908089052,0.446632118557,-0.861320280198,1.0,0.0,0.0,0.0,1.0,0.0,0.0,0.0,1.0,-0.215316176414,-0.0214489363134,0.298884361982,1.21846967915e-07,0.0,0.0,0.0,1.21846967915e-07,0.0,0.0,0.0,1.21846967915e-07,0.9414384,-0.4118793,8.38468575,9e-08,0.0,0.0,0.0,9e-08,0.0,0.0,0.0,9e-08
1532134722206279504,3457,1532134722204837200,base_link,0.224518590052,-0.0560409447326,0.368787975969,-0.900247879206,1.0,0.0,0.0,0.0,1.0,0.0,0.0,0.0,1.0,0.1636531353,-0.108836919069,0.397676676512,1.21846967915e-07,0.0,0.0,0.0,1.21846967915e-07,0.0,0.0,0.0,1.21846967915e-07,1.48080415,-0.3138128,13.03303785,9e-08,0.0,0.0,0.0,9e-08,0.0,0.0,0.0,9e-08
1532134722685699664,3458,1532134722685429136,base_link,0.197007771649,-0.039514578403,0.282772485682,-0.937905249663,1.0,0.0,0.0,0.0,1.0,0.0,0.0,0.0,1.0,0.221489980817,-0.0801188349724,0.262453615665,1.21846967915e-07,0.0,0.0,0.0,1.21846967915e-07,0.0,0.0,0.0,1.21846967915e-07,0.6864655,0.3138128,9.9047165,9e-08,0.0,0.0,0.0,9e-08,0.0,0.0,0.0,9e-08
1532134723087473040,3459,1532134723085981648,base_link,0.152540610132,-0.0197778775376,0.247720256743,-0.956543188894,1.0,0.0,0.0,0.0,1.0,0.0,0.0,0.0,1.0,0.398941099644,-0.0421175584197,0.145031228662,1.21846967915e-07,0.0,0.0,0.0,1.21846967915e-07,0.0,0.0,0.0,1.21846967915e-07,0.6864655,0.3726527,10.1204628,9e-08,0.0,0.0,0.0,9e-08,0.0,0.0,0.0,9e-08
1532134723340111600,3460,1532134723339750000,base_link,0.0965520139666,-0.00332851140819,0.228689246707,-0.968693892853,1.0,0.0,0.0,0.0,1.0,0.0,0.0,0.0,1.0,0.507683157921,-0.0265164654702,0.151117622852,1.21846967915e-07,0.0,0.0,0.0,1.21846967915e-07,0.0,0.0,0.0,1.21846967915e-07,0.5687857,0.2549729,9.56148375,9e-08,0.0,0.0,0.0,9e-08,0.0,0.0,0.0,9e-08
1532134723783833712,3461,1532134723783589136,base_link,-0.0101084941467,0.0192418601345,0.209345091722,-0.977600225929,1.0,0.0,0.0,0.0,1.0,0.0,0.0,0.0,1.0,0.317736148834,0.0484857708216,0.0422704145312,1.21846967915e-07,0.0,0.0,0.0,1.21846967915e-07,0.0,0.0,0.0,1.21846967915e-07,0.7256921,0.4118793,9.218251,9e-08,0.0,0.0,0.0,9e-08,0.0,0.0,0.0,9e-08
1532134724091756656,3462,1532134724091076400,base_link,-0.0728889800746,0.0232059135284,0.203645534377,-0.976051831866,1.0,0.0,0.0,0.0,1.0,0.0,0.0,0.0,1.0,0.264621824026,0.0354868471622,-0.00939605757594,1.21846967915e-07,0.0,0.0,0.0,1.21846967915e-07,0.0,0.0,0.0,1.21846967915e-07,0.7256921,0.588399,9.11037785,9e-08,0.0,0.0,0.0,9e-08,0.0,0.0,0.0,9e-08
1532134724554216560,3463,1532134724553870960,base_link,-0.0734852319048,0.011143458724,0.21421837622,-0.97395391642,1.0,0.0,0.0,0.0,1.0,0.0,0.0,0.0,1.0,-0.0244909189641,0.0502421036363,-0.139277517796,1.21846967915e-07,0.0,0.0,0.0,1.21846967915e-07,0.0,0.0,0.0,1.21846967915e-07,1.02969825,0.61781895,10.09104285,9e-08,0.0,0.0,0.0,9e-08,0.0,0.0,0.0,9e-08
1532134725061448368,3464,1532134725061137456,base_link,-0.103064232735,0.0198437857857,0.252763533729,-0.961818373766,1.0,0.0,0.0,0.0,1.0,0.0,0.0,0.0,1.0,0.202024504542,-0.0777825564146,-0.148841246963,1.21846967915e-07,0.0,0.0,0.0,1.21846967915e-07,0.0,0.0,0.0,1.21846967915e-07,0.8629852,0.48052585,10.8461549,9e-08,0.0,0.0,0.0,9e-08,0.0,0.0,0.0,9e-08
1532134725498864848,3465,1532134725498514800,base_link,-0.14522389445,0.0501702972481,0.275612029438,-0.948910412517,1.0,0.0,0.0,0.0,1.0,0.0,0.0,0.0,1.0,0.201933339238,-0.126802623272,-0.0486420542002,1.21846967915e-07,0.0,0.0,0.0,1.21846967915e-07,0.0,0.0,0.0,1.21846967915e-07,0.9218251,0.30400615,11.8072066,9e-08,0.0,0.0,0.0,9e-08,0.0,0.0,0.0,9e-08
1532134725802552080,3466,1532134725801354416,base_link,-0.145063328375,0.0615862638437,0.284280364683,-0.945699972043,1.0,0.0,0.0,0.0,1.0,0.0,0.0,0.0,1.0,0.0464483387768,-0.0752852857113,-0.0972359925508,1.21846967915e-07,0.0,0.0,0.0,1.21846967915e-07,0.0,0.0,0.0,1.21846967915e-07,0.71588545,0.75511205,10.8461549,9e-08,0.0,0.0,0.0,9e-08,0.0,0.0,0.0,9e-08
1532134726230952496,3467,1532134726230282896,base_link,-0.132209493292,0.0641175596926,0.312578575232,-0.938458428876,1.0,0.0,0.0,0.0,1.0,0.0,0.0,0.0,1.0,-0.17153018713,-0.0411422997713,-0.144170165062,1.21846967915e-07,0.0,0.0,0.0,1.21846967915e-07,0.0,0.0,0.0,1.21846967915e-07,0.67665885,0.7256921,10.89518815,9e-08,0.0,0.0,0.0,9e-08,0.0,0.0,0.0,9e-08
1532134726539087568,3468,1532134726538608464,base_link,-0.0759342429341,0.0408612842434,0.337196951312,-0.937476699564,1.0,0.0,0.0,0.0,1.0,0.0,0.0,0.0,1.0,-0.574955761433,0.0432479046285,-0.144082397223,1.21846967915e-07,0.0,0.0,0.0,1.21846967915e-07,0.0,0.0,0.0,1.21846967915e-07,0.4511059,0.61781895,8.67888525,9e-08,0.0,0.0,0.0,9e-08,0.0,0.0,0.0,9e-08
1532134726811545392,3469,1532134726811233584,base_link,-0.0403414696643,0.0182638846805,0.360885279971,-0.931558270342,1.0,0.0,0.0,0.0,1.0,0.0,0.0,0.0,1.0,-0.0640254318714,0.0585929974914,-0.175110787153,1.21846967915e-07,0.0,0.0,0.0,1.21846967915e-07,0.0,0.0,0.0,1.21846967915e-07,0.3530394,0.22555295,9.01231135,9e-08,0.0,0.0,0.0,9e-08,0.0,0.0,0.0,9e-08
1532134727288211696,3470,1532134727287347184,base_link,-0.0512294647092,0.0094469476607,0.388732100737,-0.919876976004,1.0,0.0,0.0,0.0,1.0,0.0,0.0,0.0,1.0,0.239222705364,-0.00864065252244,-0.0737300589681,1.21846967915e-07,0.0,0.0,0.0,1.21846967915e-07,0.0,0.0,0.0,1.21846967915e-07,0.392266,-0.0784532,8.83579165,9e-08,0.0,0.0,0.0,9e-08,0.0,0.0,0.0,9e-08
1532134727710831632,3471,1532134727710561040,base_link,-0.0652204737444,0.031399209581,0.388637547447,-0.918542996357,1.0,0.0,0.0,0.0,1.0,0.0,0.0,0.0,1.0,-0.0875668153167,-0.0692999213934,-0.048503767699,1.21846967915e-07,0.0,0.0,0.0,1.21846967915e-07,0.0,0.0,0.0,1.21846967915e-07,0.75511205,0.53936575,11.18938765,9e-08,0.0,0.0,0.0,9e-08,0.0,0.0,0.0,9e-08
1532134728177044624,3472,1532134728176704272,base_link,-0.0873121047864,0.0527713760917,0.410111454816,-0.906311410527,1.0,0.0,0.0,0.0,1.0,0.0,0.0,0.0,1.0,0.400391757488,-0.00843017827719,-0.0906150713563,1.21846967915e-07,0.0,0.0,0.0,1.21846967915e-07,0.0,0.0,0.0,1.21846967915e-07,0.4118793,-0.26477955,9.56148375,9e-08,0.0,0.0,0.0,9e-08,0.0,0.0,0.0,9e-08
1532134728559955760,3473,1532134728559541808,base_link,-0.124669630108,0.0779623185628,0.405817635155,-0.902048450589,1.0,0.0,0.0,0.0,1.0,0.0,0.0,0.0,1.0,0.0423969328403,-0.0540157295763,-0.00326821720228,1.21846967915e-07,0.0,0.0,0.0,1.21846967915e-07,0.0,0.0,0.0,1.21846967915e-07,0.4118793,0.38245935,9.65955025,9e-08,0.0,0.0,0.0,9e-08,0.0,0.0,0.0,9e-08
1532134729050585296,3474,1532134729050299408,base_link,-0.136852656887,0.0778044424111,0.438267261206,-0.884951765238,1.0,0.0,0.0,0.0,1.0,0.0,0.0,0.0,1.0,0.122626513243,0.0320316366851,-0.230822384357,1.21846967915e-07,0.0,0.0,0.0,1.21846967915e-07,0.0,0.0,0.0,1.21846967915e-07,0.22555295,0.2353596,7.9826131,9e-08,0.0,0.0,0.0,9e-08,0.0,0.0,0.0,9e-08
1532134729468147152,3475,1532134729467618704,base_link,-0.178495047837,0.0943043428419,0.479406538878,-0.854058299708,1.0,0.0,0.0,0.0,1.0,0.0,0.0,0.0,1.0,0.214472427964,-0.0760269388556,-0.16891361773,1.21846967915e-07,0.0,0.0,0.0,1.21846967915e-07,0.0,0.0,0.0,1.21846967915e-07,0.4118793,0.36284605,9.60071035,9e-08,0.0,0.0,0.0,9e-08,0.0,0.0,0.0,9e-08
1532134729887781040,3476,1532134729887247312,base_link,-0.194381519664,0.120098567846,0.509146705631,-0.829796234602,1.0,0.0,0.0,0.0,1.0,0.0,0.0,0.0,1.0,0.189026087523,-0.147532731295,-0.155469730496,1.21846967915e-07,0.0,0.0,0.0,1.21846967915e-07,0.0,0.0,0.0,1.21846967915e-07,0.46091255,0.44129925,10.395049,9e-08,0.0,0.0,0.0,9e-08,0.0,0.0,0.0,9e-08
1532134730294320912,3477,1532134730293984688,base_link,-0.179548787961,0.119295092123,0.550756981666,-0.806348349588,1.0,0.0,0.0,0.0,1.0,0.0,0.0,0.0,1.0,-0.175014451146,-0.0646329075098,-0.35630235076,1.21846967915e-07,0.0,0.0,0.0,1.21846967915e-07,0.0,0.0,0.0,1.21846967915e-07,0.22555295,0.63743225,9.1397978,9e-08,0.0,0.0,0.0,9e-08,0.0,0.0,0.0,9e-08
1532134730644139888,3478,1532134730643747344,base_link,-0.169703070677,0.121446196649,0.602007972684,-0.770738665144,1.0,0.0,0.0,0.0,1.0,0.0,0.0,0.0,1.0,-0.0314471721649,-0.168093919754,-0.281753093004,1.21846967915e-07,0.0,0.0,0.0,1.21846967915e-07,0.0,0.0,0.0,1.21846967915e-07,0.2745862,0.2549729,10.89518815,9e-08,0.0,0.0,0.0,9e-08,0.0,0.0,0.0,9e-08
1532134731074958576,3479,1532134731074778800,base_link,-0.131450116576,0.12698382549,0.643046673355,-0.743698158397,1.0,0.0,0.0,0.0,1.0,0.0,0.0,0.0,1.0,-0.132351920009,-0.152093648911,-0.147873088717,1.21846967915e-07,0.0,0.0,0.0,1.21846967915e-07,0.0,0.0,0.0,1.21846967915e-07,0.36284605,0.3726527,10.48330885,9e-08,0.0,0.0,0.0,9e-08,0.0,0.0,0.0,9e-08
1532134731510817232,3480,1532134731510559568,base_link,-0.0752522829465,0.109545144385,0.680225737865,-0.720853591791,1.0,0.0,0.0,0.0,1.0,0.0,0.0,0.0,1.0,-0.307027906179,-0.11365442723,-0.173016101122,1.21846967915e-07,0.0,0.0,0.0,1.21846967915e-07,0.0,0.0,0.0,1.21846967915e-07,0.4903325,0.61781895,11.99353295,9e-08,0.0,0.0,0.0,9e-08,0.0,0.0,0.0,9e-08
1532134732007678896,3481,1532134732006634832,base_link,0.00565222088162,-0.0681163204637,-0.712060067001,0.698783714942,1.0,0.0,0.0,0.0,1.0,0.0,0.0,0.0,1.0,-0.145400926471,-0.0818825289607,-0.102754361928,1.21846967915e-07,0.0,0.0,0.0,1.21846967915e-07,0.0,0.0,0.0,1.21846967915e-07,0.57859235,0.40207265,11.8268199,9e-08,0.0,0.0,0.0,9e-08,0.0,0.0,0.0,9e-08
1532134732385328912,3482,1532134732385006256,base_link,-0.0177158148121,-0.057769750855,-0.718438444902,0.692961042685,1.0,0.0,0.0,0.0,1.0,0.0,0.0,0.0,1.0,-0.0941933989525,-0.0261228755116,0.0326967090368,1.21846967915e-07,0.0,0.0,0.0,1.21846967915e-07,0.0,0.0,0.0,1.21846967915e-07,0.392266,-0.0980665,11.44436055,9e-08,0.0,0.0,0.0,9e-08,0.0,0.0,0.0,9e-08
1532134732782326800,3483,1532134732782056816,base_link,-0.0141002889459,-0.0551332037629,-0.717346841061,0.694388235294,1.0,0.0,0.0,0.0,1.0,0.0,0.0,0.0,1.0,-0.276881426573,0.094115562737,-0.0750763118267,1.21846967915e-07,0.0,0.0,0.0,1.21846967915e-07,0.0,0.0,0.0,1.21846967915e-07,0.4707192,0.50013915,9.7085835,9e-08,0.0,0.0,0.0,9e-08,0.0,0.0,0.0,9e-08
1532134733293629808,3484,1532134733283595280,base_link,-0.0411736250068,0.0117090236707,-0.735927185443,0.67570615588,1.0,0.0,0.0,0.0,1.0,0.0,0.0,0.0,1.0,-0.120328269899,0.0968044921756,-0.0719742029905,1.21846967915e-07,0.0,0.0,0.0,1.21846967915e-07,0.0,0.0,0.0,1.21846967915e-07,0.34323275,0.2549729,7.3942141,9e-08,0.0,0.0,0.0,9e-08,0.0,0.0,0.0,9e-08
1532134733679199600,3485,1532134733678901712,base_link,-0.0319714917,0.027839095121,-0.732116410036,0.67985908147,1.0,0.0,0.0,0.0,1.0,0.0,0.0,0.0,1.0,-0.0350816622376,0.102353319526,0.101827859879,1.21846967915e-07,0.0,0.0,0.0,1.21846967915e-07,0.0,0.0,0.0,1.21846967915e-07,0.53936575,0.2941995,7.649187,9e-08,0.0,0.0,0.0,9e-08,0.0,0.0,0.0,9e-08
1532134734184312400,3486,1532134734184060368,base_link,-0.0419428614236,0.0688555213866,-0.719247471895,0.690059988496,1.0,0.0,0.0,0.0,1.0,0.0,0.0,0.0,1.0,-0.0853550806642,0.0796652361751,0.0332037732005,1.21846967915e-07,0.0,0.0,0.0,1.21846967915e-07,0.0,0.0,0.0,1.21846967915e-07,0.9610517,0.10787315,8.75733845,9e-08,0.0,0.0,0.0,9e-08,0.0,0.0,0.0,9e-08
1532134734488070544,3487,1532134734486995728,base_link,-0.0385636837899,0.0685991389936,-0.712749090766,0.69699048346,1.0,0.0,0.0,0.0,1.0,0.0,0.0,0.0,1.0,0.0979376807809,-0.0150678064674,0.0838374570012,1.21846967915e-07,0.0,0.0,0.0,1.21846967915e-07,0.0,0.0,0.0,1.21846967915e-07,1.0002783,0.20593965,9.6693569,9e-08,0.0,0.0,0.0,9e-08,0.0,0.0,0.0,9e-08
1532134734840120304,3488,1532134734839743760,base_link,0.0233503840729,-0.0398865079535,0.698246021144,-0.714364276825,1.0,0.0,0.0,0.0,1.0,0.0,0.0,0.0,1.0,0.190944880247,-0.0611138157547,0.112049728632,1.21846967915e-07,0.0,0.0,0.0,1.21846967915e-07,0.0,0.0,0.0,1.21846967915e-07,0.784532,0.46091255,10.7480884,9e-08,0.0,0.0,0.0,9e-08,0.0,0.0,0.0,9e-08
1532134735346710352,3489,1532134735343794000,base_link,-0.00347597303838,0.000190327313132,0.692981461283,-0.720946999234,1.0,0.0,0.0,0.0,1.0,0.0,0.0,0.0,1.0,0.225501939654,-0.0307282954454,-0.0145484656096,1.21846967915e-07,0.0,0.0,0.0,1.21846967915e-07,0.0,0.0,0.0,1.21846967915e-07,0.2745862,0.4118793,9.5712904,9e-08,0.0,0.0,0.0,9e-08,0.0,0.0,0.0,9e-08
1532134735798246000,3490,1532134735797848208,base_link,-0.0314366520719,0.0394251630628,0.69702248125,-0.715274111132,1.0,0.0,0.0,0.0,1.0,0.0,0.0,0.0,1.0,0.169888302684,-0.0280012115836,-0.0488308221102,1.21846967915e-07,0.0,0.0,0.0,1.21846967915e-07,0.0,0.0,0.0,1.21846967915e-07,0.12748645,0.22555295,9.2967042,9e-08,0.0,0.0,0.0,9e-08,0.0,0.0,0.0,9e-08
1532134736239072944,3491,1532134736238811440,base_link,-0.055504458855,0.0744183710027,0.697117951834,-0.710920334731,1.0,0.0,0.0,0.0,1.0,0.0,0.0,0.0,1.0,0.254255443811,-0.0136990584433,-0.0320578366518,1.21846967915e-07,0.0,0.0,0.0,1.21846967915e-07,0.0,0.0,0.0,1.21846967915e-07,0.2353596,0.79433865,8.4729456,9e-08,0.0,0.0,0.0,9e-08,0.0,0.0,0.0,9e-08
1532134736651544272,3492,1532134736651003792,base_link,0.0478136368241,-0.0702327794782,-0.717475471544,0.691382788731,1.0,0.0,0.0,0.0,1.0,0.0,0.0,0.0,1.0,-0.193549990654,-0.0109278848395,-0.205650404096,1.21846967915e-07,0.0,0.0,0.0,1.21846967915e-07,0.0,0.0,0.0,1.21846967915e-07,0.392266,0.4118793,9.42419065,9e-08,0.0,0.0,0.0,9e-08,0.0,0.0,0.0,9e-08
1532134736989293872,3493,1532134736988892240,base_link,0.0294165885307,-0.0516377007225,-0.739690480724,0.670317987905,1.0,0.0,0.0,0.0,1.0,0.0,0.0,0.0,1.0,-0.226259037852,-0.0178869403899,-0.166219711304,1.21846967915e-07,0.0,0.0,0.0,1.21846967915e-07,0.0,0.0,0.0,1.21846967915e-07,0.40207265,0.392266,9.58109705,9e-08,0.0,0.0,0.0,9e-08,0.0,0.0,0.0,9e-08
1532134737338428880,3494,1532134737338197104,base_link,0.0184826966448,-0.0503960708474,-0.751288463305,0.657787405529,1.0,0.0,0.0,0.0,1.0,0.0,0.0,0.0,1.0,0.234536483884,-0.0390773490071,-0.0449694506824,1.21846967915e-07,0.0,0.0,0.0,1.21846967915e-07,0.0,0.0,0.0,1.21846967915e-07,0.5687857,-0.24516625,9.6889702,9e-08,0.0,0.0,0.0,9e-08,0.0,0.0,0.0,9e-08
1532134737803024912,3495,1532134737801224368,base_link,0.00414044886756,-0.0559551096057,-0.736007843419,0.674643859246,1.0,0.0,0.0,0.0,1.0,0.0,0.0,0.0,1.0,-0.296035557985,-0.0429103076458,0.166151449084,1.21846967915e-07,0.0,0.0,0.0,1.21846967915e-07,0.0,0.0,0.0,1.21846967915e-07,0.7256921,0.44129925,10.50292215,9e-08,0.0,0.0,0.0,9e-08,0.0,0.0,0.0,9e-08
1532134738149626384,3496,1532134738149054928,base_link,-0.0263600206271,-0.0185139447041,-0.732360699608,0.680154533054,1.0,0.0,0.0,0.0,1.0,0.0,0.0,0.0,1.0,-0.0939958170056,0.0688972324133,-0.0754969865084,1.21846967915e-07,0.0,0.0,0.0,1.21846967915e-07,0.0,0.0,0.0,1.21846967915e-07,0.7453054,0.59820565,9.22805765,9e-08,0.0,0.0,0.0,9e-08,0.0,0.0,0.0,9e-08
1532134738644359952,3497,1532134738643988912,base_link,-0.045093333043,0.0128096219329,-0.742692579676,0.667989698271,1.0,0.0,0.0,0.0,1.0,0.0,0.0,0.0,1.0,-0.132924705744,0.00792463682592,0.0436898544431,1.21846967915e-07,0.0,0.0,0.0,1.21846967915e-07,0.0,0.0,0.0,1.21846967915e-07,0.9610517,0.06864655,9.7674234,9e-08,0.0,0.0,0.0,9e-08,0.0,0.0,0.0,9e-08
1532134739041721872,3498,1532134739041496336,base_link,-0.0439197181716,0.0131747538147,-0.729911867809,0.68200157584,1.0,0.0,0.0,0.0,1.0,0.0,0.0,0.0,1.0,0.187233373523,0.0260919127613,0.10448782146,1.21846967915e-07,0.0,0.0,0.0,1.21846967915e-07,0.0,0.0,0.0,1.21846967915e-07,1.0198916,0.14709975,8.32584585,9e-08,0.0,0.0,0.0,9e-08,0.0,0.0,0.0,9e-08
1532134739412070544,3499,1532134739409510704,base_link,-0.0235296793468,-0.0107379880014,-0.719422453716,0.694091047985,1.0,0.0,0.0,0.0,1.0,0.0,0.0,0.0,1.0,0.214259460568,-0.0175220295787,0.0847682729363,1.21846967915e-07,0.0,0.0,0.0,1.21846967915e-07,0.0,0.0,0.0,1.21846967915e-07,1.1571847,0.1372931,10.4735022,9e-08,0.0,0.0,0.0,9e-08,0.0,0.0,0.0,9e-08
1532134739882502576,3500,1532134739882103792,base_link,-0.0379610410553,-0.00665272619596,-0.708522167899,0.704635393797,1.0,0.0,0.0,0.0,1.0,0.0,0.0,0.0,1.0,-0.23563157022,-0.0424977988005,0.015871828422,1.21846967915e-07,0.0,0.0,0.0,1.21846967915e-07,0.0,0.0,0.0,1.21846967915e-07,1.3533177,0.3530394,11.07170785,9e-08,0.0,0.0,0.0,9e-08,0.0,0.0,0.0,9e-08
1532134740263465520,3501,1532134740262959920,base_link,-0.0326024866478,-0.0188194984249,-0.708373234579,0.704833501528,1.0,0.0,0.0,0.0,1.0,0.0,0.0,0.0,1.0,0.246823444963,-0.00671257032081,-0.00307008088566,1.21846967915e-07,0.0,0.0,0.0,1.21846967915e-07,0.0,0.0,0.0,1.21846967915e-07,1.0002783,0.3530394,10.38524235,9e-08,0.0,0.0,0.0,9e-08,0.0,0.0,0.0,9e-08
1532134740597199376,3502,1532134740596782224,base_link,-0.0140651080611,-0.0404365156288,-0.70674265128,0.706174118614,1.0,0.0,0.0,0.0,1.0,0.0,0.0,0.0,1.0,0.209680229425,-0.00808825157583,-0.00907447002828,1.21846967915e-07,0.0,0.0,0.0,1.21846967915e-07,0.0,0.0,0.0,1.21846967915e-07,0.69627215,0.1372931,9.7085835,9e-08,0.0,0.0,0.0,9e-08,0.0,0.0,0.0,9e-08
1532134740941933552,3503,1532134740941703376,base_link,0.0109829522027,-0.0637716829137,-0.707853663955,0.703388752856,1.0,0.0,0.0,0.0,1.0,0.0,0.0,0.0,1.0,0.102704979479,0.00771236233413,-0.0323089025915,1.21846967915e-07,0.0,0.0,0.0,1.21846967915e-07,0.0,0.0,0.0,1.21846967915e-07,0.61781895,0.14709975,8.56120545,9e-08,0.0,0.0,0.0,9e-08,0.0,0.0,0.0,9e-08
1532134741297019248,3504,1532134741296671248,base_link,0.0232128395028,-0.0734944303528,-0.711816015153,0.698124411091,1.0,0.0,0.0,0.0,1.0,0.0,0.0,0.0,1.0,0.0153174586594,0.0180469192564,-0.0866950824857,1.21846967915e-07,0.0,0.0,0.0,1.21846967915e-07,0.0,0.0,0.0,1.21846967915e-07,0.83356525,0.5687857,9.28689755,9e-08,0.0,0.0,0.0,9e-08,0.0,0.0,0.0,9e-08
1532134741698554768,3505,1532134741698208560,base_link,0.0309144501853,-0.0752502382661,-0.723487152031,0.685527562725,1.0,0.0,0.0,0.0,1.0,0.0,0.0,0.0,1.0,-0.00965077802539,-0.00962241366506,-0.0770128443837,1.21846967915e-07,0.0,0.0,0.0,1.21846967915e-07,0.0,0.0,0.0,1.21846967915e-07,0.9022118,0.42168595,9.9243298,9e-08,0.0,0.0,0.0,9e-08,0.0,0.0,0.0,9e-08
1532134742006592048,3506,1532134742006296336,base_link,0.0312271862799,-0.0721311791272,-0.729534648221,0.679412358498,1.0,0.0,0.0,0.0,1.0,0.0,0.0,0.0,1.0,-0.0315620675683,0.0145631441846,-0.0577547885478,1.21846967915e-07,0.0,0.0,0.0,1.21846967915e-07,0.0,0.0,0.0,1.21846967915e-07,1.04931155,0.34323275,9.3163175,9e-08,0.0,0.0,0.0,9e-08,0.0,0.0,0.0,9e-08
1532134742401757904,3507,1532134742401434192,base_link,0.0281091224202,-0.058300677217,-0.741724227417,0.667574773891,1.0,0.0,0.0,0.0,1.0,0.0,0.0,0.0,1.0,-0.0871104672551,0.0289171151817,-0.096005178988,1.21846967915e-07,0.0,0.0,0.0,1.21846967915e-07,0.0,0.0,0.0,1.21846967915e-07,0.980665,0.44129925,9.2967042,9e-08,0.0,0.0,0.0,9e-08,0.0,0.0,0.0,9e-08
1532134742916112112,3508,1532134742915627024,base_link,0.0144456679694,-0.0530860952842,-0.750277721523,0.65882966672,1.0,0.0,0.0,0.0,1.0,0.0,0.0,0.0,1.0,-0.153315976262,-0.0381080582738,0.0136882085353,1.21846967915e-07,0.0,0.0,0.0,1.21846967915e-07,0.0,0.0,0.0,1.21846967915e-07,1.22583125,0.12748645,10.73828175,9e-08,0.0,0.0,0.0,9e-08,0.0,0.0,0.0,9e-08
1532134743252879888,3509,1532134743251858736,base_link,-0.0093832011389,-0.0411980373712,-0.747539554275,0.662872002763,1.0,0.0,0.0,0.0,1.0,0.0,0.0,0.0,1.0,-0.107669360936,-0.0663206875324,0.0365696325898,1.21846967915e-07,0.0,0.0,0.0,1.21846967915e-07,0.0,0.0,0.0,1.21846967915e-07,0.99047165,0.42168595,11.6895268,9e-08,0.0,0.0,0.0,9e-08,0.0,0.0,0.0,9e-08
1532134743543860944,3510,1532134743543533360,base_link,-0.0205322180503,-0.0433936279389,-0.747336718176,0.66270902419,1.0,0.0,0.0,0.0,1.0,0.0,0.0,0.0,1.0,0.114434495568,-0.0758137777448,-0.0804131627083,1.21846967915e-07,0.0,0.0,0.0,1.21846967915e-07,0.0,0.0,0.0,1.21846967915e-07,1.22583125,0.2745862,12.5132854,9e-08,0.0,0.0,0.0,9e-08,0.0,0.0,0.0,9e-08
1532134743901562032,3511,1532134743901303408,base_link,-0.00882995117785,-0.0658498961873,-0.747215980603,0.661251919821,1.0,0.0,0.0,0.0,1.0,0.0,0.0,0.0,1.0,0.151063129306,-0.0562434084713,0.0245741587132,1.21846967915e-07,0.0,0.0,0.0,1.21846967915e-07,0.0,0.0,0.0,1.21846967915e-07,0.61781895,0.0588399,10.05181625,9e-08,0.0,0.0,0.0,9e-08,0.0,0.0,0.0,9e-08
1532134744362774992,3512,1532134744362519312,base_link,0.019269773295,-0.0951460855265,-0.739391487458,0.666240291878,1.0,0.0,0.0,0.0,1.0,0.0,0.0,0.0,1.0,0.19739331305,0.0545899719,-0.0303721111268,1.21846967915e-07,0.0,0.0,0.0,1.21846967915e-07,0.0,0.0,0.0,1.21846967915e-07,0.4118793,0.22555295,5.87418335,9e-08,0.0,0.0,0.0,9e-08,0.0,0.0,0.0,9e-08
1532134744624134544,3513,1532134744621985808,base_link,0.0352994580921,-0.0990879168477,-0.745083916684,0.658623936774,1.0,0.0,0.0,0.0,1.0,0.0,0.0,0.0,1.0,0.120353527367,0.0680725574493,-0.134055003524,1.21846967915e-07,0.0,0.0,0.0,1.21846967915e-07,0.0,0.0,0.0,1.21846967915e-07,0.69627215,0.4903325,8.40429905,9e-08,0.0,0.0,0.0,9e-08,0.0,0.0,0.0,9e-08
1532134745053434736,3514,1532134745052904720,base_link,0.0576138479948,-0.103880803234,-0.760274377392,0.638648803585,1.0,0.0,0.0,0.0,1.0,0.0,0.0,0.0,1.0,0.00158251728863,0.0695113837719,-0.122608877718,1.21846967915e-07,0.0,0.0,0.0,1.21846967915e-07,0.0,0.0,0.0,1.21846967915e-07,1.372931,0.44129925,8.5121722,9e-08,0.0,0.0,0.0,9e-08,0.0,0.0,0.0,9e-08
1532134745393804688,3515,1532134745393469488,base_link,0.0658773850241,-0.0959590143734,-0.776901364582,0.618769995567,1.0,0.0,0.0,0.0,1.0,0.0,0.0,0.0,1.0,0.0300058927387,0.0242065954953,-0.205483302474,1.21846967915e-07,0.0,0.0,0.0,1.21846967915e-07,0.0,0.0,0.0,1.21846967915e-07,1.57887065,0.36284605,9.2574776,9e-08,0.0,0.0,0.0,9e-08,0.0,0.0,0.0,9e-08
1532134745801299984,3516,1532134745800859088,base_link,0.0622654394907,-0.0972823370053,-0.796796406007,0.59310593432,1.0,0.0,0.0,0.0,1.0,0.0,0.0,0.0,1.0,0.119289748371,-0.080945789814,-0.122125901282,1.21846967915e-07,0.0,0.0,0.0,1.21846967915e-07,0.0,0.0,0.0,1.21846967915e-07,1.2356379,0.4118793,11.01286795,9e-08,0.0,0.0,0.0,9e-08,0.0,0.0,0.0,9e-08
1532134746137690416,3517,1532134746137465008,base_link,0.0764103216114,-0.133845402392,-0.804000800259,0.574307917579,1.0,0.0,0.0,0.0,1.0,0.0,0.0,0.0,1.0,0.187127694488,-0.10124091059,-0.117352455854,1.21846967915e-07,0.0,0.0,0.0,1.21846967915e-07,0.0,0.0,0.0,1.21846967915e-07,0.83356525,0.57859235,9.8262633,9e-08,0.0,0.0,0.0,9e-08,0.0,0.0,0.0,9e-08
1532134746607589616,3518,1532134746606500880,base_link,0.0788094767754,-0.167174153583,-0.823519239471,0.536337515904,1.0,0.0,0.0,0.0,1.0,0.0,0.0,0.0,1.0,0.119070515037,-0.100860215724,-0.214958369732,1.21846967915e-07,0.0,0.0,0.0,1.21846967915e-07,0.0,0.0,0.0,1.21846967915e-07,0.8825985,0.7256921,10.73828175,9e-08,0.0,0.0,0.0,9e-08,0.0,0.0,0.0,9e-08
1532134746963150192,3519,1532134746958056720,base_link,0.0772038582581,-0.189321540799,-0.840801408196,0.501248352053,1.0,0.0,0.0,0.0,1.0,0.0,0.0,0.0,1.0,0.0377518162131,-0.112781554461,-0.223129361868,1.21846967915e-07,0.0,0.0,0.0,1.21846967915e-07,0.0,0.0,0.0,1.21846967915e-07,0.7649187,0.69627215,10.58137535,9e-08,0.0,0.0,0.0,9e-08,0.0,0.0,0.0,9e-08
1532134747247548048,3520,1532134747246793456,base_link,0.0749302467455,-0.201268724622,-0.859781796575,0.463305105617,1.0,0.0,0.0,0.0,1.0,0.0,0.0,0.0,1.0,0.0414523370564,-0.115074768662,-0.3018925488,1.21846967915e-07,0.0,0.0,0.0,1.21846967915e-07,0.0,0.0,0.0,1.21846967915e-07,0.89240515,0.53936575,10.5323421,9e-08,0.0,0.0,0.0,9e-08,0.0,0.0,0.0,9e-08
1532134747518306736,3521,1532134747518115664,base_link,0.0693704687681,-0.2111236273,-0.877235862205,0.425525315488,1.0,0.0,0.0,0.0,1.0,0.0,0.0,0.0,1.0,0.0209969207644,-0.154793009162,-0.274886459112,1.21846967915e-07,0.0,0.0,0.0,1.21846967915e-07,0.0,0.0,0.0,1.21846967915e-07,0.73549875,0.30400615,10.5127288,9e-08,0.0,0.0,0.0,9e-08,0.0,0.0,0.0,9e-08
1532134748027822544,3522,1532134748026939792,base_link,0.0390609973519,-0.21740776548,-0.904579084339,0.364615937901,1.0,0.0,0.0,0.0,1.0,0.0,0.0,0.0,1.0,0.0139243016019,-0.16788251698,-0.22067399323,1.21846967915e-07,0.0,0.0,0.0,1.21846967915e-07,0.0,0.0,0.0,1.21846967915e-07,0.71588545,0.55897905,11.0619012,9e-08,0.0,0.0,0.0,9e-08,0.0,0.0,0.0,9e-08
1532134748358938608,3523,1532134748358651248,base_link,0.021439639351,-0.222791911389,-0.919151317925,0.324137256175,1.0,0.0,0.0,0.0,1.0,0.0,0.0,0.0,1.0,-0.0729990154505,-0.167576178908,-0.226501002908,1.21846967915e-07,0.0,0.0,0.0,1.21846967915e-07,0.0,0.0,0.0,1.21846967915e-07,0.75511205,0.7060788,11.1207411,9e-08,0.0,0.0,0.0,9e-08,0.0,0.0,0.0,9e-08
1532134748802123184,3524,1532134748801758352,base_link,-0.00120606643369,-0.215464120802,-0.938315053074,0.270441526445,1.0,0.0,0.0,0.0,1.0,0.0,0.0,0.0,1.0,-0.0489138364792,-0.123097881675,-0.245005771518,1.21846967915e-07,0.0,0.0,0.0,1.21846967915e-07,0.0,0.0,0.0,1.21846967915e-07,0.8629852,0.4314926,10.8265416,9e-08,0.0,0.0,0.0,9e-08,0.0,0.0,0.0,9e-08
1532134749187924080,3525,1532134749187049456,base_link,-0.014509847859,-0.204952491528,-0.952938077949,0.222919178463,1.0,0.0,0.0,0.0,1.0,0.0,0.0,0.0,1.0,-0.145022422075,-0.0832848772407,-0.234035745263,1.21846967915e-07,0.0,0.0,0.0,1.21846967915e-07,0.0,0.0,0.0,1.21846967915e-07,0.9022118,0.59820565,10.54214875,9e-08,0.0,0.0,0.0,9e-08,0.0,0.0,0.0,9e-08
1532134749552559792,3526,1532134749552046832,base_link,-0.0257525604402,-0.180086574959,-0.967076479919,0.177957054196,1.0,0.0,0.0,0.0,1.0,0.0,0.0,0.0,1.0,-0.151021897793,-0.0572598390281,-0.23458699882,1.21846967915e-07,0.0,0.0,0.0,1.21846967915e-07,0.0,0.0,0.0,1.21846967915e-07,0.8825985,0.6276256,10.34601575,9e-08,0.0,0.0,0.0,9e-08,0.0,0.0,0.0,9e-08
1532134749882764368,3527,1532134749881759664,base_link,-0.0335830857402,-0.166770823704,-0.975413791326,0.140098552468,1.0,0.0,0.0,0.0,1.0,0.0,0.0,0.0,1.0,-0.0203179530799,-0.0802754089236,-0.19482204318,1.21846967915e-07,0.0,0.0,0.0,1.21846967915e-07,0.0,0.0,0.0,1.21846967915e-07,0.9022118,0.22555295,10.6107953,9e-08,0.0,0.0,0.0,9e-08,0.0,0.0,0.0,9e-08
1532134750264559856,3528,1532134750264045808,base_link,-0.0482678418811,-0.138525063012,-0.983126097318,0.109289062259,1.0,0.0,0.0,0.0,1.0,0.0,0.0,0.0,1.0,-0.124441601336,-0.0727012753487,-0.121330402792,1.21846967915e-07,0.0,0.0,0.0,1.21846967915e-07,0.0,0.0,0.0,1.21846967915e-07,0.91201845,0.392266,10.6696352,9e-08,0.0,0.0,0.0,9e-08,0.0,0.0,0.0,9e-08
1532134750704309104,3529,1532134750699640752,base_link,-0.0560610487731,-0.103303777137,-0.98993491218,0.0788311999611,1.0,0.0,0.0,0.0,1.0,0.0,0.0,0.0,1.0,-0.265640735626,-0.0266079492867,-0.130375862122,1.21846967915e-07,0.0,0.0,0.0,1.21846967915e-07,0.0,0.0,0.0,1.21846967915e-07,0.7453054,0.30400615,9.5909037,9e-08,0.0,0.0,0.0,9e-08,0.0,0.0,0.0,9e-08
1532134751092703088,3530,1532134751092360752,base_link,-0.0643088708833,-0.0544365513769,-0.99485705733,0.0562180263041,1.0,0.0,0.0,0.0,1.0,0.0,0.0,0.0,1.0,-0.322518408298,-0.0214352235198,-0.0584762394428,1.21846967915e-07,0.0,0.0,0.0,1.21846967915e-07,0.0,0.0,0.0,1.21846967915e-07,0.8629852,0.1372931,10.34601575,9e-08,0.0,0.0,0.0,9e-08,0.0,0.0,0.0,9e-08
1532134751603123280,3531,1532134751602687824,base_link,-0.0602556014314,0.0167511843939,-0.997099630619,0.0433703462848,1.0,0.0,0.0,0.0,1.0,0.0,0.0,0.0,1.0,-0.272859632969,0.0479207895696,0.0067408727482,1.21846967915e-07,0.0,0.0,0.0,1.21846967915e-07,0.0,0.0,0.0,1.21846967915e-07,0.95124505,-0.0588399,9.0417313,9e-08,0.0,0.0,0.0,9e-08,0.0,0.0,0.0,9e-08
1532134752081629360,3532,1532134752081119504,base_link,-0.0491646146291,0.0703497027474,-0.994782719363,0.055146180726,1.0,0.0,0.0,0.0,1.0,0.0,0.0,0.0,1.0,-0.228141903877,0.0551926456392,0.0991649702191,1.21846967915e-07,0.0,0.0,0.0,1.21846967915e-07,0.0,0.0,0.0,1.21846967915e-07,1.0198916,0.20593965,8.0218397,9e-08,0.0,0.0,0.0,9e-08,0.0,0.0,0.0,9e-08
1532134752441581040,3533,1532134752441211632,base_link,-0.0491022402082,0.0847191741586,-0.991584905835,0.0846817929416,1.0,0.0,0.0,0.0,1.0,0.0,0.0,0.0,1.0,-0.0214817877859,-0.0404280088842,0.231819167733,1.21846967915e-07,0.0,0.0,0.0,1.21846967915e-07,0.0,0.0,0.0,1.21846967915e-07,1.55925735,0.1176798,9.7281968,9e-08,0.0,0.0,0.0,9e-08,0.0,0.0,0.0,9e-08
1532134752767516624,3534,1532134752766800592,base_link,-0.0544940390202,0.0932435994829,-0.98587490163,0.128010582384,1.0,0.0,0.0,0.0,1.0,0.0,0.0,0.0,1.0,-0.0117392456159,-0.057262904942,0.233874931931,1.21846967915e-07,0.0,0.0,0.0,1.21846967915e-07,0.0,0.0,0.0,1.21846967915e-07,1.7455837,0.32361945,10.0420096,9e-08,0.0,0.0,0.0,9e-08,0.0,0.0,0.0,9e-08
1532134753084607600,3535,1532134753084325296,base_link,-0.0593205732019,0.0999537851498,-0.979748778005,0.163041842565,1.0,0.0,0.0,0.0,1.0,0.0,0.0,0.0,1.0,-0.00481895077974,-0.041088104248,0.214571595192,1.21846967915e-07,0.0,0.0,0.0,1.21846967915e-07,0.0,0.0,0.0,1.21846967915e-07,1.6671305,0.4511059,9.9439431,9e-08,0.0,0.0,0.0,9e-08,0.0,0.0,0.0,9e-08
1532134753623966608,3536,1532134753623340624,base_link,-0.0651731811988,0.0560247326362,-0.97331004172,0.2127939108,1.0,0.0,0.0,0.0,1.0,0.0,0.0,0.0,1.0,0.22279958427,-0.0830568149686,0.16322208941,1.21846967915e-07,0.0,0.0,0.0,1.21846967915e-07,0.0,0.0,0.0,1.21846967915e-07,1.8632635,0.3138128,10.65982855,9e-08,0.0,0.0,0.0,9e-08,0.0,0.0,0.0,9e-08
1532134754026444496,3537,1532134754026165264,base_link,-0.0660587574294,-0.0072920417689,-0.967382231745,0.244447713016,1.0,0.0,0.0,0.0,1.0,0.0,0.0,0.0,1.0,0.328741729259,-0.0694726407528,0.0728846117854,1.21846967915e-07,0.0,0.0,0.0,1.21846967915e-07,0.0,0.0,0.0,1.21846967915e-07,1.7063571,0.44129925,10.3362091,9e-08,0.0,0.0,0.0,9e-08,0.0,0.0,0.0,9e-08
1532134754405109232,3538,1532134754404717232,base_link,-0.0643369909258,-0.0502904410198,-0.963924700651,0.25333928755,1.0,0.0,0.0,0.0,1.0,0.0,0.0,0.0,1.0,0.240650862455,-0.00539229530841,-0.0425510853529,1.21846967915e-07,0.0,0.0,0.0,1.21846967915e-07,0.0,0.0,0.0,1.21846967915e-07,1.569064,0.69627215,10.198916,9e-08,0.0,0.0,0.0,9e-08,0.0,0.0,0.0,9e-08
1532134754875664432,3539,1532134754875459120,base_link,-0.0497488726393,-0.0943308356697,-0.965599426252,0.237159210519,1.0,0.0,0.0,0.0,1.0,0.0,0.0,0.0,1.0,0.203099682927,0.0224042125046,-0.112883813679,1.21846967915e-07,0.0,0.0,0.0,1.21846967915e-07,0.0,0.0,0.0,1.21846967915e-07,1.2160246,0.61781895,8.79656505,9e-08,0.0,0.0,0.0,9e-08,0.0,0.0,0.0,9e-08
1532134755289287568,3540,1532134755289052464,base_link,-0.0388900847865,-0.128973049354,-0.967773082658,0.212764598392,1.0,0.0,0.0,0.0,1.0,0.0,0.0,0.0,1.0,0.0971369892359,-0.0248961430043,-0.119324229658,1.21846967915e-07,0.0,0.0,0.0,1.21846967915e-07,0.0,0.0,0.0,1.21846967915e-07,1.32389775,0.5099458,9.5320638,9e-08,0.0,0.0,0.0,9e-08,0.0,0.0,0.0,9e-08
1532134755546617360,3541,1532134755546402288,base_link,-0.039053342415,-0.131796485603,-0.970857922741,0.196314586009,1.0,0.0,0.0,0.0,1.0,0.0,0.0,0.0,1.0,-0.0422268584371,-0.0219540856779,-0.143281400204,1.21846967915e-07,0.0,0.0,0.0,1.21846967915e-07,0.0,0.0,0.0,1.21846967915e-07,1.4906108,0.6276256,10.03220295,9e-08,0.0,0.0,0.0,9e-08,0.0,0.0,0.0,9e-08
1532134755861160624,3542,1532134755845635920,base_link,-0.0388556289625,-0.129613066908,-0.975479426442,0.173581627982,1.0,0.0,0.0,0.0,1.0,0.0,0.0,0.0,1.0,-0.00654645077884,-0.0293983183801,-0.146444424987,1.21846967915e-07,0.0,0.0,0.0,1.21846967915e-07,0.0,0.0,0.0,1.21846967915e-07,1.2944778,0.3138128,9.4536106,9e-08,0.0,0.0,0.0,9e-08,0.0,0.0,0.0,9e-08
1532134756205187536,3543,1532134756202869616,base_link,-0.0399301370566,-0.125169395954,-0.979916141859,0.150008537742,1.0,0.0,0.0,0.0,1.0,0.0,0.0,0.0,1.0,-0.103534057736,-0.00876414217055,-0.137529686093,1.21846967915e-07,0.0,0.0,0.0,1.21846967915e-07,0.0,0.0,0.0,1.21846967915e-07,1.0983448,0.4903325,8.9632781,9e-08,0.0,0.0,0.0,9e-08,0.0,0.0,0.0,9e-08
1532134756595700144,3544,1532134756595236016,base_link,-0.0511502343232,-0.105364538921,-0.985319930143,0.124203875661,1.0,0.0,0.0,0.0,1.0,0.0,0.0,0.0,1.0,-0.186721757054,-0.0343340449035,-0.107207722962,1.21846967915e-07,0.0,0.0,0.0,1.21846967915e-07,0.0,0.0,0.0,1.21846967915e-07,1.53964405,0.55897905,10.5715687,9e-08,0.0,0.0,0.0,9e-08,0.0,0.0,0.0,9e-08
1532134756987219408,3545,1532134756984767024,base_link,-0.0606008041771,-0.0765801989082,-0.98951901559,0.106372616093,1.0,0.0,0.0,0.0,1.0,0.0,0.0,0.0,1.0,-0.138734966516,-0.0449115298688,-0.0678685680032,1.21846967915e-07,0.0,0.0,0.0,1.21846967915e-07,0.0,0.0,0.0,1.21846967915e-07,1.5298374,0.50013915,10.3165958,9e-08,0.0,0.0,0.0,9e-08,0.0,0.0,0.0,9e-08
1532134757344346128,3546,1532134757344109008,base_link,-0.068584093477,-0.0520930275351,-0.991762691695,0.0948119294508,1.0,0.0,0.0,0.0,1.0,0.0,0.0,0.0,1.0,-0.178839102387,-0.0391703620553,-0.0251202993095,1.21846967915e-07,0.0,0.0,0.0,1.21846967915e-07,0.0,0.0,0.0,1.21846967915e-07,1.63771055,0.32361945,9.50264385,9e-08,0.0,0.0,0.0,9e-08,0.0,0.0,0.0,9e-08
1532134757795420016,3547,1532134757795070352,base_link,-0.0833720757924,-0.00698080100604,-0.992614467395,0.087845799639,1.0,0.0,0.0,0.0,1.0,0.0,0.0,0.0,1.0,-0.18426142633,-0.0437788069248,-0.00315751321614,1.21846967915e-07,0.0,0.0,0.0,1.21846967915e-07,0.0,0.0,0.0,1.21846967915e-07,2.2555295,0.32361945,10.83634825,9e-08,0.0,0.0,0.0,9e-08,0.0,0.0,0.0,9e-08
1532134758046099632,3548,1532134758045900752,base_link,-0.0911090960814,0.00937117610182,-0.991761948673,0.0895519448964,1.0,0.0,0.0,0.0,1.0,0.0,0.0,0.0,1.0,-0.10635137558,-0.0361161567271,0.0438515879214,1.21846967915e-07,0.0,0.0,0.0,1.21846967915e-07,0.0,0.0,0.0,1.21846967915e-07,2.1182364,0.3138128,10.6892485,9e-08,0.0,0.0,0.0,9e-08,0.0,0.0,0.0,9e-08
1532134758461010512,3549,1532134758460381040,base_link,-0.100093015845,0.0305017871001,-0.988846402387,0.105989724263,1.0,0.0,0.0,0.0,1.0,0.0,0.0,0.0,1.0,-0.0620329789817,0.00251572346315,0.0790762379766,1.21846967915e-07,0.0,0.0,0.0,1.21846967915e-07,0.0,0.0,0.0,1.21846967915e-07,2.42224255,0.5099458,10.0223963,9e-08,0.0,0.0,0.0,9e-08,0.0,0.0,0.0,9e-08
1532134758852505072,3550,1532134758852200880,base_link,-0.101387287802,0.0273265239703,-0.987513623213,0.117433908766,1.0,0.0,0.0,0.0,1.0,0.0,0.0,0.0,1.0,0.0673186779022,-0.00405709492043,0.0686174407601,1.21846967915e-07,0.0,0.0,0.0,1.21846967915e-07,0.0,0.0,0.0,1.21846967915e-07,2.6281822,0.196133,9.69877685,9e-08,0.0,0.0,0.0,9e-08,0.0,0.0,0.0,9e-08
1532134759170139472,3551,1532134759169699472,base_link,-0.0995269748971,0.0203930624237,-0.98542954255,0.136407921113,1.0,0.0,0.0,0.0,1.0,0.0,0.0,0.0,1.0,0.101356573403,0.0203092750162,0.104777216911,1.21846967915e-07,0.0,0.0,0.0,1.21846967915e-07,0.0,0.0,0.0,1.21846967915e-07,2.61837555,0.38245935,9.22805765,9e-08,0.0,0.0,0.0,9e-08,0.0,0.0,0.0,9e-08
1532134759614583568,3552,1532134759614186928,base_link,-0.0923645318286,-0.0151405909171,-0.982657033273,0.160077202396,1.0,0.0,0.0,0.0,1.0,0.0,0.0,0.0,1.0,0.10365306586,0.0256447568536,0.113951407373,1.21846967915e-07,0.0,0.0,0.0,1.21846967915e-07,0.0,0.0,0.0,1.21846967915e-07,2.3143694,0.2157463,8.81617835,9e-08,0.0,0.0,0.0,9e-08,0.0,0.0,0.0,9e-08
1532134760082083952,3553,1532134760081836336,base_link,-0.0819954383876,-0.0380922773739,-0.980262956056,0.175813149317,1.0,0.0,0.0,0.0,1.0,0.0,0.0,0.0,1.0,0.113712176681,0.049559250474,0.00693611102179,1.21846967915e-07,0.0,0.0,0.0,1.21846967915e-07,0.0,0.0,0.0,1.21846967915e-07,3.03025485,0.6864655,9.03192465,9e-08,0.0,0.0,0.0,9e-08,0.0,0.0,0.0,9e-08
1532134760400234512,3554,1532134760397618704,base_link,-0.0759579311101,-0.0550951159086,-0.979801072892,0.176592124579,1.0,0.0,0.0,0.0,1.0,0.0,0.0,0.0,1.0,0.155208483338,0.00745962606743,0.00329493125901,1.21846967915e-07,0.0,0.0,0.0,1.21846967915e-07,0.0,0.0,0.0,1.21846967915e-07,3.0400615,0.5099458,10.01258965,9e-08,0.0,0.0,0.0,9e-08,0.0,0.0,0.0,9e-08
1532134760706029296,3555,1532134760705620848,base_link,-0.0754460457592,-0.0720525033629,-0.978519734668,0.177807367123,1.0,0.0,0.0,0.0,1.0,0.0,0.0,0.0,1.0,0.176989674568,-0.0382055677474,-0.0300428643823,1.21846967915e-07,0.0,0.0,0.0,1.21846967915e-07,0.0,0.0,0.0,1.21846967915e-07,2.6085689,0.42168595,10.5519554,9e-08,0.0,0.0,0.0,9e-08,0.0,0.0,0.0,9e-08
1532134761063034864,3556,1532134761062736144,base_link,-0.0777857626941,-0.101068571586,-0.976606696395,0.173129660997,1.0,0.0,0.0,0.0,1.0,0.0,0.0,0.0,1.0,0.15429481864,-0.0524402931333,-0.0352985970676,1.21846967915e-07,0.0,0.0,0.0,1.21846967915e-07,0.0,0.0,0.0,1.21846967915e-07,1.93191005,0.89240515,10.65982855,9e-08,0.0,0.0,0.0,9e-08,0.0,0.0,0.0,9e-08
1532134761443196496,3557,1532134761442731376,base_link,-0.0767381219293,-0.120458581694,-0.978437253054,0.149202991176,1.0,0.0,0.0,0.0,1.0,0.0,0.0,0.0,1.0,-0.0527290254831,-0.00730781303719,-0.178610980511,1.21846967915e-07,0.0,0.0,0.0,1.21846967915e-07,0.0,0.0,0.0,1.21846967915e-07,1.69655045,0.7649187,9.80665,9e-08,0.0,0.0,0.0,9e-08,0.0,0.0,0.0,9e-08
1532134761934165968,3558,1532134761933167472,base_link,-0.0774941425298,-0.0977085877787,-0.985908335426,0.111500869442,1.0,0.0,0.0,0.0,1.0,0.0,0.0,0.0,1.0,-0.138548925519,0.00201808940619,-0.118643350899,1.21846967915e-07,0.0,0.0,0.0,1.21846967915e-07,0.0,0.0,0.0,1.21846967915e-07,1.372931,0.46091255,9.4339973,9e-08,0.0,0.0,0.0,9e-08,0.0,0.0,0.0,9e-08
1532134762506153264,3559,1532134762505851152,base_link,-0.0828911727892,-0.0594673023378,-0.990206310438,0.0953108398638,1.0,0.0,0.0,0.0,1.0,0.0,0.0,0.0,1.0,-0.228544861078,-0.00241962773725,-0.011649585329,1.21846967915e-07,0.0,0.0,0.0,1.21846967915e-07,0.0,0.0,0.0,1.21846967915e-07,1.40235095,0.42168595,9.14960445,9e-08,0.0,0.0,0.0,9e-08,0.0,0.0,0.0,9e-08
1532134762886349104,3560,1532134762885853584,base_link,-0.0872733791011,-0.0285132047217,-0.991494947192,0.0922394934319,1.0,0.0,0.0,0.0,1.0,0.0,0.0,0.0,1.0,-0.217984244227,-0.0167108532041,0.0426333621144,1.21846967915e-07,0.0,0.0,0.0,1.21846967915e-07,0.0,0.0,0.0,1.21846967915e-07,1.63771055,0.34323275,9.5712904,9e-08,0.0,0.0,0.0,9e-08,0.0,0.0,0.0,9e-08
1532134763384390192,3561,1532134763382519536,base_link,-0.0865005907837,0.0204038739331,-0.990155292723,0.108137995243,1.0,0.0,0.0,0.0,1.0,0.0,0.0,0.0,1.0,-0.207705676556,0.0328011997044,0.11893555522,1.21846967915e-07,0.0,0.0,0.0,1.21846967915e-07,0.0,0.0,0.0,1.21846967915e-07,1.7063571,0.20593965,9.16921775,9e-08,0.0,0.0,0.0,9e-08,0.0,0.0,0.0,9e-08
1532134763821912208,3562,1532134763821474640,base_link,-0.0823685843632,0.047924138873,-0.986486398203,0.133278953266,1.0,0.0,0.0,0.0,1.0,0.0,0.0,0.0,1.0,-0.0789540335536,0.00739606190473,0.147173956037,1.21846967915e-07,0.0,0.0,0.0,1.21846967915e-07,0.0,0.0,0.0,1.21846967915e-07,1.85345685,0.2549729,9.2967042,9e-08,0.0,0.0,0.0,9e-08,0.0,0.0,0.0,9e-08
1532134764155479600,3563,1532134764155225680,base_link,-0.0792771533215,0.0507923471859,-0.984020003053,0.151128766355,1.0,0.0,0.0,0.0,1.0,0.0,0.0,0.0,1.0,0.0553027242422,-0.028495516628,0.103077217937,1.21846967915e-07,0.0,0.0,0.0,1.21846967915e-07,0.0,0.0,0.0,1.21846967915e-07,1.96133,0.1372931,9.1397978,9e-08,0.0,0.0,0.0,9e-08,0.0,0.0,0.0,9e-08
1532134764486956464,3564,1532134764484060976,base_link,-0.078049280205,0.0365899007947,-0.981082697691,0.173338481912,1.0,0.0,0.0,0.0,1.0,0.0,0.0,0.0,1.0,0.0422690473497,-0.028240121901,0.154652923346,1.21846967915e-07,0.0,0.0,0.0,1.21846967915e-07,0.0,0.0,0.0,1.21846967915e-07,1.9024901,0.392266,9.5516771,9e-08,0.0,0.0,0.0,9e-08,0.0,0.0,0.0,9e-08
1532134764892498000,3565,1532134764892202928,base_link,-0.076637619559,0.0301083608652,-0.976271204756,0.20028653634,1.0,0.0,0.0,0.0,1.0,0.0,0.0,0.0,1.0,0.0357123687863,0.00197057845071,0.107537209988,1.21846967915e-07,0.0,0.0,0.0,1.21846967915e-07,0.0,0.0,0.0,1.21846967915e-07,2.08881645,0.5295591,9.81645665,9e-08,0.0,0.0,0.0,9e-08,0.0,0.0,0.0,9e-08
1532134765306707568,3566,1532134765305756944,base_link,-0.0721781345823,0.0113164285711,-0.973089261585,0.218539571522,1.0,0.0,0.0,0.0,1.0,0.0,0.0,0.0,1.0,0.121452532709,-0.00265787029639,0.0581852830946,1.21846967915e-07,0.0,0.0,0.0,1.21846967915e-07,0.0,0.0,0.0,1.21846967915e-07,2.3928226,0.55897905,10.395049,9e-08,0.0,0.0,0.0,9e-08,0.0,0.0,0.0,9e-08
1532134765688228016,3567,1532134765678100912,base_link,-0.0685553488709,-0.0227146957221,-0.971218201583,0.226978879311,1.0,0.0,0.0,0.0,1.0,0.0,0.0,0.0,1.0,0.230120062828,-0.0299041885883,-0.0249470695853,1.21846967915e-07,0.0,0.0,0.0,1.21846967915e-07,0.0,0.0,0.0,1.21846967915e-07,2.08881645,0.73549875,9.83606995,9e-08,0.0,0.0,0.0,9e-08,0.0,0.0,0.0,9e-08
1532134766093507440,3568,1532134766093216656,base_link,-0.054243147174,-0.0704690846467,-0.972432108008,0.215563411571,1.0,0.0,0.0,0.0,1.0,0.0,0.0,0.0,1.0,0.150643199682,0.0496069267392,-0.105338707566,1.21846967915e-07,0.0,0.0,0.0,1.21846967915e-07,0.0,0.0,0.0,1.21846967915e-07,2.0201699,0.71588545,8.83579165,9e-08,0.0,0.0,0.0,9e-08,0.0,0.0,0.0,9e-08
1532134766549768048,3569,1532134766549433648,base_link,-0.0402632085344,-0.107707494813,-0.975473818637,0.187693363637,1.0,0.0,0.0,0.0,1.0,0.0,0.0,0.0,1.0,0.186014741659,-0.00367666687816,-0.140215158463,1.21846967915e-07,0.0,0.0,0.0,1.21846967915e-07,0.0,0.0,0.0,1.21846967915e-07,1.95152335,0.50013915,8.52197885,9e-08,0.0,0.0,0.0,9e-08,0.0,0.0,0.0,9e-08
1532134766961027824,3570,1532134766957582576,base_link,-0.0393542588599,-0.133297782871,-0.977186984891,0.160588106506,1.0,0.0,0.0,0.0,1.0,0.0,0.0,0.0,1.0,-0.0139588285238,-0.0643077492714,-0.153162315488,1.21846967915e-07,0.0,0.0,0.0,1.21846967915e-07,0.0,0.0,0.0,1.21846967915e-07,2.5693423,0.67665885,10.983448,9e-08,0.0,0.0,0.0,9e-08,0.0,0.0,0.0,9e-08
1532134767276071024,3571,1532134767275555856,base_link,-0.0487339979591,-0.140349673717,-0.979123500919,0.138723236984,1.0,0.0,0.0,0.0,1.0,0.0,0.0,0.0,1.0,0.00462978286669,-0.0785631835461,-0.0636947602034,1.21846967915e-07,0.0,0.0,0.0,1.21846967915e-07,0.0,0.0,0.0,1.21846967915e-07,2.1182364,0.2157463,11.22861425,9e-08,0.0,0.0,0.0,9e-08,0.0,0.0,0.0,9e-08
1532134767553874864,3572,1532134767553187248,base_link,-0.0600368841778,-0.135223365339,-0.979859945561,0.134107050857,1.0,0.0,0.0,0.0,1.0,0.0,0.0,0.0,1.0,-0.0965767577291,-0.0387345589697,-0.0209400933236,1.21846967915e-07,0.0,0.0,0.0,1.21846967915e-07,0.0,0.0,0.0,1.21846967915e-07,1.765197,0.8041453,10.62060195,9e-08,0.0,0.0,0.0,9e-08,0.0,0.0,0.0,9e-08
1532134768002252144,3573,1532134768001883376,base_link,-0.0653385964391,-0.105334395353,-0.987153520938,0.100813982515,1.0,0.0,0.0,0.0,1.0,0.0,0.0,0.0,1.0,-0.280323028564,0.0123781766742,-0.200137361884,1.21846967915e-07,0.0,0.0,0.0,1.21846967915e-07,0.0,0.0,0.0,1.21846967915e-07,1.6867438,0.5687857,9.46341725,9e-08,0.0,0.0,0.0,9e-08,0.0,0.0,0.0,9e-08
1532134768418685776,3574,1532134768418312400,base_link,-0.071839851794,-0.103020560066,-0.990144648381,0.0619626918491,1.0,0.0,0.0,0.0,1.0,0.0,0.0,0.0,1.0,0.0136237256229,-0.0932930037379,-0.115082204342,1.21846967915e-07,0.0,0.0,0.0,1.21846967915e-07,0.0,0.0,0.0,1.21846967915e-07,1.63771055,0.5687857,10.99325465,9e-08,0.0,0.0,0.0,9e-08,0.0,0.0,0.0,9e-08
1532134768907287600,3575,1532134768906836976,base_link,-0.0843209821859,-0.0813314152365,-0.991852813999,0.0500316721797,1.0,0.0,0.0,0.0,1.0,0.0,0.0,0.0,1.0,-0.0135366600007,-0.0554059557617,-0.0382406786084,1.21846967915e-07,0.0,0.0,0.0,1.21846967915e-07,0.0,0.0,0.0,1.21846967915e-07,1.4709975,0.5099458,10.42446895,9e-08,0.0,0.0,0.0,9e-08,0.0,0.0,0.0,9e-08
1532134769267279344,3576,1532134769266559440,base_link,-0.0864651967786,-0.0500551446501,-0.993645960314,0.0518262268684,1.0,0.0,0.0,0.0,1.0,0.0,0.0,0.0,1.0,-0.365167319775,0.0392414629459,0.0584467351437,1.21846967915e-07,0.0,0.0,0.0,1.21846967915e-07,0.0,0.0,0.0,1.21846967915e-07,1.4121576,0.2157463,8.56120545,9e-08,0.0,0.0,0.0,9e-08,0.0,0.0,0.0,9e-08
1532134769682057520,3577,1532134769681708464,base_link,-0.0762609580018,0.0285534873382,-0.994828555691,0.0607051021567,1.0,0.0,0.0,0.0,1.0,0.0,0.0,0.0,1.0,-0.367920905352,0.117383025587,0.0514399930835,1.21846967915e-07,0.0,0.0,0.0,1.21846967915e-07,0.0,0.0,0.0,1.21846967915e-07,1.9024901,0.4511059,8.34545915,9e-08,0.0,0.0,0.0,9e-08,0.0,0.0,0.0,9e-08
1532134770147326032,3578,1532134770146901552,base_link,-0.0536679478848,0.0876227040137,-0.992874355741,0.0603533497223,1.0,0.0,0.0,0.0,1.0,0.0,0.0,0.0,1.0,-0.111484058201,0.109847791493,-0.00553281093016,1.21846967915e-07,0.0,0.0,0.0,1.21846967915e-07,0.0,0.0,0.0,1.21846967915e-07,1.765197,0.2549729,7.6884136,9e-08,0.0,0.0,0.0,9e-08,0.0,0.0,0.0,9e-08
1532134770423672432,3579,1532134770423285776,base_link,-0.0470670979212,0.0943460344887,-0.992088085822,0.0681523590176,1.0,0.0,0.0,0.0,1.0,0.0,0.0,0.0,1.0,-0.025405742228,0.0184360016137,0.125232428312,1.21846967915e-07,0.0,0.0,0.0,1.21846967915e-07,0.0,0.0,0.0,1.21846967915e-07,2.02997655,0.02941995,8.81617835,9e-08,0.0,0.0,0.0,9e-08,0.0,0.0,0.0,9e-08
1532134770844187088,3580,1532134770843890128,base_link,-0.0498642188036,0.094796260032,-0.98894804521,0.102513377874,1.0,0.0,0.0,0.0,1.0,0.0,0.0,0.0,1.0,0.0375762879848,-0.0714586302638,0.172722756863,1.21846967915e-07,0.0,0.0,0.0,1.21846967915e-07,0.0,0.0,0.0,1.21846967915e-07,2.0201699,0.22555295,9.5909037,9e-08,0.0,0.0,0.0,9e-08,0.0,0.0,0.0,9e-08
1532134771181426032,3581,1532134771180305712,base_link,-0.0578431838824,0.0784195432264,-0.985951706744,0.135660507473,1.0,0.0,0.0,0.0,1.0,0.0,0.0,0.0,1.0,0.111649975181,-0.0964761972427,0.190532356501,1.21846967915e-07,0.0,0.0,0.0,1.21846967915e-07,0.0,0.0,0.0,1.21846967915e-07,1.71616375,0.40207265,10.11065615,9e-08,0.0,0.0,0.0,9e-08,0.0,0.0,0.0,9e-08
1532134771679324848,3582,1532134771678006128,base_link,-0.0688197599964,0.0448988341511,-0.980867757198,0.176483365263,1.0,0.0,0.0,0.0,1.0,0.0,0.0,0.0,1.0,0.151218876243,-0.0538043044508,0.102226428688,1.21846967915e-07,0.0,0.0,0.0,1.21846967915e-07,0.0,0.0,0.0,1.21846967915e-07,1.8240369,0.2745862,11.2580342,9e-08,0.0,0.0,0.0,9e-08,0.0,0.0,0.0,9e-08
1532134772049911632,3583,1532134772049481360,base_link,-0.0706933934106,0.00125423504,-0.976606018713,0.20308016948,1.0,0.0,0.0,0.0,1.0,0.0,0.0,0.0,1.0,0.245195969939,-0.0444837659597,0.12534327805,1.21846967915e-07,0.0,0.0,0.0,1.21846967915e-07,0.0,0.0,0.0,1.21846967915e-07,1.7455837,0.4118793,10.24794925,9e-08,0.0,0.0,0.0,9e-08,0.0,0.0,0.0,9e-08
1532134772405419344,3584,1532134772405057840,base_link,-0.0666093228976,-0.0275173283082,-0.973844191702,0.215484303452,1.0,0.0,0.0,0.0,1.0,0.0,0.0,0.0,1.0,0.176609382033,0.0227892287076,-0.0201810169965,1.21846967915e-07,0.0,0.0,0.0,1.21846967915e-07,0.0,0.0,0.0,1.21846967915e-07,1.42196425,0.69627215,9.7478101,9e-08,0.0,0.0,0.0,9e-08,0.0,0.0,0.0,9e-08
1532134772858973904,3585,1532134772858741680,base_link,-0.0472342426072,-0.0773402068901,-0.973346968534,0.210672963547,1.0,0.0,0.0,0.0,1.0,0.0,0.0,0.0,1.0,0.201993122697,0.0364145748317,-0.0419374331832,1.21846967915e-07,0.0,0.0,0.0,1.21846967915e-07,0.0,0.0,0.0,1.21846967915e-07,1.5298374,0.5099458,9.67916355,9e-08,0.0,0.0,0.0,9e-08,0.0,0.0,0.0,9e-08
1532134773273116720,3586,1532134773272884432,base_link,-0.0276618744952,-0.105402798201,-0.974263481766,0.197321410211,1.0,0.0,0.0,0.0,1.0,0.0,0.0,0.0,1.0,0.1176302284,0.0577551759779,-0.118149392307,1.21846967915e-07,0.0,0.0,0.0,1.21846967915e-07,0.0,0.0,0.0,1.21846967915e-07,1.4121576,0.48052585,7.99241975,9e-08,0.0,0.0,0.0,9e-08,0.0,0.0,0.0,9e-08
1532134773582364720,3587,1532134773582057936,base_link,-0.0167821134582,-0.111693951517,-0.977779696677,0.176606020928,1.0,0.0,0.0,0.0,1.0,0.0,0.0,0.0,1.0,0.00980149582028,0.0297890137881,-0.143920093775,1.21846967915e-07,0.0,0.0,0.0,1.21846967915e-07,0.0,0.0,0.0,1.21846967915e-07,1.53964405,0.3726527,9.1005712,9e-08,0.0,0.0,0.0,9e-08,0.0,0.0,0.0,9e-08
1532134774037588112,3588,1532134774036983056,base_link,-0.013063421832,-0.108771943807,-0.982453217672,0.150942659104,1.0,0.0,0.0,0.0,1.0,0.0,0.0,0.0,1.0,-0.0343811810017,0.00401392672211,-0.0707518309355,1.21846967915e-07,0.0,0.0,0.0,1.21846967915e-07,0.0,0.0,0.0,1.21846967915e-07,1.52003075,0.2941995,9.3947707,9e-08,0.0,0.0,0.0,9e-08,0.0,0.0,0.0,9e-08
1532134774409015184,3589,1532134774408425872,base_link,-0.0174547280942,-0.0996672562203,-0.985671487561,0.134957360356,1.0,0.0,0.0,0.0,1.0,0.0,0.0,0.0,1.0,-0.126905933022,-0.00146443024278,-0.135819062591,1.21846967915e-07,0.0,0.0,0.0,1.21846967915e-07,0.0,0.0,0.0,1.21846967915e-07,1.14737805,0.5687857,8.87501825,9e-08,0.0,0.0,0.0,9e-08,0.0,0.0,0.0,9e-08
1532134774768766672,3590,1532134774768529840,base_link,-0.0197577634412,-0.0924334388633,-0.989539229309,0.10898533765,1.0,0.0,0.0,0.0,1.0,0.0,0.0,0.0,1.0,0.0644109174609,-0.0671855732799,-0.135838717222,1.21846967915e-07,0.0,0.0,0.0,1.21846967915e-07,0.0,0.0,0.0,1.21846967915e-07,1.18660465,0.38245935,10.13026945,9e-08,0.0,0.0,0.0,9e-08,0.0,0.0,0.0,9e-08
1532134775061627440,3591,1532134775061298800,base_link,-0.0319316405278,-0.108399235825,-0.988851417193,0.0969682975021,1.0,0.0,0.0,0.0,1.0,0.0,0.0,0.0,1.0,-0.0209088809788,-0.100876353681,-0.032555449754,1.21846967915e-07,0.0,0.0,0.0,1.21846967915e-07,0.0,0.0,0.0,1.21846967915e-07,1.40235095,0.36284605,11.0815145,9e-08,0.0,0.0,0.0,9e-08,0.0,0.0,0.0,9e-08
1532134775540962640,3592,1532134775540663568,base_link,-0.0476308725106,-0.0810065290815,-0.992572837385,0.0772554510444,1.0,0.0,0.0,0.0,1.0,0.0,0.0,0.0,1.0,-0.130570143461,0.0191497392952,-0.172761633992,1.21846967915e-07,0.0,0.0,0.0,1.21846967915e-07,0.0,0.0,0.0,1.21846967915e-07,0.93163175,0.71588545,9.48303055,9e-08,0.0,0.0,0.0,9e-08,0.0,0.0,0.0,9e-08
1532134775947326256,3593,1532134775946835376,base_link,-0.0506991584071,-0.0794092210681,-0.994796730125,0.0387715962895,1.0,0.0,0.0,0.0,1.0,0.0,0.0,0.0,1.0,0.0108630713075,-0.0649053752422,-0.125889122486,1.21846967915e-07,0.0,0.0,0.0,1.21846967915e-07,0.0,0.0,0.0,1.21846967915e-07,1.0395049,0.0784532,10.9049948,9e-08,0.0,0.0,0.0,9e-08,0.0,0.0,0.0,9e-08
1532134776368595952,3594,1532134776368294992,base_link,-0.0610800183863,-0.0928677717999,-0.99330765774,0.031380015775,1.0,0.0,0.0,0.0,1.0,0.0,0.0,0.0,1.0,0.180220991373,-0.0569986701012,-0.0284153483808,1.21846967915e-07,0.0,0.0,0.0,1.21846967915e-07,0.0,0.0,0.0,1.21846967915e-07,0.93163175,0.46091255,10.32640245,9e-08,0.0,0.0,0.0,9e-08,0.0,0.0,0.0,9e-08
1532134776741102224,3595,1532134776740764624,base_link,-0.0650847253461,-0.11119106635,-0.991158918158,0.031694230495,1.0,0.0,0.0,0.0,1.0,0.0,0.0,0.0,1.0,-0.106608316302,0.0160212125629,-0.0448752753437,1.21846967915e-07,0.0,0.0,0.0,1.21846967915e-07,0.0,0.0,0.0,1.21846967915e-07,0.95124505,0.4707192,9.34573745,9e-08,0.0,0.0,0.0,9e-08,0.0,0.0,0.0,9e-08
1532134777148718544,3596,1532134777148121264,base_link,-0.0588224694757,-0.11227983131,-0.991813254631,0.0154798095607,1.0,0.0,0.0,0.0,1.0,0.0,0.0,0.0,1.0,0.106397427619,0.0131717342883,-0.0894956588745,1.21846967915e-07,0.0,0.0,0.0,1.21846967915e-07,0.0,0.0,0.0,1.21846967915e-07,0.8433719,0.2745862,8.83579165,9e-08,0.0,0.0,0.0,9e-08,0.0,0.0,0.0,9e-08
1532134777478041808,3597,1532134777477806448,base_link,-0.0541004715521,-0.127228305842,-0.99039483372,0.00204218271927,1.0,0.0,0.0,0.0,1.0,0.0,0.0,0.0,1.0,0.0432904697955,0.0186757817864,-0.10229665041,1.21846967915e-07,0.0,0.0,0.0,1.21846967915e-07,0.0,0.0,0.0,1.21846967915e-07,0.93163175,0.63743225,8.77695175,9e-08,0.0,0.0,0.0,9e-08,0.0,0.0,0.0,9e-08
1532134777897635120,3598,1532134777897279504,base_link,-0.0427799818656,-0.147774414619,-0.987612865923,-0.0308775419702,1.0,0.0,0.0,0.0,1.0,0.0,0.0,0.0,1.0,0.16688375175,0.00617301370949,-0.215969711542,1.21846967915e-07,0.0,0.0,0.0,1.21846967915e-07,0.0,0.0,0.0,1.21846967915e-07,1.14737805,0.65704555,10.0420096,9e-08,0.0,0.0,0.0,9e-08,0.0,0.0,0.0,9e-08
1532134778279767376,3599,1532134778279419376,base_link,-0.0387417930223,-0.18136487268,-0.980071099496,-0.0711793253944,1.0,0.0,0.0,0.0,1.0,0.0,0.0,0.0,1.0,0.282015383244,-0.0067168911919,-0.251300394535,1.21846967915e-07,0.0,0.0,0.0,1.21846967915e-07,0.0,0.0,0.0,1.21846967915e-07,1.18660465,0.3726527,9.1005712,9e-08,0.0,0.0,0.0,9e-08,0.0,0.0,0.0,9e-08
1532134778641134032,3600,1532134778640833840,base_link,-0.04089345409,-0.214186718961,-0.969005820732,-0.116101224028,1.0,0.0,0.0,0.0,1.0,0.0,0.0,0.0,1.0,0.216029986739,-0.0746415406466,-0.267507374287,1.21846967915e-07,0.0,0.0,0.0,1.21846967915e-07,0.0,0.0,0.0,1.21846967915e-07,1.02969825,0.40207265,8.07087295,9e-08,0.0,0.0,0.0,9e-08,0.0,0.0,0.0,9e-08
1532134778996140720,3601,1532134778995529680,base_link,-0.0538756977735,-0.258908785637,-0.950573084646,-0.162709743578,1.0,0.0,0.0,0.0,1.0,0.0,0.0,0.0,1.0,0.0744782909751,-0.125241830945,-0.350785762072,1.21846967915e-07,0.0,0.0,0.0,1.21846967915e-07,0.0,0.0,0.0,1.21846967915e-07,1.32389775,1.18660465,9.50264385,9e-08,0.0,0.0,0.0,9e-08,0.0,0.0,0.0,9e-08
1532134779531368304,3602,1532134779531092048,base_link,-0.0748929699766,-0.27803617483,-0.917660266161,-0.273836747796,1.0,0.0,0.0,0.0,1.0,0.0,0.0,0.0,1.0,0.122789844871,-0.255653202534,-0.412795424461,1.21846967915e-07,0.0,0.0,0.0,1.21846967915e-07,0.0,0.0,0.0,1.21846967915e-07,1.4121576,0.65704555,11.26784085,9e-08,0.0,0.0,0.0,9e-08,0.0,0.0,0.0,9e-08
1532134779881219536,3603,1532134779880626416,base_link,-0.128530895094,-0.302535950034,-0.878425645425,-0.346872013,1.0,0.0,0.0,0.0,1.0,0.0,0.0,0.0,1.0,0.240002393723,-0.365889817476,-0.315932810307,1.21846967915e-07,0.0,0.0,0.0,1.21846967915e-07,0.0,0.0,0.0,1.21846967915e-07,1.77500365,0.6472389,12.160246,9e-08,0.0,0.0,0.0,9e-08,0.0,0.0,0.0,9e-08
1532134780247984048,3604,1532134780247548976,base_link,-0.16844554239,-0.283147138768,-0.845634219112,-0.419948287916,1.0,0.0,0.0,0.0,1.0,0.0,0.0,0.0,1.0,0.0440581478179,-0.376535534859,-0.37828463316,1.21846967915e-07,0.0,0.0,0.0,1.21846967915e-07,0.0,0.0,0.0,1.21846967915e-07,1.8632635,0.7060788,12.89574475,9e-08,0.0,0.0,0.0,9e-08,0.0,0.0,0.0,9e-08
1532134780629990096,3605,1532134780629748688,base_link,-0.224025024771,-0.278434500291,-0.793540566845,-0.492524503039,1.0,0.0,0.0,0.0,1.0,0.0,0.0,0.0,1.0,0.0134697649628,-0.415381789207,-0.351291567087,1.21846967915e-07,0.0,0.0,0.0,1.21846967915e-07,0.0,0.0,0.0,1.21846967915e-07,1.6082906,1.0591182,14.5530686,9e-08,0.0,0.0,0.0,9e-08,0.0,0.0,0.0,9e-08
1532134781093603792,3606,1532134781093187056,base_link,-0.26059158014,-0.235638574794,-0.726347010962,-0.590750802027,1.0,0.0,0.0,0.0,1.0,0.0,0.0,0.0,1.0,-0.217938989401,-0.392941325903,-0.376799672842,1.21846967915e-07,0.0,0.0,0.0,1.21846967915e-07,0.0,0.0,0.0,1.21846967915e-07,1.10815145,0.59820565,12.03275955,9e-08,0.0,0.0,0.0,9e-08,0.0,0.0,0.0,9e-08
1532134781543965808,3607,1532134781543077424,base_link,-0.261597171336,-0.146326844697,-0.668195105914,-0.680933678784,1.0,0.0,0.0,0.0,1.0,0.0,0.0,0.0,1.0,-0.602385282516,-0.344320803881,-0.253898650408,1.21846967915e-07,0.0,0.0,0.0,1.21846967915e-07,0.0,0.0,0.0,1.21846967915e-07,1.48080415,0.63743225,14.13138265,9e-08,0.0,0.0,0.0,9e-08,0.0,0.0,0.0,9e-08
1532134781923815248,3608,1532134781923550512,base_link,-0.21079037262,-0.0442719105975,-0.636313247027,-0.740751556462,1.0,0.0,0.0,0.0,1.0,0.0,0.0,0.0,1.0,-0.593692481518,-0.20905700326,-0.177054941654,1.21846967915e-07,0.0,0.0,0.0,1.21846967915e-07,0.0,0.0,0.0,1.21846967915e-07,1.2944778,0.55897905,12.8663248,9e-08,0.0,0.0,0.0,9e-08,0.0,0.0,0.0,9e-08
1532134782352116272,3609,1532134782351689680,base_link,-0.141541278697,0.0341005354824,-0.606011253077,-0.782018913485,1.0,0.0,0.0,0.0,1.0,0.0,0.0,0.0,1.0,-0.555826365948,-0.0220947060734,-0.197932839394,1.21846967915e-07,0.0,0.0,0.0,1.21846967915e-07,0.0,0.0,0.0,1.21846967915e-07,0.9022118,0.7649187,10.2969825,9e-08,0.0,0.0,0.0,9e-08,0.0,0.0,0.0,9e-08
1532134782579396528,3610,1532134782578677648,base_link,-0.0941835644792,0.0708100169993,-0.587689050336,-0.800460478593,1.0,0.0,0.0,0.0,1.0,0.0,0.0,0.0,1.0,-0.465725809336,-0.00950659438968,-0.100553423166,1.21846967915e-07,0.0,0.0,0.0,1.21846967915e-07,0.0,0.0,0.0,1.21846967915e-07,0.9414384,0.1765197,10.1008495,9e-08,0.0,0.0,0.0,9e-08,0.0,0.0,0.0,9e-08
1532134782949035984,3611,1532134782948256720,base_link,-0.0435059290262,0.108955762652,-0.583350362114,-0.80370282502,1.0,0.0,0.0,0.0,1.0,0.0,0.0,0.0,1.0,-0.334345012903,-0.00168146938086,0.104596875608,1.21846967915e-07,0.0,0.0,0.0,1.21846967915e-07,0.0,0.0,0.0,1.21846967915e-07,1.32389775,0.12748645,10.09104285,9e-08,0.0,0.0,0.0,9e-08,0.0,0.0,0.0,9e-08
1532134783368788304,3612,1532134783368045424,base_link,0.0267126175802,0.146816231021,-0.600772087228,-0.785368913046,1.0,0.0,0.0,0.0,1.0,0.0,0.0,0.0,1.0,-0.255669087172,0.0636236146092,0.178173989058,1.21846967915e-07,0.0,0.0,0.0,1.21846967915e-07,0.0,0.0,0.0,1.21846967915e-07,1.3925443,1.02562688831e-15,8.3748791,9e-08,0.0,0.0,0.0,9e-08,0.0,0.0,0.0,9e-08
1532134783754028080,3613,1532134783753752976,base_link,0.0740516202129,0.160771969062,-0.630912663644,-0.755392574997,1.0,0.0,0.0,0.0,1.0,0.0,0.0,0.0,1.0,-0.161950662732,0.081957988441,0.262885510921,1.21846967915e-07,0.0,0.0,0.0,1.21846967915e-07,0.0,0.0,0.0,1.21846967915e-07,1.5102241,0.1765197,8.8063717,9e-08,0.0,0.0,0.0,9e-08,0.0,0.0,0.0,9e-08
1532134784252737488,3614,1532134784252379216,base_link,0.102802882219,0.152321844333,-0.679191779655,-0.710582964611,1.0,0.0,0.0,0.0,1.0,0.0,0.0,0.0,1.0,0.110532283783,0.0150105180219,0.295674264431,1.21846967915e-07,0.0,0.0,0.0,1.21846967915e-07,0.0,0.0,0.0,1.21846967915e-07,1.5494507,0.30400615,8.48275225,9e-08,0.0,0.0,0.0,9e-08,0.0,0.0,0.0,9e-08
1532134784619468336,3615,1532134784619039664,base_link,0.0910856169373,0.125013463003,-0.714298213602,-0.682534326243,1.0,0.0,0.0,0.0,1.0,0.0,0.0,0.0,1.0,0.321942061186,-0.0307532213628,0.180506676435,1.21846967915e-07,0.0,0.0,0.0,1.21846967915e-07,0.0,0.0,0.0,1.21846967915e-07,1.2944778,0.2549729,8.93385815,9e-08,0.0,0.0,0.0,9e-08,0.0,0.0,0.0,9e-08
1532134785058322480,3616,1532134785057897456,base_link,0.0574408959359,0.0868108655723,-0.753963671932,-0.648616372365,1.0,0.0,0.0,0.0,1.0,0.0,0.0,0.0,1.0,0.353572696447,-0.00421552918851,0.188219889998,1.21846967915e-07,0.0,0.0,0.0,1.21846967915e-07,0.0,0.0,0.0,1.21846967915e-07,1.26505785,0.38245935,9.80665,9e-08,0.0,0.0,0.0,9e-08,0.0,0.0,0.0,9e-08
1532134785498198352,3617,1532134785497708688,base_link,-0.00261390489358,0.0186933094097,-0.775661048037,-0.630867391963,1.0,0.0,0.0,0.0,1.0,0.0,0.0,0.0,1.0,0.456884324551,-0.0194712616503,0.0341855250299,1.21846967915e-07,0.0,0.0,0.0,1.21846967915e-07,0.0,0.0,0.0,1.21846967915e-07,0.83356525,0.3334261,8.79656505,9e-08,0.0,0.0,0.0,9e-08,0.0,0.0,0.0,9e-08
1532134785797973040,3618,1532134785793716944,base_link,-0.0373748128073,-0.0161224690301,-0.780479264738,-0.62385519688,1.0,0.0,0.0,0.0,1.0,0.0,0.0,0.0,1.0,0.230587974191,-0.0286269672215,0.0274595953524,1.21846967915e-07,0.0,0.0,0.0,1.21846967915e-07,0.0,0.0,0.0,1.21846967915e-07,0.91201845,0.2745862,9.30651085,9e-08,0.0,0.0,0.0,9e-08,0.0,0.0,0.0,9e-08
1532134786274716080,3619,1532134786274396944,base_link,-0.0760536648404,-0.0585982826334,-0.774846545385,-0.624815902841,1.0,0.0,0.0,0.0,1.0,0.0,0.0,0.0,1.0,0.301397442818,-0.00464364467189,-0.115654043853,1.21846967915e-07,0.0,0.0,0.0,1.21846967915e-07,0.0,0.0,0.0,1.21846967915e-07,0.9218251,0.6080123,9.22805765,9e-08,0.0,0.0,0.0,9e-08,0.0,0.0,0.0,9e-08
1532134786678844656,3620,1532134786678586512,base_link,-0.0966943181272,-0.0876045220742,-0.753841663843,-0.643970808661,1.0,0.0,0.0,0.0,1.0,0.0,0.0,0.0,1.0,-0.0119687188417,0.00559385214001,-0.184628263116,1.21846967915e-07,0.0,0.0,0.0,1.21846967915e-07,0.0,0.0,0.0,1.21846967915e-07,0.9022118,0.34323275,9.14960445,9e-08,0.0,0.0,0.0,9e-08,0.0,0.0,0.0,9e-08
1532134787042838832,3621,1532134787042540784,base_link,-0.0885109394575,-0.0761644252774,-0.735796451467,-0.667059499541,1.0,0.0,0.0,0.0,1.0,0.0,0.0,0.0,1.0,-0.0618670731783,-0.0369569435716,-0.195281296968,1.21846967915e-07,0.0,0.0,0.0,1.21846967915e-07,0.0,0.0,0.0,1.21846967915e-07,1.1179581,0.5099458,10.46369555,9e-08,0.0,0.0,0.0,9e-08,0.0,0.0,0.0,9e-08
1532134787552694544,3622,1532134787552076304,base_link,-0.0834262428079,-0.0605559972906,-0.702441396605,-0.70423654942,1.0,0.0,0.0,0.0,1.0,0.0,0.0,0.0,1.0,-0.0726697519422,-0.0615906976163,-0.179830729961,1.21846967915e-07,0.0,0.0,0.0,1.21846967915e-07,0.0,0.0,0.0,1.21846967915e-07,0.99047165,0.3726527,10.5715687,9e-08,0.0,0.0,0.0,9e-08,0.0,0.0,0.0,9e-08
1532134787861132752,3623,1532134787860790032,base_link,-0.0905303604667,-0.0534477036832,-0.686815122239,-0.719188837976,1.0,0.0,0.0,0.0,1.0,0.0,0.0,0.0,1.0,-0.0599664524198,-0.0870800763369,-0.0918167233467,1.21846967915e-07,0.0,0.0,0.0,1.21846967915e-07,0.0,0.0,0.0,1.21846967915e-07,0.87279185,0.20593965,10.6696352,9e-08,0.0,0.0,0.0,9e-08,0.0,0.0,0.0,9e-08
1532134788201866864,3624,1532134788200851408,base_link,-0.0856165677703,-0.0320868509048,-0.68282782041,-0.724835433044,1.0,0.0,0.0,0.0,1.0,0.0,0.0,0.0,1.0,-0.187230169773,-0.0962908938527,-0.0214881747961,1.21846967915e-07,0.0,0.0,0.0,1.21846967915e-07,0.0,0.0,0.0,1.21846967915e-07,0.95124505,0.2745862,10.3558224,9e-08,0.0,0.0,0.0,9e-08,0.0,0.0,0.0,9e-08
1532134788476803568,3625,1532134788476533200,base_link,-0.0691873307911,-0.00289347386368,-0.681190904488,-0.728823499011,1.0,0.0,0.0,0.0,1.0,0.0,0.0,0.0,1.0,-0.268313586712,-0.0483482331038,-0.034907348454,1.21846967915e-07,0.0,0.0,0.0,1.21846967915e-07,0.0,0.0,0.0,1.21846967915e-07,1.04931155,0.53936575,10.983448,9e-08,0.0,0.0,0.0,9e-08,0.0,0.0,0.0,9e-08
1532134788707785296,3626,1532134788707037552,base_link,-0.0495680878519,0.0191659271912,-0.676858013839,-0.734192686563,1.0,0.0,0.0,0.0,1.0,0.0,0.0,0.0,1.0,-0.251006036997,-0.0304672829807,-0.0578336380422,1.21846967915e-07,0.0,0.0,0.0,1.21846967915e-07,0.0,0.0,0.0,1.21846967915e-07,0.87279185,0.44129925,10.2381426,9e-08,0.0,0.0,0.0,9e-08,0.0,0.0,0.0,9e-08
1532134789135356944,3627,1532134789134733904,base_link,-0.0318539342133,0.0474568288458,-0.67407447873,-0.736448758161,1.0,0.0,0.0,0.0,1.0,0.0,0.0,0.0,1.0,0.0118847861886,-0.0369991473854,0.0335857607424,1.21846967915e-07,0.0,0.0,0.0,1.21846967915e-07,0.0,0.0,0.0,1.21846967915e-07,0.99047165,0.2745862,10.81673495,9e-08,0.0,0.0,0.0,9e-08,0.0,0.0,0.0,9e-08
1532134789624766032,3628,1532134789624420720,base_link,-0.034651363774,0.053013297325,-0.694003062311,-0.717181025124,1.0,0.0,0.0,0.0,1.0,0.0,0.0,0.0,1.0,0.0370371378958,-0.014915894717,0.155308946967,1.21846967915e-07,0.0,0.0,0.0,1.21846967915e-07,0.0,0.0,0.0,1.21846967915e-07,0.87279185,0.16671305,10.36562905,9e-08,0.0,0.0,0.0,9e-08,0.0,0.0,0.0,9e-08
1532134790006368304,3629,1532134790006042768,base_link,-0.0164114824139,0.0617801433782,-0.712302344151,-0.698955826677,1.0,0.0,0.0,0.0,1.0,0.0,0.0,0.0,1.0,-0.0817114934325,0.0609286762774,0.0726021379232,1.21846967915e-07,0.0,0.0,0.0,1.21846967915e-07,0.0,0.0,0.0,1.21846967915e-07,0.7256921,0.3334261,9.0417313,9e-08,0.0,0.0,0.0,9e-08,0.0,0.0,0.0,9e-08
1532134790383968592,3630,1532134790383734896,base_link,-0.0147446541713,0.0385819956583,-0.719773355308,-0.69297932276,1.0,0.0,0.0,0.0,1.0,0.0,0.0,0.0,1.0,-0.107388928533,0.104960590601,0.0686396658421,1.21846967915e-07,0.0,0.0,0.0,1.21846967915e-07,0.0,0.0,0.0,1.21846967915e-07,0.71588545,0.0980665,7.95319315,9e-08,0.0,0.0,0.0,9e-08,0.0,0.0,0.0,9e-08
1532134790773328816,3631,1532134790772574480,base_link,-0.0213635066112,-0.00360853125625,-0.730821529268,-0.682224648811,1.0,0.0,0.0,0.0,1.0,0.0,0.0,0.0,1.0,0.405940741301,0.117363274097,0.0493431799114,1.21846967915e-07,0.0,0.0,0.0,1.21846967915e-07,0.0,0.0,0.0,1.21846967915e-07,0.81395195,0.22555295,6.5116156,9e-08,0.0,0.0,0.0,9e-08,0.0,0.0,0.0,9e-08
1532134791104003568,3632,1532134791103525136,base_link,-0.0682954272469,-0.0816924827031,-0.728668232722,-0.676538749451,1.0,0.0,0.0,0.0,1.0,0.0,0.0,0.0,1.0,0.486744105816,0.0586572661996,-0.0636017471552,1.21846967915e-07,0.0,0.0,0.0,1.21846967915e-07,0.0,0.0,0.0,1.21846967915e-07,1.5298374,0.4511059,7.1980811,9e-08,0.0,0.0,0.0,9e-08,0.0,0.0,0.0,9e-08
1532134791428938480,3633,1532134791428690384,base_link,-0.118712788303,-0.14381240048,-0.708159407399,-0.680981292749,1.0,0.0,0.0,0.0,1.0,0.0,0.0,0.0,1.0,0.461436361074,0.00494457408786,-0.19617857039,1.21846967915e-07,0.0,0.0,0.0,1.21846967915e-07,0.0,0.0,0.0,1.21846967915e-07,1.4317709,0.87279185,8.56120545,9e-08,0.0,0.0,0.0,9e-08,0.0,0.0,0.0,9e-08
1532134791802566800,3634,1532134791802321168,base_link,-0.162396595223,-0.183991886008,-0.6602915876,-0.709781199446,1.0,0.0,0.0,0.0,1.0,0.0,0.0,0.0,1.0,0.287316471338,-0.16927677393,-0.357679098845,1.21846967915e-07,0.0,0.0,0.0,1.21846967915e-07,0.0,0.0,0.0,1.21846967915e-07,1.48080415,0.8433719,9.8654899,9e-08,0.0,0.0,0.0,9e-08,0.0,0.0,0.0,9e-08
1532134792122782000,3635,1532134792122198800,base_link,-0.214142033483,-0.191688581415,-0.602285688451,-0.744748700394,1.0,0.0,0.0,0.0,1.0,0.0,0.0,0.0,1.0,0.246698796749,-0.337662994862,-0.319866269827,1.21846967915e-07,0.0,0.0,0.0,1.21846967915e-07,0.0,0.0,0.0,1.21846967915e-07,1.765197,0.85317855,12.36618565,9e-08,0.0,0.0,0.0,9e-08,0.0,0.0,0.0,9e-08
1532134792480658512,3636,1532134792480286032,base_link,-0.273701743934,-0.184697687066,-0.526294592157,-0.783573941645,1.0,0.0,0.0,0.0,1.0,0.0,0.0,0.0,1.0,0.146205097437,-0.380702584982,-0.395668894053,1.21846967915e-07,0.0,0.0,0.0,1.21846967915e-07,0.0,0.0,0.0,1.21846967915e-07,1.08853815,0.53936575,12.0425662,9e-08,0.0,0.0,0.0,9e-08,0.0,0.0,0.0,9e-08
1532134792888547344,3637,1532134792888148848,base_link,-0.343880368426,-0.164621299478,-0.42933150251,-0.818731079734,1.0,0.0,0.0,0.0,1.0,0.0,0.0,0.0,1.0,0.204920247197,-0.495491862297,-0.310565322638,1.21846967915e-07,0.0,0.0,0.0,1.21846967915e-07,0.0,0.0,0.0,1.21846967915e-07,1.4121576,0.3530394,12.83690485,9e-08,0.0,0.0,0.0,9e-08,0.0,0.0,0.0,9e-08
1532134793273940048,3638,1532134793273670832,base_link,-0.375481197764,-0.102968390167,-0.341799488648,-0.855327124738,1.0,0.0,0.0,0.0,1.0,0.0,0.0,0.0,1.0,-0.16339622438,-0.444702714682,-0.379061281681,1.21846967915e-07,0.0,0.0,0.0,1.21846967915e-07,0.0,0.0,0.0,1.21846967915e-07,2.24572285,1.06892485,14.709975,9e-08,0.0,0.0,0.0,9e-08,0.0,0.0,0.0,9e-08
1532134793741384528,3639,1532134793741147920,base_link,-0.356500903503,-0.0261356877171,-0.217709117722,-0.908199742177,1.0,0.0,0.0,0.0,1.0,0.0,0.0,0.0,1.0,-0.332442253828,-0.474759727716,-0.334787160158,1.21846967915e-07,0.0,0.0,0.0,1.21846967915e-07,0.0,0.0,0.0,1.21846967915e-07,1.5298374,0.57859235,15.3179873,9e-08,0.0,0.0,0.0,9e-08,0.0,0.0,0.0,9e-08
1532134794102407408,3640,1532134794102090928,base_link,-0.336178943202,0.0319022842168,-0.141637957735,-0.930539978366,1.0,0.0,0.0,0.0,1.0,0.0,0.0,0.0,1.0,-0.137584492564,-0.40040370822,-0.282708108425,1.21846967915e-07,0.0,0.0,0.0,1.21846967915e-07,0.0,0.0,0.0,1.21846967915e-07,1.4513842,0.7649187,13.38607725,9e-08,0.0,0.0,0.0,9e-08,0.0,0.0,0.0,9e-08
1532134794393114800,3641,1532134794392856912,base_link,-0.33142012217,0.0710002538513,-0.0823822441077,-0.937194127398,1.0,0.0,0.0,0.0,1.0,0.0,0.0,0.0,1.0,-0.108420222998,-0.315041869879,-0.309480398893,1.21846967915e-07,0.0,0.0,0.0,1.21846967915e-07,0.0,0.0,0.0,1.21846967915e-07,1.9417167,0.8629852,13.66066345,9e-08,0.0,0.0,0.0,9e-08,0.0,0.0,0.0,9e-08
1532134794838347216,3642,1532134794837903792,base_link,-0.265295002609,0.110726297696,0.0128517872694,-0.957701978777,1.0,0.0,0.0,0.0,1.0,0.0,0.0,0.0,1.0,-0.530757427216,-0.242739379406,-0.256255447865,1.21846967915e-07,0.0,0.0,0.0,1.21846967915e-07,0.0,0.0,0.0,1.21846967915e-07,2.30456275,0.4903325,12.5132854,9e-08,0.0,0.0,0.0,9e-08,0.0,0.0,0.0,9e-08
1532134795244236208,3643,1532134795243974480,base_link,-0.14573854881,0.136920892921,0.0808109721509,-0.976464301064,1.0,0.0,0.0,0.0,1.0,0.0,0.0,0.0,1.0,-0.648287057877,-0.122568033636,-0.146960422397,1.21846967915e-07,0.0,0.0,0.0,1.21846967915e-07,0.0,0.0,0.0,1.21846967915e-07,1.99074995,0.2549729,11.75817335,9e-08,0.0,0.0,0.0,9e-08,0.0,0.0,0.0,9e-08
1532134795743549264,3644,1532134795742074992,base_link,-0.00417721639722,0.145198875255,0.120150521396,-0.982071122524,1.0,0.0,0.0,0.0,1.0,0.0,0.0,0.0,1.0,-0.407005757093,-0.0050531104207,0.00716627482325,1.21846967915e-07,0.0,0.0,0.0,1.21846967915e-07,0.0,0.0,0.0,1.21846967915e-07,1.69655045,0.2353596,10.64021525,9e-08,0.0,0.0,0.0,9e-08,0.0,0.0,0.0,9e-08
1532134796183692208,3645,1532134796183113424,base_link,0.0772738651188,0.127236201219,0.126444825031,-0.980740233238,1.0,0.0,0.0,0.0,1.0,0.0,0.0,0.0,1.0,-0.275222957134,0.0855134055018,0.0753796100616,1.21846967915e-07,0.0,0.0,0.0,1.21846967915e-07,0.0,0.0,0.0,1.21846967915e-07,1.6671305,0.2941995,9.5909037,9e-08,0.0,0.0,0.0,9e-08,0.0,0.0,0.0,9e-08
1532134796702031632,3646,1532134796698513008,base_link,0.118332293559,0.0961558204576,0.0968528245481,-0.983550230985,1.0,0.0,0.0,0.0,1.0,0.0,0.0,0.0,1.0,0.0312342904508,0.0962367504835,0.239622026682,1.21846967915e-07,0.0,0.0,0.0,1.21846967915e-07,0.0,0.0,0.0,1.21846967915e-07,2.28494945,0.16671305,9.2770909,9e-08,0.0,0.0,0.0,9e-08,0.0,0.0,0.0,9e-08
1532134797084155856,3647,1532134797083834448,base_link,0.102499353249,0.0687556849194,0.0638096375095,-0.990300393081,1.0,0.0,0.0,0.0,1.0,0.0,0.0,0.0,1.0,0.175393089652,0.194818779826,0.075587272644,1.21846967915e-07,0.0,0.0,0.0,1.21846967915e-07,0.0,0.0,0.0,1.21846967915e-07,2.1182364,0.4707192,7.0019481,9e-08,0.0,0.0,0.0,9e-08,0.0,0.0,0.0,9e-08
1532134797540370544,3648,1532134797540120336,base_link,0.0451424123654,0.0339119244275,0.0635485999861,-0.996380308631,1.0,0.0,0.0,0.0,1.0,0.0,0.0,0.0,1.0,0.226400241256,0.0942717343569,0.0610464550555,1.21846967915e-07,0.0,0.0,0.0,1.21846967915e-07,0.0,0.0,0.0,1.21846967915e-07,2.12804305,0.0980665,6.3547092,9e-08,0.0,0.0,0.0,9e-08,0.0,0.0,0.0,9e-08
1532134797905208304,3649,1532134797897701008,base_link,0.00613163965466,0.0261765335689,0.045866744996,-0.998585716796,1.0,0.0,0.0,0.0,1.0,0.0,0.0,0.0,1.0,0.321731120348,0.0107286702842,0.130179345608,1.21846967915e-07,0.0,0.0,0.0,1.21846967915e-07,0.0,0.0,0.0,1.21846967915e-07,2.2751428,0.0980665,8.1002929,9e-08,0.0,0.0,0.0,9e-08,0.0,0.0,0.0,9e-08
1532134798334148752,3650,1532134798333893744,base_link,-0.0131936203763,0.0351813175348,0.0148472959725,-0.999183547243,1.0,0.0,0.0,0.0,1.0,0.0,0.0,0.0,1.0,-0.0373484715819,-0.0686235353351,0.0979419946671,1.21846967915e-07,0.0,0.0,0.0,1.21846967915e-07,0.0,0.0,0.0,1.21846967915e-07,2.4712758,0.53936575,10.87557485,9e-08,0.0,0.0,0.0,9e-08,0.0,0.0,0.0,9e-08
1532134798724378224,3651,1532134798724131376,base_link,-0.0194988065726,0.0528944437584,0.0090484240304,-0.998368719654,1.0,0.0,0.0,0.0,1.0,0.0,0.0,0.0,1.0,0.00913369841874,-0.0788159817457,-0.00577620044351,1.21846967915e-07,0.0,0.0,0.0,1.21846967915e-07,0.0,0.0,0.0,1.21846967915e-07,1.95152335,0.8433719,10.8657682,9e-08,0.0,0.0,0.0,9e-08,0.0,0.0,0.0,9e-08
1532134799048127088,3652,1532134799047747056,base_link,-0.0202215805269,0.0691315263805,0.0177833166396,-0.997244039035,1.0,0.0,0.0,0.0,1.0,0.0,0.0,0.0,1.0,0.0704058855772,-0.0871825143695,-0.052861571312,1.21846967915e-07,0.0,0.0,0.0,1.21846967915e-07,0.0,0.0,0.0,1.21846967915e-07,2.12804305,0.36284605,12.17005265,9e-08,0.0,0.0,0.0,9e-08,0.0,0.0,0.0,9e-08
1532134799457335344,3653,1532134799456928368,base_link,-0.033341715192,0.0894091051451,0.0249245864039,-0.995124669043,1.0,0.0,0.0,0.0,1.0,0.0,0.0,0.0,1.0,0.0773527696729,-0.0323274172843,-0.0603885576129,1.21846967915e-07,0.0,0.0,0.0,1.21846967915e-07,0.0,0.0,0.0,1.21846967915e-07,1.5494507,0.4903325,10.983448,9e-08,0.0,0.0,0.0,9e-08,0.0,0.0,0.0,9e-08
1532134799917137776,3654,1532134799912803856,base_link,-0.0539605152921,0.0905958713645,0.0419739550176,-0.993538543782,1.0,0.0,0.0,0.0,1.0,0.0,0.0,0.0,1.0,0.0942173153162,0.0121125718579,-0.0728893876076,1.21846967915e-07,0.0,0.0,0.0,1.21846967915e-07,0.0,0.0,0.0,1.21846967915e-07,1.2944778,0.2941995,9.3359308,9e-08,0.0,0.0,0.0,9e-08,0.0,0.0,0.0,9e-08
1532134800239324560,3655,1532134800238981712,base_link,-0.0804958417247,0.0862386019408,0.0520866212965,-0.991650294651,1.0,0.0,0.0,0.0,1.0,0.0,0.0,0.0,1.0,0.0705296322703,0.0238984562457,-0.0721018388867,1.21846967915e-07,0.0,0.0,0.0,1.21846967915e-07,0.0,0.0,0.0,1.21846967915e-07,1.44157755,0.5099458,8.73772515,9e-08,0.0,0.0,0.0,9e-08,0.0,0.0,0.0,9e-08
1532134800631801040,3656,1532134800631524176,base_link,-0.0812541118758,0.0744064249039,0.0676211308393,-0.991609215316,1.0,0.0,0.0,0.0,1.0,0.0,0.0,0.0,1.0,-0.00940143316984,0.0835993438959,-0.132447436452,1.21846967915e-07,0.0,0.0,0.0,1.21846967915e-07,0.0,0.0,0.0,1.21846967915e-07,1.3337044,0.6472389,8.73772515,9e-08,0.0,0.0,0.0,9e-08,0.0,0.0,0.0,9e-08
1532134801086004592,3657,1532134801085742064,base_link,-0.0957656464021,0.0564852461261,0.096575864701,-0.989096284644,1.0,0.0,0.0,0.0,1.0,0.0,0.0,0.0,1.0,0.0312651842833,0.0386382229626,-0.0697381496429,1.21846967915e-07,0.0,0.0,0.0,1.21846967915e-07,0.0,0.0,0.0,1.21846967915e-07,1.38273765,0.1176798,8.0610663,9e-08,0.0,0.0,0.0,9e-08,0.0,0.0,0.0,9e-08
1532134801436378704,3658,1532134801435773648,base_link,-0.0817586249194,0.0506163367279,0.109841765581,-0.989286763402,1.0,0.0,0.0,0.0,1.0,0.0,0.0,0.0,1.0,-0.0254060998559,-0.0185502208769,-0.111826904118,1.21846967915e-07,0.0,0.0,0.0,1.21846967915e-07,0.0,0.0,0.0,1.21846967915e-07,1.69655045,0.44129925,10.79712165,9e-08,0.0,0.0,0.0,9e-08,0.0,0.0,0.0,9e-08
1532134801814116816,3659,1532134801813726608,base_link,-0.0632168343795,0.0481434726491,0.124163165789,-0.989074995212,1.0,0.0,0.0,0.0,1.0,0.0,0.0,0.0,1.0,-0.0716588571668,-0.000589283183217,-0.0670578032732,1.21846967915e-07,0.0,0.0,0.0,1.21846967915e-07,0.0,0.0,0.0,1.21846967915e-07,1.2160246,0.4118793,9.5909037,9e-08,0.0,0.0,0.0,9e-08,0.0,0.0,0.0,9e-08
1532134802165788304,3660,1532134802165486992,base_link,-0.0355787797017,0.0421127936996,0.135382457254,-0.989258436057,1.0,0.0,0.0,0.0,1.0,0.0,0.0,0.0,1.0,-0.184116184711,0.0224832706153,-0.0440804064274,1.21846967915e-07,0.0,0.0,0.0,1.21846967915e-07,0.0,0.0,0.0,1.21846967915e-07,0.87279185,0.4511059,9.58109705,9e-08,0.0,0.0,0.0,9e-08,0.0,0.0,0.0,9e-08
1532134802505822864,3661,1532134802505357808,base_link,-0.0139883326913,0.0358795455666,0.146712484146,-0.988429275039,1.0,0.0,0.0,0.0,1.0,0.0,0.0,0.0,1.0,-0.122774556279,-0.0106899216771,-0.0381142273545,1.21846967915e-07,0.0,0.0,0.0,1.21846967915e-07,0.0,0.0,0.0,1.21846967915e-07,0.7649187,0.18632635,9.3555441,9e-08,0.0,0.0,0.0,9e-08,0.0,0.0,0.0,9e-08
1532134802894987120,3662,1532134802894682256,base_link,0.0119544787034,0.0351318758394,0.150665287935,-0.987888056791,1.0,0.0,0.0,0.0,1.0,0.0,0.0,0.0,1.0,-0.10826536268,-0.0171469449997,0.00824827514589,1.21846967915e-07,0.0,0.0,0.0,1.21846967915e-07,0.0,0.0,0.0,1.21846967915e-07,0.77472535,0.20593965,9.610517,9e-08,0.0,0.0,0.0,9e-08,0.0,0.0,0.0,9e-08
1532134803318978064,3663,1532134803318687664,base_link,0.0313102561173,0.033539608379,0.150304832131,-0.987574412371,1.0,0.0,0.0,0.0,1.0,0.0,0.0,0.0,1.0,-0.042506955564,0.00227456912398,0.0166896190494,1.21846967915e-07,0.0,0.0,0.0,1.21846967915e-07,0.0,0.0,0.0,1.21846967915e-07,0.79433865,0.06864655,9.6497436,9e-08,0.0,0.0,0.0,9e-08,0.0,0.0,0.0,9e-08
1532134803699657648,3664,1532134803699367408,base_link,0.0242830373068,0.0325909293369,0.142491213114,-0.98896128317,1.0,0.0,0.0,0.0,1.0,0.0,0.0,0.0,1.0,0.239345863461,0.0295018162578,0.0333520211279,1.21846967915e-07,0.0,0.0,0.0,1.21846967915e-07,0.0,0.0,0.0,1.21846967915e-07,0.79433865,0.28439285,9.2770909,9e-08,0.0,0.0,0.0,9e-08,0.0,0.0,0.0,9e-08
1532134804147860176,3665,1532134804146673232,base_link,-0.000900946721853,0.0281805528273,0.139569592368,-0.989810776676,1.0,0.0,0.0,0.0,1.0,0.0,0.0,0.0,1.0,-0.0397623553872,0.062940299511,0.0021180131007,1.21846967915e-07,0.0,0.0,0.0,1.21846967915e-07,0.0,0.0,0.0,1.21846967915e-07,0.89240515,0.1569064,7.93357985,9e-08,0.0,0.0,0.0,9e-08,0.0,0.0,0.0,9e-08
1532134804499999536,3666,1532134804499668048,base_link,0.000656438973878,0.0193753228296,0.135535950732,-0.990582743647,1.0,0.0,0.0,0.0,1.0,0.0,0.0,0.0,1.0,-0.152324363589,0.0568703450263,0.0371158272028,1.21846967915e-07,0.0,0.0,0.0,1.21846967915e-07,0.0,0.0,0.0,1.21846967915e-07,1.20621795,0.3530394,8.91424485,9e-08,0.0,0.0,0.0,9e-08,0.0,0.0,0.0,9e-08
1532134804980552688,3667,1532134804980202608,base_link,0.0120223531002,0.00417801215081,0.130338443236,-0.991387864287,1.0,0.0,0.0,0.0,1.0,0.0,0.0,0.0,1.0,-0.150856897235,0.0413508489728,-0.0131304673851,1.21846967915e-07,0.0,0.0,0.0,1.21846967915e-07,0.0,0.0,0.0,1.21846967915e-07,1.32389775,0.4511059,8.5513988,9e-08,0.0,0.0,0.0,9e-08,0.0,0.0,0.0,9e-08
1532134805459606960,3668,1532134805459374384,base_link,0.00882415103151,-0.00415332801383,0.144238908737,-0.989494831432,1.0,0.0,0.0,0.0,1.0,0.0,0.0,0.0,1.0,-0.00998318381608,-0.00351135665551,-0.0537822917104,1.21846967915e-07,0.0,0.0,0.0,1.21846967915e-07,0.0,0.0,0.0,1.21846967915e-07,1.5102241,0.1569064,8.83579165,9e-08,0.0,0.0,0.0,9e-08,0.0,0.0,0.0,9e-08
1532134805955790864,3669,1532134805955431024,base_link,-0.00199411984859,0.00487204665378,0.137965154895,-0.990423092765,1.0,0.0,0.0,0.0,1.0,0.0,0.0,0.0,1.0,0.0188575796783,-0.0628165379167,0.0963967442513,1.21846967915e-07,0.0,0.0,0.0,1.21846967915e-07,0.0,0.0,0.0,1.21846967915e-07,1.5298374,0.14709975,9.38496405,9e-08,0.0,0.0,0.0,9e-08,0.0,0.0,0.0,9e-08
1532134806329623632,3670,1532134806329390640,base_link,0.0115934046352,0.0163699717895,0.116552674043,-0.992981918851,1.0,0.0,0.0,0.0,1.0,0.0,0.0,0.0,1.0,-0.0429021865129,-0.0921335220337,0.0972957983613,1.21846967915e-07,0.0,0.0,0.0,1.21846967915e-07,0.0,0.0,0.0,1.21846967915e-07,1.6082906,0.3138128,11.6110736,9e-08,0.0,0.0,0.0,9e-08,0.0,0.0,0.0,9e-08
1532134806728841904,3671,1532134806728508304,base_link,0.0108242380206,0.0302101998511,0.110288247856,-0.993381438362,1.0,0.0,0.0,0.0,1.0,0.0,0.0,0.0,1.0,0.0377846136689,-0.0514954142272,-0.00508109666407,1.21846967915e-07,0.0,0.0,0.0,1.21846967915e-07,0.0,0.0,0.0,1.21846967915e-07,1.0983448,0.42168595,10.1793027,9e-08,0.0,0.0,0.0,9e-08,0.0,0.0,0.0,9e-08
1532134807178249264,3672,1532134807177304144,base_link,-0.00160100393993,0.0476938366152,0.111212344412,-0.992650265293,1.0,0.0,0.0,0.0,1.0,0.0,0.0,0.0,1.0,0.0899270027876,-0.0709799230099,-0.00401110574603,1.21846967915e-07,0.0,0.0,0.0,1.21846967915e-07,0.0,0.0,0.0,1.21846967915e-07,1.24544455,0.28439285,10.22833595,9e-08,0.0,0.0,0.0,9e-08,0.0,0.0,0.0,9e-08
1532134807591755344,3673,1532134807591462064,base_link,-0.0168713992243,0.0644505669466,0.104664016171,-0.992273613489,1.0,0.0,0.0,0.0,1.0,0.0,0.0,0.0,1.0,-0.00574756693095,-0.0358391776681,0.0457990095019,1.21846967915e-07,0.0,0.0,0.0,1.21846967915e-07,0.0,0.0,0.0,1.21846967915e-07,1.16699135,0.42168595,10.3165958,9e-08,0.0,0.0,0.0,9e-08,0.0,0.0,0.0,9e-08
1532134807912581936,3674,1532134807911996336,base_link,-0.0148939238728,0.0645248085831,0.105435195539,-0.992218796259,1.0,0.0,0.0,0.0,1.0,0.0,0.0,0.0,1.0,0.034517083317,0.0213918108493,-0.0485017485917,1.21846967915e-07,0.0,0.0,0.0,1.21846967915e-07,0.0,0.0,0.0,1.21846967915e-07,1.32389775,0.3138128,9.62032365,9e-08,0.0,0.0,0.0,9e-08,0.0,0.0,0.0,9e-08
1532134808256110992,3675,1532134808255667216,base_link,-0.0196191749425,0.0629773712693,0.109321360949,-0.991815395486,1.0,0.0,0.0,0.0,1.0,0.0,0.0,0.0,1.0,-0.0201623439789,0.0458041541278,-0.0337059274316,1.21846967915e-07,0.0,0.0,0.0,1.21846967915e-07,0.0,0.0,0.0,1.21846967915e-07,1.1375714,0.5099458,8.69849855,9e-08,0.0,0.0,0.0,9e-08,0.0,0.0,0.0,9e-08
1532134808644314928,3676,1532134808639882672,base_link,-0.0247421843367,0.0561799073017,0.112825377121,-0.99171673204,1.0,0.0,0.0,0.0,1.0,0.0,0.0,0.0,1.0,0.0749254971743,0.0359302014112,-0.00194181199186,1.21846967915e-07,0.0,0.0,0.0,1.21846967915e-07,0.0,0.0,0.0,1.21846967915e-07,1.6475172,0.3530394,8.8455983,9e-08,0.0,0.0,0.0,9e-08,0.0,0.0,0.0,9e-08
1532134809062165840,3677,1532134809061883216,base_link,-0.0422856974932,0.0532105480399,0.111358006391,-0.991453454166,1.0,0.0,0.0,0.0,1.0,0.0,0.0,0.0,1.0,0.0471905618906,0.032487872988,-0.0220434647053,1.21846967915e-07,0.0,0.0,0.0,1.21846967915e-07,0.0,0.0,0.0,1.21846967915e-07,1.85345685,0.48052585,9.22805765,9e-08,0.0,0.0,0.0,9e-08,0.0,0.0,0.0,9e-08
1532134809478400496,3678,1532134809478039024,base_link,-0.0498899536694,0.0486206489792,0.118668069598,-0.990487210555,1.0,0.0,0.0,0.0,1.0,0.0,0.0,0.0,1.0,-0.0763449296355,0.0232439059764,-0.0458886511624,1.21846967915e-07,0.0,0.0,0.0,1.21846967915e-07,0.0,0.0,0.0,1.21846967915e-07,1.75539035,0.18632635,10.0223963,9e-08,0.0,0.0,0.0,9e-08,0.0,0.0,0.0,9e-08
1532134809980684272,3679,1532134809979413808,base_link,-0.0364245668681,0.0483761681402,0.125250807161,-0.990275331708,1.0,0.0,0.0,0.0,1.0,0.0,0.0,0.0,1.0,0.0952912941575,-0.0331056416035,-0.0370391272008,1.21846967915e-07,0.0,0.0,0.0,1.21846967915e-07,0.0,0.0,0.0,1.21846967915e-07,1.4709975,0.5491724,9.56148375,9e-08,0.0,0.0,0.0,9e-08,0.0,0.0,0.0,9e-08
1532134810322498480,3680,1532134810321636048,base_link,-0.0454439959436,0.0483219827656,0.137431425138,-0.988287626452,1.0,0.0,0.0,0.0,1.0,0.0,0.0,0.0,1.0,-0.0396219789982,0.0261631254107,-0.113293319941,1.21846967915e-07,0.0,0.0,0.0,1.21846967915e-07,0.0,0.0,0.0,1.21846967915e-07,1.46119085,0.50013915,9.03192465,9e-08,0.0,0.0,0.0,9e-08,0.0,0.0,0.0,9e-08
1532134810841806000,3681,1532134810838958512,base_link,0.0107656161821,0.040030913123,0.157572159575,-0.98663703662,1.0,0.0,0.0,0.0,1.0,0.0,0.0,0.0,1.0,-0.334328562021,0.00450001657009,0.010841445066,1.21846967915e-07,0.0,0.0,0.0,1.21846967915e-07,0.0,0.0,0.0,1.21846967915e-07,1.2160246,-0.1372931,9.09076455,9e-08,0.0,0.0,0.0,9e-08,0.0,0.0,0.0,9e-08
1532134811260240048,3682,1532134811259959056,base_link,0.0256981144076,0.0467170001397,0.13972388378,-0.988753945689,1.0,0.0,0.0,0.0,1.0,0.0,0.0,0.0,1.0,0.0669260546565,-0.0476216450334,0.127525925636,1.21846967915e-07,0.0,0.0,0.0,1.21846967915e-07,0.0,0.0,0.0,1.21846967915e-07,1.6671305,0.0980665,10.6107953,9e-08,0.0,0.0,0.0,9e-08,0.0,0.0,0.0,9e-08
1532134811779009968,3683,1532134811778715440,base_link,0.0378662511164,0.0584777436619,0.110792064613,-0.991398819316,1.0,0.0,0.0,0.0,1.0,0.0,0.0,0.0,1.0,0.0210504308343,-0.0572622567415,0.0491564013064,1.21846967915e-07,0.0,0.0,0.0,1.21846967915e-07,0.0,0.0,0.0,1.21846967915e-07,1.24544455,0.4903325,11.0422879,9e-08,0.0,0.0,0.0,9e-08,0.0,0.0,0.0,9e-08
1532134812157656304,3684,1532134812157344784,base_link,0.02057115427,0.0655654698102,0.106417315237,-0.991944228169,1.0,0.0,0.0,0.0,1.0,0.0,0.0,0.0,1.0,0.17384211719,-0.00702934339643,-0.00690073333681,1.21846967915e-07,0.0,0.0,0.0,1.21846967915e-07,0.0,0.0,0.0,1.21846967915e-07,1.1375714,0.32361945,10.5127288,9e-08,0.0,0.0,0.0,9e-08,0.0,0.0,0.0,9e-08
1532134812507376240,3685,1532134812506958320,base_link,-0.015445490137,0.0700681290002,0.103555660815,-0.992032317642,1.0,0.0,0.0,0.0,1.0,0.0,0.0,0.0,1.0,0.145964920521,0.0225275717676,-0.00315261282958,1.21846967915e-07,0.0,0.0,0.0,1.21846967915e-07,0.0,0.0,0.0,1.21846967915e-07,1.36312435,0.2941995,10.07142955,9e-08,0.0,0.0,0.0,9e-08,0.0,0.0,0.0,9e-08
1532134812875996112,3686,1532134812875682704,base_link,-0.0330826515626,0.0666009502092,0.107016931671,-0.99147225273,1.0,0.0,0.0,0.0,1.0,0.0,0.0,0.0,1.0,0.103252314031,0.0564533025026,-0.031887486577,1.21846967915e-07,0.0,0.0,0.0,1.21846967915e-07,0.0,0.0,0.0,1.21846967915e-07,1.0198916,0.4707192,9.1397978,9e-08,0.0,0.0,0.0,9e-08,0.0,0.0,0.0,9e-08
1532134813323306512,3687,1532134813322963184,base_link,-0.0452321261413,0.0571575832727,0.113223407525,-0.9908922875,1.0,0.0,0.0,0.0,1.0,0.0,0.0,0.0,1.0,-0.024024264887,0.0667740181088,-0.0351860448718,1.21846967915e-07,0.0,0.0,0.0,1.21846967915e-07,0.0,0.0,0.0,1.21846967915e-07,1.1964113,0.34323275,8.95347145,9e-08,0.0,0.0,0.0,9e-08,0.0,0.0,0.0,9e-08
1532134813684085936,3688,1532134813683758320,base_link,-0.0403707170154,0.04531123293,0.120092433552,-0.990906102909,1.0,0.0,0.0,0.0,1.0,0.0,0.0,0.0,1.0,-0.0913319960237,0.0549459531903,-0.0458613447845,1.21846967915e-07,0.0,0.0,0.0,1.21846967915e-07,0.0,0.0,0.0,1.21846967915e-07,1.2160246,0.4903325,8.9436648,9e-08,0.0,0.0,0.0,9e-08,0.0,0.0,0.0,9e-08
1532134814099032400,3689,1532134814098669840,base_link,-0.0276732040447,0.0321287887631,0.130639218632,-0.990522755552,1.0,0.0,0.0,0.0,1.0,0.0,0.0,0.0,1.0,-0.0347384139895,0.0422693789005,-0.0604236908257,1.21846967915e-07,0.0,0.0,0.0,1.21846967915e-07,0.0,0.0,0.0,1.21846967915e-07,1.2748645,0.1765197,9.56148375,9e-08,0.0,0.0,0.0,9e-08,0.0,0.0,0.0,9e-08
1532134814437409136,3690,1532134814437036400,base_link,-0.0211666774411,0.027996180028,0.133019583116,-0.990491785013,1.0,0.0,0.0,0.0,1.0,0.0,0.0,0.0,1.0,-0.0982172861695,0.00351244187914,0.0141458511353,1.21846967915e-07,0.0,0.0,0.0,1.21846967915e-07,0.0,0.0,0.0,1.21846967915e-07,1.176798,0.4314926,8.56120545,9e-08,0.0,0.0,0.0,9e-08,0.0,0.0,0.0,9e-08
1532134814734962576,3691,1532134814732859152,base_link,-0.00897901899571,0.0269556345758,0.132244896505,-0.990809799271,1.0,0.0,0.0,0.0,1.0,0.0,0.0,0.0,1.0,-0.0714586377144,-0.0121854552999,0.00994905270636,1.21846967915e-07,0.0,0.0,0.0,1.21846967915e-07,0.0,0.0,0.0,1.21846967915e-07,0.9414384,0.36284605,9.48303055,9e-08,0.0,0.0,0.0,9e-08,0.0,0.0,0.0,9e-08
1532134815141276080,3692,1532134815140833008,base_link,0.0115154832934,0.0278906131192,0.126261878621,-0.991537919271,1.0,0.0,0.0,0.0,1.0,0.0,0.0,0.0,1.0,-0.0231489986181,0.00175653724,0.0622830279171,1.21846967915e-07,0.0,0.0,0.0,1.21846967915e-07,0.0,0.0,0.0,1.21846967915e-07,1.42196425,0.0784532,9.610517,9e-08,0.0,0.0,0.0,9e-08,0.0,0.0,0.0,9e-08
1532134815477303280,3693,1532134815477101936,base_link,0.00351862070409,0.0299152337511,0.116672318424,-0.992713588207,1.0,0.0,0.0,0.0,1.0,0.0,0.0,0.0,1.0,0.0813309252262,-0.0175140760839,0.0323258079588,1.21846967915e-07,0.0,0.0,0.0,1.21846967915e-07,0.0,0.0,0.0,1.21846967915e-07,0.97085835,0.5687857,10.0616229,9e-08,0.0,0.0,0.0,9e-08,0.0,0.0,0.0,9e-08
1532134815938473552,3694,1532134815938189968,base_link,-0.0183597974573,0.0389867609409,0.110859102947,-0.99290140981,1.0,0.0,0.0,0.0,1.0,0.0,0.0,0.0,1.0,0.0662954747677,-0.0562902279198,0.04078149423,1.21846967915e-07,0.0,0.0,0.0,1.21846967915e-07,0.0,0.0,0.0,1.21846967915e-07,1.06892485,0.2549729,11.07170785,9e-08,0.0,0.0,0.0,9e-08,0.0,0.0,0.0,9e-08
1532134816328989904,3695,1532134816328485392,base_link,-0.0446349076229,0.0511272663043,0.100529170695,-0.992616549077,1.0,0.0,0.0,0.0,1.0,0.0,0.0,0.0,1.0,0.123162247241,-0.0407603271306,0.0346001833677,1.21846967915e-07,0.0,0.0,0.0,1.21846967915e-07,0.0,0.0,0.0,1.21846967915e-07,0.9414384,0.53936575,10.36562905,9e-08,0.0,0.0,0.0,9e-08,0.0,0.0,0.0,9e-08
1532134816836026416,3696,1532134816835749776,base_link,-0.0952081122738,0.0545138645741,0.115874538691,-0.987186276854,1.0,0.0,0.0,0.0,1.0,0.0,0.0,0.0,1.0,0.282022088766,0.025971757248,-0.131333142519,1.21846967915e-07,0.0,0.0,0.0,1.21846967915e-07,0.0,0.0,0.0,1.21846967915e-07,0.8433719,0.51975245,9.36535075,9e-08,0.0,0.0,0.0,9e-08,0.0,0.0,0.0,9e-08
1532134817246241904,3697,1532134817245947728,base_link,-0.159919492136,0.0573061419176,0.142981736047,-0.975037427636,1.0,0.0,0.0,0.0,1.0,0.0,0.0,0.0,1.0,0.209299638867,0.0151997562498,-0.159766972065,1.21846967915e-07,0.0,0.0,0.0,1.21846967915e-07,0.0,0.0,0.0,1.21846967915e-07,0.9218251,0.42168595,8.18855275,9e-08,0.0,0.0,0.0,9e-08,0.0,0.0,0.0,9e-08
1532134817610003056,3698,1532134817609530256,base_link,-0.193323794737,0.0585788144524,0.175688915699,-0.963497710317,1.0,0.0,0.0,0.0,1.0,0.0,0.0,0.0,1.0,0.114870734513,-0.0386286787689,-0.228423371911,1.21846967915e-07,0.0,0.0,0.0,1.21846967915e-07,0.0,0.0,0.0,1.21846967915e-07,0.89240515,0.6668522,9.09076455,9e-08,0.0,0.0,0.0,9e-08,0.0,0.0,0.0,9e-08
1532134818019654288,3699,1532134818017208144,base_link,-0.227852589737,0.0682635116247,0.22482617688,-0.944921414997,1.0,0.0,0.0,0.0,1.0,0.0,0.0,0.0,1.0,0.207649126649,-0.111658282578,-0.260081768036,1.21846967915e-07,0.0,0.0,0.0,1.21846967915e-07,0.0,0.0,0.0,1.21846967915e-07,1.02969825,0.59820565,9.69877685,9e-08,0.0,0.0,0.0,9e-08,0.0,0.0,0.0,9e-08
1532134818345026000,3700,1532134818344148432,base_link,-0.252314895651,0.0897590563314,0.269758085257,-0.924938419938,1.0,0.0,0.0,0.0,1.0,0.0,0.0,0.0,1.0,0.145128339529,-0.181393265724,-0.264961510897,1.21846967915e-07,0.0,0.0,0.0,1.21846967915e-07,0.0,0.0,0.0,1.21846967915e-07,1.2944778,0.50013915,10.54214875,9e-08,0.0,0.0,0.0,9e-08,0.0,0.0,0.0,9e-08
1532134818745366672,3701,1532134818744414704,base_link,-0.253416281195,0.120387555471,0.328118888692,-0.902011651697,1.0,0.0,0.0,0.0,1.0,0.0,0.0,0.0,1.0,-0.0105848098174,-0.233363464475,-0.231613278389,1.21846967915e-07,0.0,0.0,0.0,1.21846967915e-07,0.0,0.0,0.0,1.21846967915e-07,1.3337044,0.6080123,12.38579895,9e-08,0.0,0.0,0.0,9e-08,0.0,0.0,0.0,9e-08
1532134819239024464,3702,1532134819237870320,base_link,-0.2356112698,0.146536451901,0.403260215874,-0.872006649115,1.0,0.0,0.0,0.0,1.0,0.0,0.0,0.0,1.0,-0.0116960443556,-0.203932672739,-0.323398828506,1.21846967915e-07,0.0,0.0,0.0,1.21846967915e-07,0.0,0.0,0.0,1.21846967915e-07,0.9610517,0.71588545,11.8464332,9e-08,0.0,0.0,0.0,9e-08,0.0,0.0,0.0,9e-08
1532134819484278576,3703,1532134819483780272,base_link,-0.221487064165,0.15802511446,0.446406605443,-0.852462718378,1.0,0.0,0.0,0.0,1.0,0.0,0.0,0.0,1.0,-0.111666075885,-0.229275673628,-0.288254141808,1.21846967915e-07,0.0,0.0,0.0,1.21846967915e-07,0.0,0.0,0.0,1.21846967915e-07,0.8629852,0.5491724,11.87585315,9e-08,0.0,0.0,0.0,9e-08,0.0,0.0,0.0,9e-08
1532134819885787088,3704,1532134819885430864,base_link,-0.194308710584,0.172027301427,0.505209368579,-0.823051776291,1.0,0.0,0.0,0.0,1.0,0.0,0.0,0.0,1.0,-0.143178865314,-0.192627876997,-0.292849570513,1.21846967915e-07,0.0,0.0,0.0,1.21846967915e-07,0.0,0.0,0.0,1.21846967915e-07,0.93163175,0.50013915,11.2188076,9e-08,0.0,0.0,0.0,9e-08,0.0,0.0,0.0,9e-08
1532134820348023216,3705,1532134820341714608,base_link,-0.159039012,0.181765267891,0.566535714213,-0.787848503566,1.0,0.0,0.0,0.0,1.0,0.0,0.0,0.0,1.0,-0.0596431940794,-0.197370857,-0.225780278444,1.21846967915e-07,0.0,0.0,0.0,1.21846967915e-07,0.0,0.0,0.0,1.21846967915e-07,0.97085835,0.392266,11.571847,9e-08,0.0,0.0,0.0,9e-08,0.0,0.0,0.0,9e-08
1532134820780315120,3706,1532134820779600048,base_link,-0.105861795096,0.166112296003,0.617996312716,-0.761104817305,1.0,0.0,0.0,0.0,1.0,0.0,0.0,0.0,1.0,-0.356082350016,-0.0861488878727,-0.205708086491,1.21846967915e-07,0.0,0.0,0.0,1.21846967915e-07,0.0,0.0,0.0,1.21846967915e-07,0.85317855,0.6080123,11.1403544,9e-08,0.0,0.0,0.0,9e-08,0.0,0.0,0.0,9e-08
1532134821234263216,3707,1532134821234005680,base_link,-0.0496031740904,0.127856990746,0.666145475322,-0.733104576951,1.0,0.0,0.0,0.0,1.0,0.0,0.0,0.0,1.0,-0.276905447245,-0.0496445186436,-0.183271378279,1.21846967915e-07,0.0,0.0,0.0,1.21846967915e-07,0.0,0.0,0.0,1.21846967915e-07,0.87279185,0.392266,10.56176205,9e-08,0.0,0.0,0.0,9e-08,0.0,0.0,0.0,9e-08
1532134821684103376,3708,1532134821683757168,base_link,-0.0186291629597,0.105130193389,0.691390086855,-0.714549049767,1.0,0.0,0.0,0.0,1.0,0.0,0.0,0.0,1.0,-0.191468790174,-0.00263715628535,-0.110564701259,1.21846967915e-07,0.0,0.0,0.0,1.21846967915e-07,0.0,0.0,0.0,1.21846967915e-07,0.0588399,0.6864655,8.85540495,9e-08,0.0,0.0,0.0,9e-08,0.0,0.0,0.0,9e-08
1532134822061984624,3709,1532134822061569104,base_link,0.0015130209985,-0.0753900169735,-0.709766731343,0.700389351138,1.0,0.0,0.0,0.0,1.0,0.0,0.0,0.0,1.0,-0.171559289098,0.108808971941,-0.140987426043,1.21846967915e-07,0.0,0.0,0.0,1.21846967915e-07,0.0,0.0,0.0,1.21846967915e-07,-0.196133,0.34323275,8.54159215,9e-08,0.0,0.0,0.0,9e-08,0.0,0.0,0.0,9e-08
1532134822464330672,3710,1532134822463979152,base_link,0.00509829922463,-0.0431066770026,-0.727246280179,0.685002678614,1.0,0.0,0.0,0.0,1.0,0.0,0.0,0.0,1.0,-0.0922516733408,0.130032166839,-0.0691156685352,1.21846967915e-07,0.0,0.0,0.0,1.21846967915e-07,0.0,0.0,0.0,1.21846967915e-07,-0.2745862,-0.12748645,8.40429905,9e-08,0.0,0.0,0.0,9e-08,0.0,0.0,0.0,9e-08
1532134822940100208,3711,1532134822937801008,base_link,0.00474460835307,0.000439293666685,-0.728640884322,0.684879374348,1.0,0.0,0.0,0.0,1.0,0.0,0.0,0.0,1.0,-0.138122543693,0.131217390299,0.0201606471092,1.21846967915e-07,0.0,0.0,0.0,1.21846967915e-07,0.0,0.0,0.0,1.21846967915e-07,-0.3334261,9.29549428043e-16,7.5903471,9e-08,0.0,0.0,0.0,9e-08,0.0,0.0,0.0,9e-08
1532134823359974896,3712,1532134823359355056,base_link,0.00821373659797,0.0240917614493,-0.722578768395,0.690819835432,1.0,0.0,0.0,0.0,1.0,0.0,0.0,0.0,1.0,-0.0361515395343,0.0437318049371,0.0487968064845,1.21846967915e-07,0.0,0.0,0.0,1.21846967915e-07,0.0,0.0,0.0,1.21846967915e-07,-0.02941995,0.02941995,8.52197885,9e-08,0.0,0.0,0.0,9e-08,0.0,0.0,0.0,9e-08
1532134823882461200,3713,1532134823882064240,base_link,0.00893032545314,0.0312859703476,-0.715422795285,0.697933851688,1.0,0.0,0.0,0.0,1.0,0.0,0.0,0.0,1.0,-0.0260188505054,0.0175313130021,0.00740222912282,1.21846967915e-07,0.0,0.0,0.0,1.21846967915e-07,0.0,0.0,0.0,1.21846967915e-07,0.06864655,0.1765197,9.42419065,9e-08,0.0,0.0,0.0,9e-08,0.0,0.0,0.0,9e-08
1532134824286960816,3714,1532134824286706928,base_link,-0.00373662096023,0.0348874360622,-0.718822939949,0.6943071982,1.0,0.0,0.0,0.0,1.0,0.0,0.0,0.0,1.0,-0.0965609997511,-0.0782706290483,-0.0473845601082,1.21846967915e-07,0.0,0.0,0.0,1.21846967915e-07,0.0,0.0,0.0,1.21846967915e-07,0.06864655,-0.0392266,10.28717585,9e-08,0.0,0.0,0.0,9e-08,0.0,0.0,0.0,9e-08
1532134824666641104,3715,1532134824666262896,base_link,-0.0238757483278,0.0318829623721,-0.716663696816,0.696280526095,1.0,0.0,0.0,0.0,1.0,0.0,0.0,0.0,1.0,-0.0408709794283,-0.0942361578345,0.0640075281262,1.21846967915e-07,0.0,0.0,0.0,1.21846967915e-07,0.0,0.0,0.0,1.21846967915e-07,0.7649187,-0.18632635,12.4152189,9e-08,0.0,0.0,0.0,9e-08,0.0,0.0,0.0,9e-08
1532134824965955792,3716,1532134824965670608,base_link,-0.01885242507,0.0225949250845,-0.709532405484,0.704058109105,1.0,0.0,0.0,0.0,1.0,0.0,0.0,0.0,1.0,0.109971113503,0.0144707867876,0.0763270780444,1.21846967915e-07,0.0,0.0,0.0,1.21846967915e-07,0.0,0.0,0.0,1.21846967915e-07,0.3334261,1.31506023735e-15,10.73828175,9e-08,0.0,0.0,0.0,9e-08,0.0,0.0,0.0,9e-08
1532134825477118064,3717,1532134825476885360,base_link,0.0155947444475,-0.00513945440388,0.696286953147,-0.717575688573,1.0,0.0,0.0,0.0,1.0,0.0,0.0,0.0,1.0,-0.0136980619282,-0.0333119407296,0.0102291721851,1.21846967915e-07,0.0,0.0,0.0,1.21846967915e-07,0.0,0.0,0.0,1.21846967915e-07,0.30400615,0.28439285,10.89518815,9e-08,0.0,0.0,0.0,9e-08,0.0,0.0,0.0,9e-08
1532134825829169936,3718,1532134825828667376,base_link,0.0113131504484,0.0110922189235,0.698967153772,-0.7149782467,1.0,0.0,0.0,0.0,1.0,0.0,0.0,0.0,1.0,0.133571505547,-0.0452234856784,-0.0367355123162,1.21846967915e-07,0.0,0.0,0.0,1.21846967915e-07,0.0,0.0,0.0,1.21846967915e-07,0.18632635,0.0392266,9.36535075,9e-08,0.0,0.0,0.0,9e-08,0.0,0.0,0.0,9e-08
1532134826206099856,3719,1532134826205854832,base_link,0.00124431594093,0.0317152371266,0.700193801947,-0.713246966434,1.0,0.0,0.0,0.0,1.0,0.0,0.0,0.0,1.0,0.0390031114221,-0.0131662869826,-0.0032963634003,1.21846967915e-07,0.0,0.0,0.0,1.21846967915e-07,0.0,0.0,0.0,1.21846967915e-07,0.3726527,0.0196133,10.34601575,9e-08,0.0,0.0,0.0,9e-08,0.0,0.0,0.0,9e-08
1532134826565426448,3720,1532134826565143280,base_link,0.0172076447784,0.02462802389,0.700503332629,-0.71301643626,1.0,0.0,0.0,0.0,1.0,0.0,0.0,0.0,1.0,-0.074380621314,-0.013600172475,-0.0378515683115,1.21846967915e-07,0.0,0.0,0.0,1.21846967915e-07,0.0,0.0,0.0,1.21846967915e-07,0.4707192,0.08825985,10.3362091,9e-08,0.0,0.0,0.0,9e-08,0.0,0.0,0.0,9e-08
1532134826933659280,3721,1532134826933371504,base_link,0.00813390658762,0.035170145199,0.704813210338,-0.708473880241,1.0,0.0,0.0,0.0,1.0,0.0,0.0,0.0,1.0,0.0471832789481,0.00685162842274,-0.0202184356749,1.21846967915e-07,0.0,0.0,0.0,1.21846967915e-07,0.0,0.0,0.0,1.21846967915e-07,0.4903325,0.0588399,9.8458766,9e-08,0.0,0.0,0.0,9e-08,0.0,0.0,0.0,9e-08
1532134827277172176,3722,1532134827275805520,base_link,0.00394026544187,-0.0446381120246,-0.707352313696,0.705439308213,1.0,0.0,0.0,0.0,1.0,0.0,0.0,0.0,1.0,0.132806003094,0.0272430796176,-0.0519800409675,1.21846967915e-07,0.0,0.0,0.0,1.21846967915e-07,0.0,0.0,0.0,1.21846967915e-07,0.36284605,0.02941995,9.2967042,9e-08,0.0,0.0,0.0,9e-08,0.0,0.0,0.0,9e-08
1532134827700871408,3723,1532134827696926896,base_link,0.0176322357277,-0.0527937215765,-0.71640335034,0.695462556035,1.0,0.0,0.0,0.0,1.0,0.0,0.0,0.0,1.0,-0.00839993730187,0.0174508616328,-0.0890541821718,1.21846967915e-07,0.0,0.0,0.0,1.21846967915e-07,0.0,0.0,0.0,1.21846967915e-07,0.48052585,0.196133,9.26728425,9e-08,0.0,0.0,0.0,9e-08,0.0,0.0,0.0,9e-08
1532134828008669296,3724,1532134828008390992,base_link,0.0161822795351,-0.0465526119085,-0.728332506938,0.683449155015,1.0,0.0,0.0,0.0,1.0,0.0,0.0,0.0,1.0,-0.0850739628077,0.0168729219586,-0.122469164431,1.21846967915e-07,0.0,0.0,0.0,1.21846967915e-07,0.0,0.0,0.0,1.21846967915e-07,0.4511059,1.11810144381e-15,9.12999115,9e-08,0.0,0.0,0.0,9e-08,0.0,0.0,0.0,9e-08
1532134828392145488,3725,1532134828391670992,base_link,0.0140885347363,-0.0418088536551,-0.74328331595,0.667520370607,1.0,0.0,0.0,0.0,1.0,0.0,0.0,0.0,1.0,0.0539120025933,0.0110008800402,-0.101711243391,1.21846967915e-07,0.0,0.0,0.0,1.21846967915e-07,0.0,0.0,0.0,1.21846967915e-07,0.63743225,-0.08825985,9.56148375,9e-08,0.0,0.0,0.0,9e-08,0.0,0.0,0.0,9e-08
1532134828721563056,3726,1532134828721272464,base_link,0.0180884564691,-0.0440367063857,-0.750899027683,0.658698889067,1.0,0.0,0.0,0.0,1.0,0.0,0.0,0.0,1.0,-0.0208098255098,-0.0116651570424,-0.0605232194066,1.21846967915e-07,0.0,0.0,0.0,1.21846967915e-07,0.0,0.0,0.0,1.21846967915e-07,0.5295591,-0.10787315,8.99269805,9e-08,0.0,0.0,0.0,9e-08,0.0,0.0,0.0,9e-08
1532134829053929520,3727,1532134829053535728,base_link,0.0185578549154,-0.0488951388424,-0.755419498362,0.653151018459,1.0,0.0,0.0,0.0,1.0,0.0,0.0,0.0,1.0,-0.07232183218,-0.0197629854083,-0.0310573857278,1.21846967915e-07,0.0,0.0,0.0,1.21846967915e-07,0.0,0.0,0.0,1.21846967915e-07,0.55897905,1.07366561844e-15,8.7671451,9e-08,0.0,0.0,0.0,9e-08,0.0,0.0,0.0,9e-08
1532134829382836240,3728,1532134829379710896,base_link,-0.0101267541844,-0.025450493414,-0.761408422635,0.647693550358,1.0,0.0,0.0,0.0,1.0,0.0,0.0,0.0,1.0,-0.256555616856,-0.0389339588583,-0.0713173896074,1.21846967915e-07,0.0,0.0,0.0,1.21846967915e-07,0.0,0.0,0.0,1.21846967915e-07,0.69627215,-0.02941995,9.3751574,9e-08,0.0,0.0,0.0,9e-08,0.0,0.0,0.0,9e-08
1532134829800941840,3729,1532134829800648432,base_link,-0.0462115737094,0.0207441559459,-0.765917807728,0.640939998951,1.0,0.0,0.0,0.0,1.0,0.0,0.0,0.0,1.0,-0.265463709831,0.0559689104557,-0.025303484872,1.21846967915e-07,0.0,0.0,0.0,1.21846967915e-07,0.0,0.0,0.0,1.21846967915e-07,0.6864655,-0.40207265,9.0025047,9e-08,0.0,0.0,0.0,9e-08,0.0,0.0,0.0,9e-08
1532134830102177136,3730,1532134830101934960,base_link,-0.0532211566526,0.0420806982613,-0.761290761707,0.644851222731,1.0,0.0,0.0,0.0,1.0,0.0,0.0,0.0,1.0,-0.0909446850419,0.0518473833799,0.0768780112267,1.21846967915e-07,0.0,0.0,0.0,1.21846967915e-07,0.0,0.0,0.0,1.21846967915e-07,0.59820565,-0.4903325,8.9632781,9e-08,0.0,0.0,0.0,9e-08,0.0,0.0,0.0,9e-08
1532134830511973552,3731,1532134830511548400,base_link,-0.0458863720437,0.0490614789498,-0.74221621945,0.666785194593,1.0,0.0,0.0,0.0,1.0,0.0,0.0,0.0,1.0,0.068083114922,-0.0167771428823,0.186328142881,1.21846967915e-07,0.0,0.0,0.0,1.21846967915e-07,0.0,0.0,0.0,1.21846967915e-07,0.7453054,0.0784532,9.46341725,9e-08,0.0,0.0,0.0,9e-08,0.0,0.0,0.0,9e-08
1532134830843345264,3732,1532134830842976240,base_link,-0.0544868897185,0.0455923305032,-0.71523772203,0.695260756287,1.0,0.0,0.0,0.0,1.0,0.0,0.0,0.0,1.0,-0.0581558048725,-0.0617192275822,0.223245412111,1.21846967915e-07,0.0,0.0,0.0,1.21846967915e-07,0.0,0.0,0.0,1.21846967915e-07,0.8237586,0.06864655,9.80665,9e-08,0.0,0.0,0.0,9e-08,0.0,0.0,0.0,9e-08
1532134831204095248,3733,1532134831202304464,base_link,0.0617750925454,-0.0377716683543,0.689221018424,-0.72092407837,1.0,0.0,0.0,0.0,1.0,0.0,0.0,0.0,1.0,0.0552486293018,-0.051844727248,0.192022025585,1.21846967915e-07,0.0,0.0,0.0,1.21846967915e-07,0.0,0.0,0.0,1.21846967915e-07,0.7453054,0.08825985,9.81645665,9e-08,0.0,0.0,0.0,9e-08,0.0,0.0,0.0,9e-08
1532134831582197904,3734,1532134831581937776,base_link,0.0561884230981,-0.0319843338276,0.664819625796,-0.744200731427,1.0,0.0,0.0,0.0,1.0,0.0,0.0,0.0,1.0,0.0733398199081,0.00226827664301,0.179823234677,1.21846967915e-07,0.0,0.0,0.0,1.21846967915e-07,0.0,0.0,0.0,1.21846967915e-07,0.65704555,-0.08825985,8.95347145,9e-08,0.0,0.0,0.0,9e-08,0.0,0.0,0.0,9e-08
1532134831919118256,3735,1532134831918755632,base_link,0.0638190521702,-0.022891329694,0.642040475731,-0.763666905874,1.0,0.0,0.0,0.0,1.0,0.0,0.0,0.0,1.0,-0.0286121126264,-0.0736827254295,0.152674093843,1.21846967915e-07,0.0,0.0,0.0,1.21846967915e-07,0.0,0.0,0.0,1.21846967915e-07,1.0198916,0.14709975,10.8265416,9e-08,0.0,0.0,0.0,9e-08,0.0,0.0,0.0,9e-08
1532134832313545968,3736,1532134832313204240,base_link,0.0326875955804,-0.030275643727,0.621713487218,-0.781976499841,1.0,0.0,0.0,0.0,1.0,0.0,0.0,0.0,1.0,0.228353440762,0.215326800942,0.146697834134,1.21846967915e-07,0.0,0.0,0.0,1.21846967915e-07,0.0,0.0,0.0,1.21846967915e-07,0.784532,0.24516625,9.1986377,9e-08,0.0,0.0,0.0,9e-08,0.0,0.0,0.0,9e-08
1532134832672823824,3737,1532134832672488784,base_link,0.0080555598586,-0.0192597912154,0.604259524439,-0.796514027197,1.0,0.0,0.0,0.0,1.0,0.0,0.0,0.0,1.0,-0.0583542324603,-0.180017977953,0.0594728365541,1.21846967915e-07,0.0,0.0,0.0,1.21846967915e-07,0.0,0.0,0.0,1.21846967915e-07,0.77472535,0.6080123,9.85568325,9e-08,0.0,0.0,0.0,9e-08,0.0,0.0,0.0,9e-08
1532134833082374704,3738,1532134833082039216,base_link,0.0427582999695,0.00558809398065,0.609755711577,-0.791415487079,1.0,0.0,0.0,0.0,1.0,0.0,0.0,0.0,1.0,0.105759069324,-0.0523873120546,-0.0657914876938,1.21846967915e-07,0.0,0.0,0.0,1.21846967915e-07,0.0,0.0,0.0,1.21846967915e-07,1.01008495,0.2353596,10.4735022,9e-08,0.0,0.0,0.0,9e-08,0.0,0.0,0.0,9e-08
1532134833601999024,3739,1532134833601662288,base_link,-0.00981846144789,0.0217376286275,0.612418124011,-0.790174104042,1.0,0.0,0.0,0.0,1.0,0.0,0.0,0.0,1.0,0.161111727357,0.0130065400153,-0.033788766712,1.21846967915e-07,0.0,0.0,0.0,1.21846967915e-07,0.0,0.0,0.0,1.21846967915e-07,0.85317855,0.18632635,9.44380395,9e-08,0.0,0.0,0.0,9e-08,0.0,0.0,0.0,9e-08
1532134834048499632,3740,1532134834048075280,base_link,-0.0400912731443,0.053479154219,0.620512273123,-0.781343195264,1.0,0.0,0.0,0.0,1.0,0.0,0.0,0.0,1.0,0.40030759573,-0.0445713438094,-0.0569027289748,1.21846967915e-07,0.0,0.0,0.0,1.21846967915e-07,0.0,0.0,0.0,1.21846967915e-07,0.392266,0.588399,7.99241975,9e-08,0.0,0.0,0.0,9e-08,0.0,0.0,0.0,9e-08
1532134834463294992,3741,1532134834461929648,base_link,-0.0521809906882,0.149667119606,0.637449172519,-0.75401289775,1.0,0.0,0.0,0.0,1.0,0.0,0.0,0.0,1.0,0.16186979413,-0.442197442055,-0.21787405014,1.21846967915e-07,0.0,0.0,0.0,1.21846967915e-07,0.0,0.0,0.0,1.21846967915e-07,1.30428445,0.5491724,11.5130071,9e-08,0.0,0.0,0.0,9e-08,0.0,0.0,0.0,9e-08
1532134834934667088,3742,1532134834934315120,base_link,-0.0568533123742,0.163048431161,0.676475039003,-0.715936052713,1.0,0.0,0.0,0.0,1.0,0.0,0.0,0.0,1.0,-0.011121885851,0.23099347949,-0.18858024478,1.21846967915e-07,0.0,0.0,0.0,1.21846967915e-07,0.0,0.0,0.0,1.21846967915e-07,0.8825985,0.4707192,9.2378643,9e-08,0.0,0.0,0.0,9e-08,0.0,0.0,0.0,9e-08
1532134835339316880,3743,1532134835338818864,base_link,0.0678926927756,-0.125021318607,-0.702472089138,0.697347270837,1.0,0.0,0.0,0.0,1.0,0.0,0.0,0.0,1.0,-0.469550609589,0.17066860199,-0.187095716596,1.21846967915e-07,0.0,0.0,0.0,1.21846967915e-07,0.0,0.0,0.0,1.21846967915e-07,0.79433865,0.57859235,8.4925589,9e-08,0.0,0.0,0.0,9e-08,0.0,0.0,0.0,9e-08
1532134835837328368,3744,1532134835835738608,base_link,-0.00650520194976,-0.0394718499829,-0.732460280962,0.679633424884,1.0,0.0,0.0,0.0,1.0,0.0,0.0,0.0,1.0,0.0310021582991,-0.412189215422,0.000710046384484,1.21846967915e-07,0.0,0.0,0.0,1.21846967915e-07,0.0,0.0,0.0,1.21846967915e-07,6.10954295,-0.0588399,13.40569055,9e-08,0.0,0.0,0.0,9e-08,0.0,0.0,0.0,9e-08
