%time,field.header.seq,field.header.stamp,field.header.frame_id,field.orientation.x,field.orientation.y,field.orientation.z,field.orientation.w,field.orientation_covariance0,field.orientation_covariance1,field.orientation_covariance2,field.orientation_covariance3,field.orientation_covariance4,field.orientation_covariance5,field.orientation_covariance6,field.orientation_covariance7,field.orientation_covariance8,field.angular_velocity.x,field.angular_velocity.y,field.angular_velocity.z,field.angular_velocity_covariance0,field.angular_velocity_covariance1,field.angular_velocity_covariance2,field.angular_velocity_covariance3,field.angular_velocity_covariance4,field.angular_velocity_covariance5,field.angular_velocity_covariance6,field.angular_velocity_covariance7,field.angular_velocity_covariance8,field.linear_acceleration.x,field.linear_acceleration.y,field.linear_acceleration.z,field.linear_acceleration_covariance0,field.linear_acceleration_covariance1,field.linear_acceleration_covariance2,field.linear_acceleration_covariance3,field.linear_acceleration_covariance4,field.linear_acceleration_covariance5,field.linear_acceleration_covariance6,field.linear_acceleration_covariance7,field.linear_acceleration_covariance8
1531930511313197992,4084,1531930511312945192,base_link,-0.0747996926537,-0.0232080244869,-0.996428019288,-0.0315847424619,1.0,0.0,0.0,0.0,1.0,0.0,0.0,0.0,1.0,-0.0479733981192,0.0289776027203,0.0133441770449,1.21846967915e-07,0.0,0.0,0.0,1.21846967915e-07,0.0,0.0,0.0,1.21846967915e-07,0.32361945,-0.06864655,9.56148375,9e-08,0.0,0.0,0.0,9e-08,0.0,0.0,0.0,9e-08
1531930511644188616,4085,1531930511643949832,base_link,-0.0873560659148,-0.0365816794886,-0.995051252361,-0.030061664112,1.0,0.0,0.0,0.0,1.0,0.0,0.0,0.0,1.0,0.443806290627,-0.0658158883452,-0.0271305367351,1.21846967915e-07,0.0,0.0,0.0,1.21846967915e-07,0.0,0.0,0.0,1.21846967915e-07,0.12748645,0.32361945,9.97336305,9e-08,0.0,0.0,0.0,9e-08,0.0,0.0,0.0,9e-08
1531930512058518920,4086,1531930512057775656,base_link,-0.075755700012,-0.157522314233,-0.983878655453,-0.0378230852487,1.0,0.0,0.0,0.0,1.0,0.0,0.0,0.0,1.0,0.630246520042,0.0198097769171,-0.156521528959,1.21846967915e-07,0.0,0.0,0.0,1.21846967915e-07,0.0,0.0,0.0,1.21846967915e-07,-0.34323275,0.1765197,5.79573015,9e-08,0.0,0.0,0.0,9e-08,0.0,0.0,0.0,9e-08
1531930512420255144,4087,1531930512414845192,base_link,-0.0495188702629,-0.257589593664,-0.963057232439,-0.0609610512622,1.0,0.0,0.0,0.0,1.0,0.0,0.0,0.0,1.0,0.446696698666,0.120574966073,-0.241822481155,1.21846967915e-07,0.0,0.0,0.0,1.21846967915e-07,0.0,0.0,0.0,1.21846967915e-07,-0.91201845,0.50013915,6.1585762,9e-08,0.0,0.0,0.0,9e-08,0.0,0.0,0.0,9e-08
1531930512814614920,4088,1531930512814221448,base_link,-0.010370465402,-0.308720010638,-0.94579044243,-0.100323713479,1.0,0.0,0.0,0.0,1.0,0.0,0.0,0.0,1.0,-0.0887274295092,0.190919563174,-0.248395815492,1.21846967915e-07,0.0,0.0,0.0,1.21846967915e-07,0.0,0.0,0.0,1.21846967915e-07,-1.24544455,-0.2745862,3.1577413,9e-08,0.0,0.0,0.0,9e-08,0.0,0.0,0.0,9e-08
1531930513222262568,4089,1531930513221533224,base_link,0.00872351323284,-0.326831729707,-0.935224297532,-0.135869180021,1.0,0.0,0.0,0.0,1.0,0.0,0.0,0.0,1.0,-0.000493957661092,0.00995251256973,-0.198972657323,1.21846967915e-07,0.0,0.0,0.0,1.21846967915e-07,0.0,0.0,0.0,1.21846967915e-07,-1.28467115,0.784532,5.18771785,9e-08,0.0,0.0,0.0,9e-08,0.0,0.0,0.0,9e-08
1531930513549364296,4090,1531930513548850056,base_link,0.032789858294,-0.329353113679,-0.92725795963,-0.17505435729,1.0,0.0,0.0,0.0,1.0,0.0,0.0,0.0,1.0,-0.149172827601,0.107060208917,-0.323924958706,1.21846967915e-07,0.0,0.0,0.0,1.21846967915e-07,0.0,0.0,0.0,1.21846967915e-07,-1.38273765,0.5295591,7.07059465,9e-08,0.0,0.0,0.0,9e-08,0.0,0.0,0.0,9e-08
1531930513966082728,4091,1531930513965552808,base_link,0.078845092792,-0.299600909642,-0.917671665918,-0.248800039901,1.0,0.0,0.0,0.0,1.0,0.0,0.0,0.0,1.0,-0.05569332093,-0.00496588647366,-0.497261226177,1.21846967915e-07,0.0,0.0,0.0,1.21846967915e-07,0.0,0.0,0.0,1.21846967915e-07,-1.38273765,0.7649187,5.099458,9e-08,0.0,0.0,0.0,9e-08,0.0,0.0,0.0,9e-08
1531930514353298632,4092,1531930514353011944,base_link,0.0928043124451,-0.283249108513,-0.901628843818,-0.313405057576,1.0,0.0,0.0,0.0,1.0,0.0,0.0,0.0,1.0,0.00839432142675,-0.0875575467944,-0.188467770815,1.21846967915e-07,0.0,0.0,0.0,1.21846967915e-07,0.0,0.0,0.0,1.21846967915e-07,-1.4709975,-0.2745862,9.9635564,9e-08,0.0,0.0,0.0,9e-08,0.0,0.0,0.0,9e-08
1531930514568254120,4093,1531930514567987880,base_link,0.0891817654739,-0.288296845149,-0.894273414188,-0.330464222665,1.0,0.0,0.0,0.0,1.0,0.0,0.0,0.0,1.0,0.0835575386882,-0.0799403563142,-0.139427810907,1.21846967915e-07,0.0,0.0,0.0,1.21846967915e-07,0.0,0.0,0.0,1.21846967915e-07,-1.53964405,-0.00980665,9.12999115,9e-08,0.0,0.0,0.0,9e-08,0.0,0.0,0.0,9e-08
1531930515043612872,4094,1531930515043333576,base_link,0.103104914637,-0.25438045767,-0.886090809812,-0.373501052342,1.0,0.0,0.0,0.0,1.0,0.0,0.0,0.0,1.0,-0.265597522259,-0.121065869927,-0.269413709641,1.21846967915e-07,0.0,0.0,0.0,1.21846967915e-07,0.0,0.0,0.0,1.21846967915e-07,-1.7848103,0.42168595,9.0025047,9e-08,0.0,0.0,0.0,9e-08,0.0,0.0,0.0,9e-08
1531930515430264680,4095,1531930515429926408,base_link,0.118457348695,-0.198051943627,-0.878418433728,-0.418478600949,1.0,0.0,0.0,0.0,1.0,0.0,0.0,0.0,1.0,-0.198544517159,0.00366319902241,-0.238887533545,1.21846967915e-07,0.0,0.0,0.0,1.21846967915e-07,0.0,0.0,0.0,1.21846967915e-07,-1.569064,-0.38245935,12.0229529,9e-08,0.0,0.0,0.0,9e-08,0.0,0.0,0.0,9e-08
1531930515848936424,4096,1531930515848637896,base_link,0.123622280168,-0.167601470548,-0.877990102261,-0.430999604696,1.0,0.0,0.0,0.0,1.0,0.0,0.0,0.0,1.0,-0.260483205318,-0.1803201437,0.0479447543621,1.21846967915e-07,0.0,0.0,0.0,1.21846967915e-07,0.0,0.0,0.0,1.21846967915e-07,-1.7259704,0.16671305,11.38552065,9e-08,0.0,0.0,0.0,9e-08,0.0,0.0,0.0,9e-08
1531930516184913800,4097,1531930516183013992,base_link,0.131516897212,-0.125303278542,-0.885915670876,-0.426797162866,1.0,0.0,0.0,0.0,1.0,0.0,0.0,0.0,1.0,-0.190338298678,-0.0499005317688,-0.0561743713915,1.21846967915e-07,0.0,0.0,0.0,1.21846967915e-07,0.0,0.0,0.0,1.21846967915e-07,-1.96133,0.7060788,9.89490985,9e-08,0.0,0.0,0.0,9e-08,0.0,0.0,0.0,9e-08
1531930516554169608,4098,1531930516553875912,base_link,0.142758000577,-0.0930556949335,-0.885360874467,-0.43254700655,1.0,0.0,0.0,0.0,1.0,0.0,0.0,0.0,1.0,-0.423378139734,0.0012254435569,-0.0916032493114,1.21846967915e-07,0.0,0.0,0.0,1.21846967915e-07,0.0,0.0,0.0,1.21846967915e-07,-1.8632635,0.83356525,10.591182,9e-08,0.0,0.0,0.0,9e-08,0.0,0.0,0.0,9e-08
1531930516897369544,4099,1531930516894546344,base_link,0.159572356527,-0.073624176363,-0.876278689781,-0.448610969017,1.0,0.0,0.0,0.0,1.0,0.0,0.0,0.0,1.0,0.0458085238934,-0.0486971251667,-0.0971358716488,1.21846967915e-07,0.0,0.0,0.0,1.21846967915e-07,0.0,0.0,0.0,1.21846967915e-07,-2.02997655,-0.9610517,8.9044382,9e-08,0.0,0.0,0.0,9e-08,0.0,0.0,0.0,9e-08
1531930517338103656,4100,1531930517335873992,base_link,0.155493750448,-0.0573943485705,-0.887754844482,-0.429440238477,1.0,0.0,0.0,0.0,1.0,0.0,0.0,0.0,1.0,0.0062222443521,0.00695806276053,0.128010958433,1.21846967915e-07,0.0,0.0,0.0,1.21846967915e-07,0.0,0.0,0.0,1.21846967915e-07,-1.96133,0.50013915,10.65982855,9e-08,0.0,0.0,0.0,9e-08,0.0,0.0,0.0,9e-08
1531930517785029576,4101,1531930517784663976,base_link,0.179276881036,-0.00890149953697,-0.890045240295,-0.41904657672,1.0,0.0,0.0,0.0,1.0,0.0,0.0,0.0,1.0,-0.537854194641,-0.0107858013362,-0.0649505108595,1.21846967915e-07,0.0,0.0,0.0,1.21846967915e-07,0.0,0.0,0.0,1.21846967915e-07,-1.91229675,1.0002783,9.24767095,9e-08,0.0,0.0,0.0,9e-08,0.0,0.0,0.0,9e-08
1531930518126607816,4102,1531930518126353352,base_link,0.172982478546,0.00894271484856,-0.887577226085,-0.426853321063,1.0,0.0,0.0,0.0,1.0,0.0,0.0,0.0,1.0,0.084912635386,-0.0620909184217,0.0307709425688,1.21846967915e-07,0.0,0.0,0.0,1.21846967915e-07,0.0,0.0,0.0,1.21846967915e-07,-1.8044236,-0.10787315,10.87557485,9e-08,0.0,0.0,0.0,9e-08,0.0,0.0,0.0,9e-08
1531930518401707880,4103,1531930518401170312,base_link,0.160023711698,-0.0310160544948,-0.892692647804,-0.420155034023,1.0,0.0,0.0,0.0,1.0,0.0,0.0,0.0,1.0,0.327718049288,0.156661659479,0.197361811996,1.21846967915e-07,0.0,0.0,0.0,1.21846967915e-07,0.0,0.0,0.0,1.21846967915e-07,-1.8240369,-0.5491724,7.44324735,9e-08,0.0,0.0,0.0,9e-08,0.0,0.0,0.0,9e-08
1531930518747443208,4104,1531930518747082760,base_link,0.155173749776,-0.0717750879049,-0.906631592946,-0.385731252051,1.0,0.0,0.0,0.0,1.0,0.0,0.0,0.0,1.0,0.0290741659701,0.0563018992543,0.177518770099,1.21846967915e-07,0.0,0.0,0.0,1.21846967915e-07,0.0,0.0,0.0,1.21846967915e-07,-2.0201699,-0.3530394,9.11037785,9e-08,0.0,0.0,0.0,9e-08,0.0,0.0,0.0,9e-08
1531930519103794056,4105,1531930519103469928,base_link,0.135652503415,-0.0795122750137,-0.912621015032,-0.377358025435,1.0,0.0,0.0,0.0,1.0,0.0,0.0,0.0,1.0,0.177754312754,-0.123558521271,0.0373717136681,1.21846967915e-07,0.0,0.0,0.0,1.21846967915e-07,0.0,0.0,0.0,1.21846967915e-07,-2.04958985,-0.6276256,10.3165958,9e-08,0.0,0.0,0.0,9e-08,0.0,0.0,0.0,9e-08
1531930519566574824,4106,1531930519566070088,base_link,0.0842482624431,-0.116772639571,-0.917951230504,-0.369637551311,1.0,0.0,0.0,0.0,1.0,0.0,0.0,0.0,1.0,0.173592075706,-0.0832224190235,-0.0400564484298,1.21846967915e-07,0.0,0.0,0.0,1.21846967915e-07,0.0,0.0,0.0,1.21846967915e-07,-1.0983448,0.2745862,12.73883835,9e-08,0.0,0.0,0.0,9e-08,0.0,0.0,0.0,9e-08
1531930519822160392,4107,1531930519821904392,base_link,0.0519797828724,-0.141144442241,-0.908036715195,-0.3909548215,1.0,0.0,0.0,0.0,1.0,0.0,0.0,0.0,1.0,0.341868489981,-0.16494370997,-0.199887871742,1.21846967915e-07,0.0,0.0,0.0,1.21846967915e-07,0.0,0.0,0.0,1.21846967915e-07,-0.91201845,0.71588545,13.91563635,9e-08,0.0,0.0,0.0,9e-08,0.0,0.0,0.0,9e-08
1531930520155676168,4108,1531930520155133768,base_link,-0.00339571958325,-0.129285882999,-0.893237019543,-0.430582461862,1.0,0.0,0.0,0.0,1.0,0.0,0.0,0.0,1.0,0.294688075781,-0.391976118088,-0.171379476786,1.21846967915e-07,0.0,0.0,0.0,1.21846967915e-07,0.0,0.0,0.0,1.21846967915e-07,0.14709975,-0.1372931,19.13277415,9e-08,0.0,0.0,0.0,9e-08,0.0,0.0,0.0,9e-08
1531930520620155400,4109,1531930520619855624,base_link,-0.109096880104,-0.173961606393,-0.867607964381,-0.452870456527,1.0,0.0,0.0,0.0,1.0,0.0,0.0,0.0,1.0,0.374932080507,-0.167053222656,-0.0679777935147,1.21846967915e-07,0.0,0.0,0.0,1.21846967915e-07,0.0,0.0,0.0,1.21846967915e-07,0.5099458,0.2353596,14.11176935,9e-08,0.0,0.0,0.0,9e-08,0.0,0.0,0.0,9e-08
1531930521003831208,4110,1531930521003535496,base_link,-0.194005456591,-0.26250047364,-0.827848155848,-0.456204795033,1.0,0.0,0.0,0.0,1.0,0.0,0.0,0.0,1.0,0.282483667135,-0.147989615798,-0.157127574086,1.21846967915e-07,0.0,0.0,0.0,1.21846967915e-07,0.0,0.0,0.0,1.21846967915e-07,1.08853815,1.06892485,9.11037785,9e-08,0.0,0.0,0.0,9e-08,0.0,0.0,0.0,9e-08
1531930521491599656,4111,1531930521491221736,base_link,-0.214010027444,-0.276273486259,-0.770473593593,-0.533144549368,1.0,0.0,0.0,0.0,1.0,0.0,0.0,0.0,1.0,0.193997099996,-0.305501252413,-0.356194257736,1.21846967915e-07,0.0,0.0,0.0,1.21846967915e-07,0.0,0.0,0.0,1.21846967915e-07,1.1375714,0.14709975,11.67972015,9e-08,0.0,0.0,0.0,9e-08,0.0,0.0,0.0,9e-08
1531930521865109576,4112,1531930521864854568,base_link,-0.238425539022,-0.275571075069,-0.73631127763,-0.570139936648,1.0,0.0,0.0,0.0,1.0,0.0,0.0,0.0,1.0,-0.0785998553038,-0.193818345666,-0.190114632249,1.21846967915e-07,0.0,0.0,0.0,1.21846967915e-07,0.0,0.0,0.0,1.21846967915e-07,1.5886773,0.4903325,11.93469305,9e-08,0.0,0.0,0.0,9e-08,0.0,0.0,0.0,9e-08
1531930522249463304,4113,1531930522249163016,base_link,-0.250552198815,-0.257938377342,-0.697265771247,-0.620090181676,1.0,0.0,0.0,0.0,1.0,0.0,0.0,0.0,1.0,-0.0640550106764,-0.122682899237,-0.289609879255,1.21846967915e-07,0.0,0.0,0.0,1.21846967915e-07,0.0,0.0,0.0,1.21846967915e-07,1.53964405,0.3334261,13.3566573,9e-08,0.0,0.0,0.0,9e-08,0.0,0.0,0.0,9e-08
1531930522787691176,4114,1531930522787392808,base_link,-0.305788174891,-0.24924026055,-0.620909962171,-0.677380028857,1.0,0.0,0.0,0.0,1.0,0.0,0.0,0.0,1.0,0.165969133377,-0.137993752956,-0.282749176025,1.21846967915e-07,0.0,0.0,0.0,1.21846967915e-07,0.0,0.0,0.0,1.21846967915e-07,1.3533177,0.59820565,12.75845165,9e-08,0.0,0.0,0.0,9e-08,0.0,0.0,0.0,9e-08
1531930523263425128,4115,1531930523262264808,base_link,-0.329580624625,-0.235220846913,-0.549421644194,-0.730878664308,1.0,0.0,0.0,0.0,1.0,0.0,0.0,0.0,1.0,-0.126227930188,-0.197247669101,-0.27820405364,1.21846967915e-07,0.0,0.0,0.0,1.21846967915e-07,0.0,0.0,0.0,1.21846967915e-07,1.53964405,0.392266,12.56231865,9e-08,0.0,0.0,0.0,9e-08,0.0,0.0,0.0,9e-08
1531930523709658920,4116,1531930523709414824,base_link,-0.324631117578,-0.191148051935,-0.474058145366,-0.79583034282,1.0,0.0,0.0,0.0,1.0,0.0,0.0,0.0,1.0,-0.0928632766008,-0.2798833251,-0.399253845215,1.21846967915e-07,0.0,0.0,0.0,1.21846967915e-07,0.0,0.0,0.0,1.21846967915e-07,0.980665,0.392266,17.38719045,9e-08,0.0,0.0,0.0,9e-08,0.0,0.0,0.0,9e-08
1531930524051367560,4117,1531930524051101352,base_link,-0.342780919908,-0.165849198159,-0.41101965655,-0.828286258698,1.0,0.0,0.0,0.0,1.0,0.0,0.0,0.0,1.0,0.176609203219,-0.354694336653,-0.300211519003,1.21846967915e-07,0.0,0.0,0.0,1.21846967915e-07,0.0,0.0,0.0,1.21846967915e-07,0.4511059,0.2745862,15.11204765,9e-08,0.0,0.0,0.0,9e-08,0.0,0.0,0.0,9e-08
1531930524408266824,4118,1531930524408041128,base_link,-0.40071303222,-0.152260427623,-0.339064681644,-0.837425202422,1.0,0.0,0.0,0.0,1.0,0.0,0.0,0.0,1.0,-0.105661302805,-0.504971027374,-0.233513116837,1.21846967915e-07,0.0,0.0,0.0,1.21846967915e-07,0.0,0.0,0.0,1.21846967915e-07,0.8825985,0.16671305,12.69961175,9e-08,0.0,0.0,0.0,9e-08,0.0,0.0,0.0,9e-08
1531930524786035688,4119,1531930524782292008,base_link,-0.398234354735,-0.0971066120426,-0.275188459371,-0.869626940956,1.0,0.0,0.0,0.0,1.0,0.0,0.0,0.0,1.0,-0.364893853664,-0.32091075182,-0.224326223135,1.21846967915e-07,0.0,0.0,0.0,1.21846967915e-07,0.0,0.0,0.0,1.21846967915e-07,0.588399,0.51975245,24.0851324,9e-08,0.0,0.0,0.0,9e-08,0.0,0.0,0.0,9e-08
1531930525151689192,4120,1531930525151337928,base_link,-0.400909641975,-0.0560576993055,-0.221864289698,-0.887076789391,1.0,0.0,0.0,0.0,1.0,0.0,0.0,0.0,1.0,0.0881039127707,-0.342734068632,-0.0865939185023,1.21846967915e-07,0.0,0.0,0.0,1.21846967915e-07,0.0,0.0,0.0,1.21846967915e-07,-0.32361945,-0.48052585,14.17060925,9e-08,0.0,0.0,0.0,9e-08,0.0,0.0,0.0,9e-08
1531930525510922792,4121,1531930525510088904,base_link,-0.409913924599,-0.024616825626,-0.1832061711,-0.893196554621,1.0,0.0,0.0,0.0,1.0,0.0,0.0,0.0,1.0,-0.103253528476,-0.16532330215,-0.201850712299,1.21846967915e-07,0.0,0.0,0.0,1.21846967915e-07,0.0,0.0,0.0,1.21846967915e-07,-0.5687857,0.7453054,13.05265115,9e-08,0.0,0.0,0.0,9e-08,0.0,0.0,0.0,9e-08
1531930525986017288,4122,1531930525984866344,base_link,-0.417715849352,-0.0175127083164,-0.100335850558,-0.902850758066,1.0,0.0,0.0,0.0,1.0,0.0,0.0,0.0,1.0,0.0110293962061,-0.153828203678,-0.303264290094,1.21846967915e-07,0.0,0.0,0.0,1.21846967915e-07,0.0,0.0,0.0,1.21846967915e-07,-0.8825985,0.4314926,10.787315,9e-08,0.0,0.0,0.0,9e-08,0.0,0.0,0.0,9e-08
1531930526339435720,4123,1531930526338389576,base_link,-0.431143271771,-0.00905592023803,-0.0435894110003,-0.901184461009,1.0,0.0,0.0,0.0,1.0,0.0,0.0,0.0,1.0,0.0288302432746,-0.238230705261,-0.192003875971,1.21846967915e-07,0.0,0.0,0.0,1.21846967915e-07,0.0,0.0,0.0,1.21846967915e-07,-1.04931155,0.34323275,10.48330885,9e-08,0.0,0.0,0.0,9e-08,0.0,0.0,0.0,9e-08
1531930526691607144,4124,1531930526691331880,base_link,-0.432875116351,0.00558911220329,0.0109676411655,-0.901369849904,1.0,0.0,0.0,0.0,1.0,0.0,0.0,0.0,1.0,0.0285893194377,-0.101980410516,-0.301368772984,1.21846967915e-07,0.0,0.0,0.0,1.21846967915e-07,0.0,0.0,0.0,1.21846967915e-07,-0.7453054,0.04903325,9.2967042,9e-08,0.0,0.0,0.0,9e-08,0.0,0.0,0.0,9e-08
1531930527110217352,4125,1531930527109828136,base_link,-0.420087566041,0.0200680069658,0.0927304261829,-0.902510265877,1.0,0.0,0.0,0.0,1.0,0.0,0.0,0.0,1.0,-0.0584740750492,-0.208675324917,-0.323213219643,1.21846967915e-07,0.0,0.0,0.0,1.21846967915e-07,0.0,0.0,0.0,1.21846967915e-07,-0.77472535,0.00980665,12.05237285,9e-08,0.0,0.0,0.0,9e-08,0.0,0.0,0.0,9e-08
1531930527452438056,4126,1531930527451384232,base_link,-0.38845949507,0.0336175266911,0.147747828257,-0.90892225291,1.0,0.0,0.0,0.0,1.0,0.0,0.0,0.0,1.0,-0.27743512392,-0.259486794472,-0.177942588925,1.21846967915e-07,0.0,0.0,0.0,1.21846967915e-07,0.0,0.0,0.0,1.21846967915e-07,-0.57859235,0.16671305,14.07254275,9e-08,0.0,0.0,0.0,9e-08,0.0,0.0,0.0,9e-08
1531930527781530984,4127,1531930527781225032,base_link,-0.325795442474,0.0381700717181,0.180171594161,-0.927328729171,1.0,0.0,0.0,0.0,1.0,0.0,0.0,0.0,1.0,-0.640858113766,-0.0513660162687,-0.176329478621,1.21846967915e-07,0.0,0.0,0.0,1.21846967915e-07,0.0,0.0,0.0,1.21846967915e-07,-0.85317855,1.14737805,11.95430635,9e-08,0.0,0.0,0.0,9e-08,0.0,0.0,0.0,9e-08
1531930528056850408,4128,1531930528056381448,base_link,-0.214993228645,0.0205656959577,0.223501305725,-0.950474686736,1.0,0.0,0.0,0.0,1.0,0.0,0.0,0.0,1.0,-0.893544375896,-0.146989107132,-0.276354521513,1.21846967915e-07,0.0,0.0,0.0,1.21846967915e-07,0.0,0.0,0.0,1.21846967915e-07,-0.9414384,0.4707192,11.7483667,9e-08,0.0,0.0,0.0,9e-08,0.0,0.0,0.0,9e-08
1531930528523206312,4129,1531930528522968232,base_link,-0.0473566975667,-0.00570910067829,0.263231774173,-0.963552687937,1.0,0.0,0.0,0.0,1.0,0.0,0.0,0.0,1.0,-0.705126881599,-0.111180387437,-0.0171216633171,1.21846967915e-07,0.0,0.0,0.0,1.21846967915e-07,0.0,0.0,0.0,1.21846967915e-07,-1.10815145,-0.0196133,11.6110736,9e-08,0.0,0.0,0.0,9e-08,0.0,0.0,0.0,9e-08
1531930528799094632,4130,1531930528798791336,base_link,0.0528015120766,-0.0221381743726,0.259919980944,-0.963931276111,1.0,0.0,0.0,0.0,1.0,0.0,0.0,0.0,1.0,-0.675038993359,-0.0246761888266,0.0148338610306,1.21846967915e-07,0.0,0.0,0.0,1.21846967915e-07,0.0,0.0,0.0,1.21846967915e-07,-1.4513842,0.46091255,11.2580342,9e-08,0.0,0.0,0.0,9e-08,0.0,0.0,0.0,9e-08
1531930529219574184,4131,1531930529217744968,base_link,0.161669996695,-0.0649553071094,0.251369694363,-0.952080299661,1.0,0.0,0.0,0.0,1.0,0.0,0.0,0.0,1.0,-0.458242893219,0.100775562227,0.0679386034608,1.21846967915e-07,0.0,0.0,0.0,1.21846967915e-07,0.0,0.0,0.0,1.21846967915e-07,-1.16699135,-0.0392266,8.36507245,9e-08,0.0,0.0,0.0,9e-08,0.0,0.0,0.0,9e-08
1531930529590883560,4132,1531930529590558184,base_link,0.212063852978,-0.0862163797469,0.227793059055,-0.94641744509,1.0,0.0,0.0,0.0,1.0,0.0,0.0,0.0,1.0,-0.130636572838,-0.0669195652008,0.150080934167,1.21846967915e-07,0.0,0.0,0.0,1.21846967915e-07,0.0,0.0,0.0,1.21846967915e-07,-1.3140911,-0.1176798,8.07087295,9e-08,0.0,0.0,0.0,9e-08,0.0,0.0,0.0,9e-08
1531930529949710952,4133,1531930529949318344,base_link,0.231922382706,-0.0836636267089,0.186616808956,-0.950992414576,1.0,0.0,0.0,0.0,1.0,0.0,0.0,0.0,1.0,-0.154962539673,-0.121139764786,0.243729323149,1.21846967915e-07,0.0,0.0,0.0,1.21846967915e-07,0.0,0.0,0.0,1.21846967915e-07,-1.0002783,-0.02941995,10.2577559,9e-08,0.0,0.0,0.0,9e-08,0.0,0.0,0.0,9e-08
1531930530404562280,4134,1531930530404276008,base_link,0.26513859846,-0.0885534068591,0.142393235397,-0.949517764054,1.0,0.0,0.0,0.0,1.0,0.0,0.0,0.0,1.0,-0.151883497834,-0.0418419353664,0.108306109905,1.21846967915e-07,0.0,0.0,0.0,1.21846967915e-07,0.0,0.0,0.0,1.21846967915e-07,-0.57859235,-0.0980665,9.2574776,9e-08,0.0,0.0,0.0,9e-08,0.0,0.0,0.0,9e-08
1531930530789722536,4135,1531930530789115752,base_link,0.251220611609,-0.0801662937523,0.125134449077,-0.956453312663,1.0,0.0,0.0,0.0,1.0,0.0,0.0,0.0,1.0,0.0254228189588,-0.0601289384067,0.219611644745,1.21846967915e-07,0.0,0.0,0.0,1.21846967915e-07,0.0,0.0,0.0,1.21846967915e-07,-0.77472535,-0.67665885,12.13082605,9e-08,0.0,0.0,0.0,9e-08,0.0,0.0,0.0,9e-08
1531930531164238792,4136,1531930531163890280,base_link,0.230903402879,-0.0733786349839,0.0633065386923,-0.968138149556,1.0,0.0,0.0,0.0,1.0,0.0,0.0,0.0,1.0,0.159279122949,-0.225985601544,0.325691401958,1.21846967915e-07,0.0,0.0,0.0,1.21846967915e-07,0.0,0.0,0.0,1.21846967915e-07,-0.3726527,-0.1372931,12.73883835,9e-08,0.0,0.0,0.0,9e-08,0.0,0.0,0.0,9e-08
1531930531517300552,4137,1531930531517048008,base_link,0.18859569518,-0.0556727275537,0.0157208265493,-0.980349461559,1.0,0.0,0.0,0.0,1.0,0.0,0.0,0.0,1.0,0.321402877569,-0.117941342294,0.194185182452,1.21846967915e-07,0.0,0.0,0.0,1.21846967915e-07,0.0,0.0,0.0,1.21846967915e-07,-0.40207265,0.0784532,12.24850585,9e-08,0.0,0.0,0.0,9e-08,0.0,0.0,0.0,9e-08
1531930531908490408,4138,1531930531908290920,base_link,0.15354884593,-0.0470847740781,-0.00241526202902,-0.987015674887,1.0,0.0,0.0,0.0,1.0,0.0,0.0,0.0,1.0,0.304582834244,0.0270653385669,-0.0914339274168,1.21846967915e-07,0.0,0.0,0.0,1.21846967915e-07,0.0,0.0,0.0,1.21846967915e-07,-0.6668522,0.8237586,9.7085835,9e-08,0.0,0.0,0.0,9e-08,0.0,0.0,0.0,9e-08
1531930532310722216,4139,1531930532310478952,base_link,0.0548270393005,-0.0441683933712,0.0188750964373,-0.9973399017,1.0,0.0,0.0,0.0,1.0,0.0,0.0,0.0,1.0,0.57299810648,0.0909604430199,0.0733653903008,1.21846967915e-07,0.0,0.0,0.0,1.21846967915e-07,0.0,0.0,0.0,1.21846967915e-07,-0.6864655,-0.71588545,8.5121722,9e-08,0.0,0.0,0.0,9e-08,0.0,0.0,0.0,9e-08
1531930532668190888,4140,1531930532667625160,base_link,-0.00742484896307,-0.0508752400682,-0.0139877854826,-0.998579452734,1.0,0.0,0.0,0.0,1.0,0.0,0.0,0.0,1.0,0.192428395152,0.0488849543035,0.19931216538,1.21846967915e-07,0.0,0.0,0.0,1.21846967915e-07,0.0,0.0,0.0,1.21846967915e-07,-0.75511205,-0.1372931,7.1784678,9e-08,0.0,0.0,0.0,9e-08,0.0,0.0,0.0,9e-08
1531930533023900072,4141,1531930533023668392,base_link,-0.0376677102318,-0.0468469492278,-0.0324508842513,-0.997663995073,1.0,0.0,0.0,0.0,1.0,0.0,0.0,0.0,1.0,0.118225231767,0.0235770903528,-0.0629996359348,1.21846967915e-07,0.0,0.0,0.0,1.21846967915e-07,0.0,0.0,0.0,1.21846967915e-07,-0.784532,0.69627215,8.11009955,9e-08,0.0,0.0,0.0,9e-08,0.0,0.0,0.0,9e-08
1531930533429240936,4142,1531930533428990024,base_link,-0.107025932713,-0.059089011871,0.0137507256079,-0.992403575139,1.0,0.0,0.0,0.0,1.0,0.0,0.0,0.0,1.0,0.528846383095,0.151967152953,-0.204389214516,1.21846967915e-07,0.0,0.0,0.0,1.21846967915e-07,0.0,0.0,0.0,1.21846967915e-07,-0.91201845,-0.00980665,7.8845466,9e-08,0.0,0.0,0.0,9e-08,0.0,0.0,0.0,9e-08
1531930533808793320,4143,1531930533808358600,base_link,-0.201094468864,-0.0614335406471,0.0435060409951,-0.976675052959,1.0,0.0,0.0,0.0,1.0,0.0,0.0,0.0,1.0,0.499446570873,0.00472994334996,-0.144907951355,1.21846967915e-07,0.0,0.0,0.0,1.21846967915e-07,0.0,0.0,0.0,1.21846967915e-07,-0.48052585,0.2745862,8.40429905,9e-08,0.0,0.0,0.0,9e-08,0.0,0.0,0.0,9e-08
1531930534208172232,4144,1531930534207804552,base_link,-0.266857287095,-0.047387256692,0.0774826283686,-0.959446756485,1.0,0.0,0.0,0.0,1.0,0.0,0.0,0.0,1.0,0.395297020674,-0.225890085101,-0.107623793185,1.21846967915e-07,0.0,0.0,0.0,1.21846967915e-07,0.0,0.0,0.0,1.21846967915e-07,-0.3726527,0.1176798,11.48358715,9e-08,0.0,0.0,0.0,9e-08,0.0,0.0,0.0,9e-08
1531930534492258088,4145,1531930534491994248,base_link,-0.292205615085,-0.0134315923424,0.103467255658,-0.950647146867,1.0,0.0,0.0,0.0,1.0,0.0,0.0,0.0,1.0,-0.123350255191,-0.285524874926,-0.142766237259,1.21846967915e-07,0.0,0.0,0.0,1.21846967915e-07,0.0,0.0,0.0,1.21846967915e-07,0.0,0.61781895,13.46453045,9e-08,0.0,0.0,0.0,9e-08,0.0,0.0,0.0,9e-08
1531930534937208936,4146,1531930534934809000,base_link,-0.286738407361,0.0211893190223,0.161646765251,-0.944035180376,1.0,0.0,0.0,0.0,1.0,0.0,0.0,0.0,1.0,-0.247633516788,-0.212002933025,-0.229212224483,1.21846967915e-07,0.0,0.0,0.0,1.21846967915e-07,0.0,0.0,0.0,1.21846967915e-07,0.1765197,0.2353596,12.05237285,9e-08,0.0,0.0,0.0,9e-08,0.0,0.0,0.0,9e-08
1531930535311274888,4147,1531930535311001896,base_link,-0.31263316112,0.0286127405806,0.213996908437,-0.925011967935,1.0,0.0,0.0,0.0,1.0,0.0,0.0,0.0,1.0,0.274651587009,0.00220556184649,-0.279366523027,1.21846967915e-07,0.0,0.0,0.0,1.21846967915e-07,0.0,0.0,0.0,1.21846967915e-07,0.04903325,0.12748645,8.85540495,9e-08,0.0,0.0,0.0,9e-08,0.0,0.0,0.0,9e-08
1531930535543706728,4148,1531930535543450632,base_link,-0.338946462221,0.0372056715905,0.244528383751,-0.907709702102,1.0,0.0,0.0,0.0,1.0,0.0,0.0,0.0,1.0,0.216003790498,-0.129049554467,-0.244959667325,1.21846967915e-07,0.0,0.0,0.0,1.21846967915e-07,0.0,0.0,0.0,1.21846967915e-07,0.2353596,0.04903325,8.42391235,9e-08,0.0,0.0,0.0,9e-08,0.0,0.0,0.0,9e-08
1531930536046109448,4149,1531930536045829128,base_link,-0.393186654109,0.0905150341083,0.301861790513,-0.863765444469,1.0,0.0,0.0,0.0,1.0,0.0,0.0,0.0,1.0,0.385040521622,-0.210194185376,-0.186911717057,1.21846967915e-07,0.0,0.0,0.0,1.21846967915e-07,0.0,0.0,0.0,1.21846967915e-07,0.8433719,0.73549875,13.34685065,9e-08,0.0,0.0,0.0,9e-08,0.0,0.0,0.0,9e-08
1531930536502611400,4150,1531930536502235624,base_link,-0.372564970438,0.132411196804,0.38598670293,-0.833472784754,1.0,0.0,0.0,0.0,1.0,0.0,0.0,0.0,1.0,-0.143110871315,-0.297120124102,-0.338361114264,1.21846967915e-07,0.0,0.0,0.0,1.21846967915e-07,0.0,0.0,0.0,1.21846967915e-07,2.01036325,0.65704555,15.2003075,9e-08,0.0,0.0,0.0,9e-08,0.0,0.0,0.0,9e-08
1531930536775717512,4151,1531930536774864104,base_link,-0.337487331235,0.156429427287,0.443288076092,-0.81555368746,1.0,0.0,0.0,0.0,1.0,0.0,0.0,0.0,1.0,-0.233713179827,-0.390059858561,-0.300988614559,1.21846967915e-07,0.0,0.0,0.0,1.21846967915e-07,0.0,0.0,0.0,1.21846967915e-07,2.0790098,0.9414384,19.2602606,9e-08,0.0,0.0,0.0,9e-08,0.0,0.0,0.0,9e-08
1531930537135356136,4152,1531930537134967336,base_link,-0.305708895183,0.176777444009,0.509063982666,-0.784949468595,1.0,0.0,0.0,0.0,1.0,0.0,0.0,0.0,1.0,-0.102911509573,-0.347842484713,-0.271915018559,1.21846967915e-07,0.0,0.0,0.0,1.21846967915e-07,0.0,0.0,0.0,1.21846967915e-07,1.5102241,0.4707192,14.6315218,9e-08,0.0,0.0,0.0,9e-08,0.0,0.0,0.0,9e-08
1531930537403375208,4153,1531930537403061960,base_link,-0.286047994394,0.203739910993,0.55407239565,-0.754765111773,1.0,0.0,0.0,0.0,1.0,0.0,0.0,0.0,1.0,0.135970249772,-0.400850445032,-0.284275233746,1.21846967915e-07,0.0,0.0,0.0,1.21846967915e-07,0.0,0.0,0.0,1.21846967915e-07,1.8632635,0.196133,14.36674225,9e-08,0.0,0.0,0.0,9e-08,0.0,0.0,0.0,9e-08
1531930537745698664,4154,1531930537744325256,base_link,-0.266008564186,0.245456166245,0.598886522862,-0.714370804951,1.0,0.0,0.0,0.0,1.0,0.0,0.0,0.0,1.0,0.125269591808,-0.401230871677,-0.224346920848,1.21846967915e-07,0.0,0.0,0.0,1.21846967915e-07,0.0,0.0,0.0,1.21846967915e-07,2.16726965,0.34323275,15.56315355,9e-08,0.0,0.0,0.0,9e-08,0.0,0.0,0.0,9e-08
1531930538107142376,4155,1531930538106704136,base_link,-0.240370620824,0.289614482116,0.641208913919,-0.66872755671,1.0,0.0,0.0,0.0,1.0,0.0,0.0,0.0,1.0,-0.00104290619493,-0.306548595428,-0.254678934813,1.21846967915e-07,0.0,0.0,0.0,1.21846967915e-07,0.0,0.0,0.0,1.21846967915e-07,1.96133,0.65704555,16.85763135,9e-08,0.0,0.0,0.0,9e-08,0.0,0.0,0.0,9e-08
1531930538403303752,4156,1531930538402811816,base_link,0.213673585,-0.304175443984,-0.680399436034,0.631567499002,1.0,0.0,0.0,0.0,1.0,0.0,0.0,0.0,1.0,-0.205755770206,-0.1564450562,-0.265664100647,1.21846967915e-07,0.0,0.0,0.0,1.21846967915e-07,0.0,0.0,0.0,1.21846967915e-07,1.5298374,0.36284605,12.13082605,9e-08,0.0,0.0,0.0,9e-08,0.0,0.0,0.0,9e-08
1531930538863856520,4157,1531930538863527112,base_link,0.143216427934,-0.277382447495,-0.749311984806,0.584020189735,1.0,0.0,0.0,0.0,1.0,0.0,0.0,0.0,1.0,-0.64339363575,-0.376139074564,-0.225719943643,1.21846967915e-07,0.0,0.0,0.0,1.21846967915e-07,0.0,0.0,0.0,1.21846967915e-07,1.0983448,0.55897905,17.26951065,9e-08,0.0,0.0,0.0,9e-08,0.0,0.0,0.0,9e-08
1531930539214413640,4158,1531930539214003144,base_link,0.0535663118856,-0.217214576783,-0.79469571773,0.564275813841,1.0,0.0,0.0,0.0,1.0,0.0,0.0,0.0,1.0,-0.651112377644,-0.249149754643,-0.150687083602,1.21846967915e-07,0.0,0.0,0.0,1.21846967915e-07,0.0,0.0,0.0,1.21846967915e-07,0.18632635,0.588399,11.58165365,9e-08,0.0,0.0,0.0,9e-08,0.0,0.0,0.0,9e-08
1531930539511308328,4159,1531930539510926440,base_link,-0.00956830759602,-0.156172900031,-0.826710783531,0.54043293125,1.0,0.0,0.0,0.0,1.0,0.0,0.0,0.0,1.0,-0.657069206238,-0.0488505065441,-0.165645390749,1.21846967915e-07,0.0,0.0,0.0,1.21846967915e-07,0.0,0.0,0.0,1.21846967915e-07,-0.36284605,0.4511059,10.89518815,9e-08,0.0,0.0,0.0,9e-08,0.0,0.0,0.0,9e-08
1531930539982966728,4160,1531930539982701256,base_link,-0.102057496821,-0.0393284969924,-0.841901160743,0.528431615449,1.0,0.0,0.0,0.0,1.0,0.0,0.0,0.0,1.0,-0.78721177578,0.042091473937,-0.00779761141166,1.21846967915e-07,0.0,0.0,0.0,1.21846967915e-07,0.0,0.0,0.0,1.21846967915e-07,-0.9022118,0.9414384,13.4743371,9e-08,0.0,0.0,0.0,9e-08,0.0,0.0,0.0,9e-08
1531930540343689352,4161,1531930540343353352,base_link,-0.132020337585,0.0260920793541,-0.855515204131,0.49998356909,1.0,0.0,0.0,0.0,1.0,0.0,0.0,0.0,1.0,-0.244720190763,0.0445288382471,-0.0780863910913,1.21846967915e-07,0.0,0.0,0.0,1.21846967915e-07,0.0,0.0,0.0,1.21846967915e-07,-1.32389775,-0.32361945,10.85596155,9e-08,0.0,0.0,0.0,9e-08,0.0,0.0,0.0,9e-08
1531930540698025928,4162,1531930540696828936,base_link,-0.129052490534,0.0959301201996,-0.850222437702,0.501263077789,1.0,0.0,0.0,0.0,1.0,0.0,0.0,0.0,1.0,-0.440002650023,0.260109901428,0.120589800179,1.21846967915e-07,0.0,0.0,0.0,1.21846967915e-07,0.0,0.0,0.0,1.21846967915e-07,-0.93163175,-0.08825985,5.4524974,9e-08,0.0,0.0,0.0,9e-08,0.0,0.0,0.0,9e-08
1531930541160353320,4163,1531930541159856008,base_link,-0.107739492304,0.18430169532,-0.837932174041,0.502289516721,1.0,0.0,0.0,0.0,1.0,0.0,0.0,0.0,1.0,-0.29750046134,0.155608087778,0.0779029503465,1.21846967915e-07,0.0,0.0,0.0,1.21846967915e-07,0.0,0.0,0.0,1.21846967915e-07,-1.4121576,-0.26477955,3.6873004,9e-08,0.0,0.0,0.0,9e-08,0.0,0.0,0.0,9e-08
1531930541645641864,4164,1531930541645424392,base_link,-0.0809166097112,0.21985436341,-0.815190687921,0.529698691229,1.0,0.0,0.0,0.0,1.0,0.0,0.0,0.0,1.0,0.0596588440239,0.212640196085,0.248974755406,1.21846967915e-07,0.0,0.0,0.0,1.21846967915e-07,0.0,0.0,0.0,1.21846967915e-07,-1.3925443,5.56048301271e-16,4.54047895,9e-08,0.0,0.0,0.0,9e-08,0.0,0.0,0.0,9e-08
1531930541961228872,4165,1531930541960967880,base_link,-0.0415712785999,0.220795831219,-0.798605094318,0.558346606546,1.0,0.0,0.0,0.0,1.0,0.0,0.0,0.0,1.0,-0.033575117588,0.147956341505,0.242891043425,1.21846967915e-07,0.0,0.0,0.0,1.21846967915e-07,0.0,0.0,0.0,1.21846967915e-07,-1.4709975,-0.10787315,6.0605097,9e-08,0.0,0.0,0.0,9e-08,0.0,0.0,0.0,9e-08
1531930542366388552,4166,1531930542366175752,base_link,-0.0154474875744,0.225531876767,-0.764298823947,0.603940440278,1.0,0.0,0.0,0.0,1.0,0.0,0.0,0.0,1.0,0.0615648180246,0.0338649898767,0.268962681293,1.21846967915e-07,0.0,0.0,0.0,1.21846967915e-07,0.0,0.0,0.0,1.21846967915e-07,-1.61809725,-0.0392266,7.54131385,9e-08,0.0,0.0,0.0,9e-08,0.0,0.0,0.0,9e-08
1531930542647892168,4167,1531930542647607048,base_link,-0.0236633287912,0.237960826113,-0.746895525297,0.62045287202,1.0,0.0,0.0,0.0,1.0,0.0,0.0,0.0,1.0,-0.133929640055,0.0295433141291,0.0817559659481,1.21846967915e-07,0.0,0.0,0.0,1.21846967915e-07,0.0,0.0,0.0,1.21846967915e-07,-1.40235095,0.5295591,10.16949605,9e-08,0.0,0.0,0.0,9e-08,0.0,0.0,0.0,9e-08
1531930543056863720,4168,1531930543056451624,base_link,-0.019608425989,0.223193048153,-0.74987589953,0.622484142923,1.0,0.0,0.0,0.0,1.0,0.0,0.0,0.0,1.0,0.256635338068,-0.0736270397902,0.0617706365883,1.21846967915e-07,0.0,0.0,0.0,1.21846967915e-07,0.0,0.0,0.0,1.21846967915e-07,-1.30428445,-0.6472389,6.20760945,9e-08,0.0,0.0,0.0,9e-08,0.0,0.0,0.0,9e-08
1531930543442929320,4169,1531930543442665736,base_link,0.0537329883155,0.118123619198,-0.753819947814,0.644139008935,1.0,0.0,0.0,0.0,1.0,0.0,0.0,0.0,1.0,0.722067892551,-0.0461921617389,0.116899132729,1.21846967915e-07,0.0,0.0,0.0,1.21846967915e-07,0.0,0.0,0.0,1.21846967915e-07,-1.0002783,-0.196133,13.0036179,9e-08,0.0,0.0,0.0,9e-08,0.0,0.0,0.0,9e-08
1531930544010931560,4170,1531930544010681384,base_link,0.161422212741,-0.0477915374641,-0.752471225612,0.636746333171,1.0,0.0,0.0,0.0,1.0,0.0,0.0,0.0,1.0,0.706129074097,-0.12672662735,-0.0602291561663,1.21846967915e-07,0.0,0.0,0.0,1.21846967915e-07,0.0,0.0,0.0,1.21846967915e-07,-0.9414384,0.4314926,10.4931155,9e-08,0.0,0.0,0.0,9e-08,0.0,0.0,0.0,9e-08
1531930544356221192,4171,1531930544355961576,base_link,0.210617134684,-0.143473264317,-0.7618577475,0.595507025632,1.0,0.0,0.0,0.0,1.0,0.0,0.0,0.0,1.0,0.60122025013,-0.214605987072,-0.161834537983,1.21846967915e-07,0.0,0.0,0.0,1.21846967915e-07,0.0,0.0,0.0,1.21846967915e-07,-0.588399,0.0588399,10.13026945,9e-08,0.0,0.0,0.0,9e-08,0.0,0.0,0.0,9e-08
1531930544720691688,4172,1531930544720073000,base_link,0.220190683336,-0.211064546589,-0.773561008385,0.55549184193,1.0,0.0,0.0,0.0,1.0,0.0,0.0,0.0,1.0,0.258933156729,-0.229899659753,-0.259734511375,1.21846967915e-07,0.0,0.0,0.0,1.21846967915e-07,0.0,0.0,0.0,1.21846967915e-07,0.20593965,0.784532,12.34657235,9e-08,0.0,0.0,0.0,9e-08,0.0,0.0,0.0,9e-08
1531930545138773320,4173,1531930545138334792,base_link,0.213716128941,-0.268038645905,-0.810271806513,0.475331778973,1.0,0.0,0.0,0.0,1.0,0.0,0.0,0.0,1.0,0.391380757093,-0.357033371925,-0.366048783064,1.21846967915e-07,0.0,0.0,0.0,1.21846967915e-07,0.0,0.0,0.0,1.21846967915e-07,0.5687857,0.12748645,14.66094175,9e-08,0.0,0.0,0.0,9e-08,0.0,0.0,0.0,9e-08
1531930545639103496,4174,1531930545638870280,base_link,0.171513080102,-0.327200820124,-0.848365104098,0.37920909379,1.0,0.0,0.0,0.0,1.0,0.0,0.0,0.0,1.0,-0.0171896778047,-0.425593823195,-0.388963490725,1.21846967915e-07,0.0,0.0,0.0,1.21846967915e-07,0.0,0.0,0.0,1.21846967915e-07,1.65732385,1.04931155,17.2204774,9e-08,0.0,0.0,0.0,9e-08,0.0,0.0,0.0,9e-08
1531930546041656008,4175,1531930546041351368,base_link,0.132363851512,-0.36116441312,-0.880140209687,0.27819649315,1.0,0.0,0.0,0.0,1.0,0.0,0.0,0.0,1.0,-0.108544833958,-0.480059862137,-0.315084129572,1.21846967915e-07,0.0,0.0,0.0,1.21846967915e-07,0.0,0.0,0.0,1.21846967915e-07,1.765197,0.7060788,16.58304515,9e-08,0.0,0.0,0.0,9e-08,0.0,0.0,0.0,9e-08
1531930546349276424,4176,1531930546349020776,base_link,0.100136336886,-0.369574677037,-0.897327567756,0.219523366122,1.0,0.0,0.0,0.0,1.0,0.0,0.0,0.0,1.0,0.0522473976016,-0.360275000334,-0.233915939927,1.21846967915e-07,0.0,0.0,0.0,1.21846967915e-07,0.0,0.0,0.0,1.21846967915e-07,1.6082906,0.44129925,14.03331615,9e-08,0.0,0.0,0.0,9e-08,0.0,0.0,0.0,9e-08
1531930546797646760,4177,1531930546797426664,base_link,0.0305428047534,-0.377970414795,-0.914381151394,0.141818942996,1.0,0.0,0.0,0.0,1.0,0.0,0.0,0.0,1.0,0.017672766,-0.413172721863,-0.213324680924,1.21846967915e-07,0.0,0.0,0.0,1.21846967915e-07,0.0,0.0,0.0,1.21846967915e-07,1.5886773,0.69627215,19.8682729,9e-08,0.0,0.0,0.0,9e-08,0.0,0.0,0.0,9e-08
1531930547285965640,4178,1531930547285373512,base_link,-0.0311890381528,-0.380253599616,-0.921857037177,0.0679267759039,1.0,0.0,0.0,0.0,1.0,0.0,0.0,0.0,1.0,-0.253618150949,-0.334023088217,-0.191118001938,1.21846967915e-07,0.0,0.0,0.0,1.21846967915e-07,0.0,0.0,0.0,1.21846967915e-07,1.67693715,0.59820565,14.68055505,9e-08,0.0,0.0,0.0,9e-08,0.0,0.0,0.0,9e-08
1531930547715418472,4179,1531930547715086824,base_link,-0.0481582758821,-0.357521652473,-0.932368081915,-0.0234266579455,1.0,0.0,0.0,0.0,1.0,0.0,0.0,0.0,1.0,-0.281414538622,-0.228893116117,-0.389461964369,1.21846967915e-07,0.0,0.0,0.0,1.21846967915e-07,0.0,0.0,0.0,1.21846967915e-07,1.46119085,0.38245935,13.0428445,9e-08,0.0,0.0,0.0,9e-08,0.0,0.0,0.0,9e-08
1531930548125449128,4180,1531930548125045800,base_link,-0.0634699606155,-0.264304611988,-0.957610773528,-0.0953742240029,1.0,0.0,0.0,0.0,1.0,0.0,0.0,0.0,1.0,-0.626630485058,-0.148239642382,-0.276542901993,1.21846967915e-07,0.0,0.0,0.0,1.21846967915e-07,0.0,0.0,0.0,1.21846967915e-07,0.8433719,0.392266,14.2196425,9e-08,0.0,0.0,0.0,9e-08,0.0,0.0,0.0,9e-08
1531930548417439688,4181,1531930548417118024,base_link,-0.0738354402494,-0.185863463622,-0.970544849222,-0.134334642974,1.0,0.0,0.0,0.0,1.0,0.0,0.0,0.0,1.0,-0.520130693913,-0.211368918419,-0.111532986164,1.21846967915e-07,0.0,0.0,0.0,1.21846967915e-07,0.0,0.0,0.0,1.21846967915e-07,0.00980665,0.196133,13.73911665,9e-08,0.0,0.0,0.0,9e-08,0.0,0.0,0.0,9e-08
1531930548759147560,4182,1531930548758407048,base_link,-0.0873754394466,-0.0874028735371,-0.979157065569,-0.161176025591,1.0,0.0,0.0,0.0,1.0,0.0,0.0,0.0,1.0,-0.878889143467,-0.0169458799064,-0.0848523527384,1.21846967915e-07,0.0,0.0,0.0,1.21846967915e-07,0.0,0.0,0.0,1.21846967915e-07,-0.12748645,0.1569064,15.3572139,9e-08,0.0,0.0,0.0,9e-08,0.0,0.0,0.0,9e-08
1531930549204915112,4183,1531930549204677448,base_link,-0.0657393419939,0.041357615962,-0.979386317374,-0.186468034412,1.0,0.0,0.0,0.0,1.0,0.0,0.0,0.0,1.0,-0.492791563272,-0.0633813291788,-0.0546479299664,1.21846967915e-07,0.0,0.0,0.0,1.21846967915e-07,0.0,0.0,0.0,1.21846967915e-07,-0.65704555,-0.30400615,10.38524235,9e-08,0.0,0.0,0.0,9e-08,0.0,0.0,0.0,9e-08
1531930549633774440,4184,1531930549633424488,base_link,-0.0500169448845,0.0924928092923,-0.977464821279,-0.183046192574,1.0,0.0,0.0,0.0,1.0,0.0,0.0,0.0,1.0,-0.257805734873,0.104860283434,0.0286746043712,1.21846967915e-07,0.0,0.0,0.0,1.21846967915e-07,0.0,0.0,0.0,1.21846967915e-07,-0.7256921,0.1176798,7.46286065,9e-08,0.0,0.0,0.0,9e-08,0.0,0.0,0.0,9e-08
1531930550001660552,4185,1531930550001193960,base_link,-0.0164358447906,0.125492604652,-0.975428958951,-0.18033251294,1.0,0.0,0.0,0.0,1.0,0.0,0.0,0.0,1.0,-0.156733810902,0.177426323295,0.0347016975284,1.21846967915e-07,0.0,0.0,0.0,1.21846967915e-07,0.0,0.0,0.0,1.21846967915e-07,-0.93163175,0.00980665,6.6881353,9e-08,0.0,0.0,0.0,9e-08,0.0,0.0,0.0,9e-08
1531930550331972872,4186,1531930550330810024,base_link,0.0162722990403,0.137261300346,-0.97333164255,-0.183084847329,1.0,0.0,0.0,0.0,1.0,0.0,0.0,0.0,1.0,-0.132911652327,0.175270110369,0.0329389832914,1.21846967915e-07,0.0,0.0,0.0,1.21846967915e-07,0.0,0.0,0.0,1.21846967915e-07,-1.06892485,-0.28439285,4.9229383,9e-08,0.0,0.0,0.0,9e-08,0.0,0.0,0.0,9e-08
1531930550805634216,4187,1531930550805176296,base_link,0.0586877731713,0.0971361794752,-0.980181692777,-0.16237043161,1.0,0.0,0.0,0.0,1.0,0.0,0.0,0.0,1.0,0.149354055524,0.202798575163,0.196967884898,1.21846967915e-07,0.0,0.0,0.0,1.21846967915e-07,0.0,0.0,0.0,1.21846967915e-07,-1.18660465,0.2157463,5.05042475,9e-08,0.0,0.0,0.0,9e-08,0.0,0.0,0.0,9e-08
1531930551250483848,4188,1531930551250190184,base_link,0.0934391474414,0.0888823509188,-0.98132188492,-0.142745968764,1.0,0.0,0.0,0.0,1.0,0.0,0.0,0.0,1.0,0.0715634524822,0.148795455694,-0.0201850701123,1.21846967915e-07,0.0,0.0,0.0,1.21846967915e-07,0.0,0.0,0.0,1.21846967915e-07,-1.18660465,0.4118793,4.4326058,9e-08,0.0,0.0,0.0,9e-08,0.0,0.0,0.0,9e-08
1531930551749812456,4189,1531930551749514984,base_link,0.110537641353,0.0601640564962,-0.982756025655,-0.135470698639,1.0,0.0,0.0,0.0,1.0,0.0,0.0,0.0,1.0,0.109533585608,0.0298809148371,0.0770377069712,1.21846967915e-07,0.0,0.0,0.0,1.21846967915e-07,0.0,0.0,0.0,1.21846967915e-07,-1.02969825,0.28439285,9.69877685,9e-08,0.0,0.0,0.0,9e-08,0.0,0.0,0.0,9e-08
1531930552184708264,4190,1531930552184499720,base_link,0.112336596559,0.0528337117829,-0.985160328929,-0.118525163053,1.0,0.0,0.0,0.0,1.0,0.0,0.0,0.0,1.0,-0.0105798412114,-0.0150025747716,0.0542592741549,1.21846967915e-07,0.0,0.0,0.0,1.21846967915e-07,0.0,0.0,0.0,1.21846967915e-07,-1.0395049,0.0392266,6.93330155,9e-08,0.0,0.0,0.0,9e-08,0.0,0.0,0.0,9e-08
1531930552502947048,4191,1531930552502642024,base_link,0.102418573962,0.0546623546108,-0.986832644677,-0.112622351669,1.0,0.0,0.0,0.0,1.0,0.0,0.0,0.0,1.0,-0.118757590652,-0.0742341205478,0.029217178002,1.21846967915e-07,0.0,0.0,0.0,1.21846967915e-07,0.0,0.0,0.0,1.21846967915e-07,-0.63743225,-0.1569064,11.87585315,9e-08,0.0,0.0,0.0,9e-08,0.0,0.0,0.0,9e-08
1531930552962174344,4192,1531930552959556488,base_link,0.0825721960555,0.0465141867765,-0.992261664416,-0.0802187770871,1.0,0.0,0.0,0.0,1.0,0.0,0.0,0.0,1.0,-0.0158296264708,-0.0618365481496,0.20692692697,1.21846967915e-07,0.0,0.0,0.0,1.21846967915e-07,0.0,0.0,0.0,1.21846967915e-07,-0.6080123,0.06864655,11.22861425,9e-08,0.0,0.0,0.0,9e-08,0.0,0.0,0.0,9e-08
1531930553400792232,4193,1531930553400045480,base_link,0.059385714017,0.0541704478536,-0.993867316372,-0.0759385080012,1.0,0.0,0.0,0.0,1.0,0.0,0.0,0.0,1.0,0.0540761575103,-0.0739377140999,-0.078336507082,1.21846967915e-07,0.0,0.0,0.0,1.21846967915e-07,0.0,0.0,0.0,1.21846967915e-07,0.0,0.20593965,11.32668075,9e-08,0.0,0.0,0.0,9e-08,0.0,0.0,0.0,9e-08
1531930553772378472,4194,1531930553771966664,base_link,0.0340244970912,0.0464227769273,-0.995075511301,-0.080696878432,1.0,0.0,0.0,0.0,1.0,0.0,0.0,0.0,1.0,0.0192047860473,-0.114745289087,0.0236084312201,1.21846967915e-07,0.0,0.0,0.0,1.21846967915e-07,0.0,0.0,0.0,1.21846967915e-07,0.20593965,-0.1372931,13.4351105,9e-08,0.0,0.0,0.0,9e-08,0.0,0.0,0.0,9e-08
1531930554169910248,4195,1531930554169521192,base_link,0.0116653361711,0.0283993473582,-0.997396611204,-0.0652487314814,1.0,0.0,0.0,0.0,1.0,0.0,0.0,0.0,1.0,0.134508982301,-0.0834014713764,0.08672183007,1.21846967915e-07,0.0,0.0,0.0,1.21846967915e-07,0.0,0.0,0.0,1.21846967915e-07,0.1569064,-0.12748645,10.1793027,9e-08,0.0,0.0,0.0,9e-08,0.0,0.0,0.0,9e-08
1531930554445661448,4196,1531930554445217320,base_link,0.00181112835334,0.0138726609977,-0.998532396601,-0.0523194230504,1.0,0.0,0.0,0.0,1.0,0.0,0.0,0.0,1.0,0.0112512577325,-0.0288410186768,0.0353422760963,1.21846967915e-07,0.0,0.0,0.0,1.21846967915e-07,0.0,0.0,0.0,1.21846967915e-07,0.2745862,0.2941995,10.9246081,9e-08,0.0,0.0,0.0,9e-08,0.0,0.0,0.0,9e-08
1531930554951683816,4197,1531930554951257704,base_link,-0.0100606273813,-0.0271292218244,-0.997950370487,-0.0570775537744,1.0,0.0,0.0,0.0,1.0,0.0,0.0,0.0,1.0,0.221648916602,-0.0259055327624,-0.0124027328566,1.21846967915e-07,0.0,0.0,0.0,1.21846967915e-07,0.0,0.0,0.0,1.21846967915e-07,0.24516625,0.2745862,10.75789505,9e-08,0.0,0.0,0.0,9e-08,0.0,0.0,0.0,9e-08
1531930555249677736,4198,1531930555249325128,base_link,-0.0109521052073,-0.0357693104199,-0.997198426881,-0.064775807597,1.0,0.0,0.0,0.0,1.0,0.0,0.0,0.0,1.0,0.105739146471,0.00886518508196,-0.115441709757,1.21846967915e-07,0.0,0.0,0.0,1.21846967915e-07,0.0,0.0,0.0,1.21846967915e-07,0.24516625,0.1765197,8.8063717,9e-08,0.0,0.0,0.0,9e-08,0.0,0.0,0.0,9e-08
1531930555765907560,4199,1531930555764715432,base_link,-0.0173549366824,-0.0427988706503,-0.997008030269,-0.0619842756084,1.0,0.0,0.0,0.0,1.0,0.0,0.0,0.0,1.0,-0.104382798076,0.0201339386404,-0.044112958014,1.21846967915e-07,0.0,0.0,0.0,1.21846967915e-07,0.0,0.0,0.0,1.21846967915e-07,0.3138128,0.6472389,9.28689755,9e-08,0.0,0.0,0.0,9e-08,0.0,0.0,0.0,9e-08
1531930556199874568,4200,1531930556199572424,base_link,-0.00859644213161,-0.0192163088434,-0.995752507291,-0.0896313498803,1.0,0.0,0.0,0.0,1.0,0.0,0.0,0.0,1.0,-0.0193585492671,0.0375902168453,-0.0671517550945,1.21846967915e-07,0.0,0.0,0.0,1.21846967915e-07,0.0,0.0,0.0,1.21846967915e-07,0.2745862,-0.4314926,11.4737805,9e-08,0.0,0.0,0.0,9e-08,0.0,0.0,0.0,9e-08
1531930556519233160,4201,1531930556518929768,base_link,-0.0108413337857,-0.0215477158352,-0.997131490352,-0.0717422634999,1.0,0.0,0.0,0.0,1.0,0.0,0.0,0.0,1.0,-0.00264267250896,-0.0120232887566,0.146342203021,1.21846967915e-07,0.0,0.0,0.0,1.21846967915e-07,0.0,0.0,0.0,1.21846967915e-07,0.3726527,-0.1176798,8.11009955,9e-08,0.0,0.0,0.0,9e-08,0.0,0.0,0.0,9e-08
1531930556834150344,4202,1531930556831202504,base_link,-0.0159279900988,0.00261327288728,-0.998594781523,-0.0504770467737,1.0,0.0,0.0,0.0,1.0,0.0,0.0,0.0,1.0,-0.202664777637,-0.0405269525945,0.112942002714,1.21846967915e-07,0.0,0.0,0.0,1.21846967915e-07,0.0,0.0,0.0,1.21846967915e-07,0.36284605,0.2353596,10.4538889,9e-08,0.0,0.0,0.0,9e-08,0.0,0.0,0.0,9e-08
1531930557208948392,4203,1531930557208634216,base_link,-0.0150592791502,-0.00598114606814,-0.998257686243,-0.0567365478406,1.0,0.0,0.0,0.0,1.0,0.0,0.0,0.0,1.0,-0.0606086924672,0.0315475389361,-0.101105295122,1.21846967915e-07,0.0,0.0,0.0,1.21846967915e-07,0.0,0.0,0.0,1.21846967915e-07,0.63743225,0.08825985,9.8851032,9e-08,0.0,0.0,0.0,9e-08,0.0,0.0,0.0,9e-08
1531930557442758600,4204,1531930557442483080,base_link,-0.0101649546326,-0.00729003515591,-0.997767001622,-0.0656089899223,1.0,0.0,0.0,0.0,1.0,0.0,0.0,0.0,1.0,0.0330826304853,0.0577196627855,-0.024833612144,1.21846967915e-07,0.0,0.0,0.0,1.21846967915e-07,0.0,0.0,0.0,1.21846967915e-07,0.4118793,-0.0784532,8.54159215,9e-08,0.0,0.0,0.0,9e-08,0.0,0.0,0.0,9e-08
1531930557748073736,4205,1531930557747810120,base_link,-0.00535577773295,0.00953774243395,-0.997716862011,-0.0666439072526,1.0,0.0,0.0,0.0,1.0,0.0,0.0,0.0,1.0,-0.0866964831948,0.0204106140882,0.0105385379866,1.21846967915e-07,0.0,0.0,0.0,1.21846967915e-07,0.0,0.0,0.0,1.21846967915e-07,0.59820565,-0.16671305,9.1986377,9e-08,0.0,0.0,0.0,9e-08,0.0,0.0,0.0,9e-08
1531930558115471240,4206,1531930558114500680,base_link,-0.0017910096306,0.0208841598783,-0.998372808933,-0.0530318633853,1.0,0.0,0.0,0.0,1.0,0.0,0.0,0.0,1.0,-0.0601276308298,0.0705442354083,0.116550408304,1.21846967915e-07,0.0,0.0,0.0,1.21846967915e-07,0.0,0.0,0.0,1.21846967915e-07,0.50013915,0.73549875,8.7671451,9e-08,0.0,0.0,0.0,9e-08,0.0,0.0,0.0,9e-08
1531930558518613416,4207,1531930558518156936,base_link,0.0050000102366,0.04377401229,-0.996949286511,-0.0644279122087,1.0,0.0,0.0,0.0,1.0,0.0,0.0,0.0,1.0,0.0227074306458,0.00306383892894,-0.119273483753,1.21846967915e-07,0.0,0.0,0.0,1.21846967915e-07,0.0,0.0,0.0,1.21846967915e-07,0.67665885,0.08825985,9.5320638,9e-08,0.0,0.0,0.0,9e-08,0.0,0.0,0.0,9e-08
1531930558916823144,4208,1531930558916483784,base_link,-0.00196986019525,0.029662475855,-0.997537719882,-0.0635197181114,1.0,0.0,0.0,0.0,1.0,0.0,0.0,0.0,1.0,-0.0747669786215,-0.0433175973594,0.109022408724,1.21846967915e-07,0.0,0.0,0.0,1.21846967915e-07,0.0,0.0,0.0,1.21846967915e-07,0.65704555,0.08825985,10.13026945,9e-08,0.0,0.0,0.0,9e-08,0.0,0.0,0.0,9e-08
1531930559201017480,4209,1531930559200713640,base_link,-0.00952603141582,0.0333556583573,-0.998336371765,-0.0460558746662,1.0,0.0,0.0,0.0,1.0,0.0,0.0,0.0,1.0,0.0291116125882,-0.0507079511881,0.111187376082,1.21846967915e-07,0.0,0.0,0.0,1.21846967915e-07,0.0,0.0,0.0,1.21846967915e-07,0.61781895,0.44129925,10.7088618,9e-08,0.0,0.0,0.0,9e-08,0.0,0.0,0.0,9e-08
1531930559600934216,4210,1531930559600610824,base_link,-0.0154937942803,0.0213869543696,-0.9988315016,-0.040474336729,1.0,0.0,0.0,0.0,1.0,0.0,0.0,0.0,1.0,0.175095960498,-0.00541887059808,-0.0531265251338,1.21846967915e-07,0.0,0.0,0.0,1.21846967915e-07,0.0,0.0,0.0,1.21846967915e-07,0.67665885,0.6668522,9.6693569,9e-08,0.0,0.0,0.0,9e-08,0.0,0.0,0.0,9e-08
1531930560001921736,4211,1531930560001060232,base_link,-0.0197195083261,-0.0326951532623,-0.997476081096,-0.059863474553,1.0,0.0,0.0,0.0,1.0,0.0,0.0,0.0,1.0,0.133395045996,-0.00528213195503,-0.0438663028181,1.21846967915e-07,0.0,0.0,0.0,1.21846967915e-07,0.0,0.0,0.0,1.21846967915e-07,0.71588545,0.10787315,10.22833595,9e-08,0.0,0.0,0.0,9e-08,0.0,0.0,0.0,9e-08
1531930560412410024,4212,1531930560412100008,base_link,-0.0263784764604,-0.0494695207751,-0.996436344345,-0.0630202678634,1.0,0.0,0.0,0.0,1.0,0.0,0.0,0.0,1.0,-0.177921488881,-0.0142460707575,-0.036008156836,1.21846967915e-07,0.0,0.0,0.0,1.21846967915e-07,0.0,0.0,0.0,1.21846967915e-07,0.8237586,0.5295591,11.32668075,9e-08,0.0,0.0,0.0,9e-08,0.0,0.0,0.0,9e-08
1531930560753649096,4213,1531930560753381000,base_link,-0.0298499620295,-0.040773411334,-0.996281578957,-0.0697819756494,1.0,0.0,0.0,0.0,1.0,0.0,0.0,0.0,1.0,0.0779348835349,-0.0367025360465,-0.0130573967472,1.21846967915e-07,0.0,0.0,0.0,1.21846967915e-07,0.0,0.0,0.0,1.21846967915e-07,1.0983448,0.0588399,10.83634825,9e-08,0.0,0.0,0.0,9e-08,0.0,0.0,0.0,9e-08
1531930561139462760,4214,1531930561135989960,base_link,-0.0285689538099,-0.0383196924682,-0.995974079606,-0.0758356697085,1.0,0.0,0.0,0.0,1.0,0.0,0.0,0.0,1.0,0.0159621164203,-0.00226458348334,-0.0751320570707,1.21846967915e-07,0.0,0.0,0.0,1.21846967915e-07,0.0,0.0,0.0,1.21846967915e-07,1.0787315,0.42168595,10.6107953,9e-08,0.0,0.0,0.0,9e-08,0.0,0.0,0.0,9e-08
1531930561466053128,4215,1531930561465801544,base_link,-0.0265993037452,-0.0425651988083,-0.995166781412,-0.08440235817,1.0,0.0,0.0,0.0,1.0,0.0,0.0,0.0,1.0,0.00520825199783,0.0257096663117,-0.0286848135293,1.21846967915e-07,0.0,0.0,0.0,1.21846967915e-07,0.0,0.0,0.0,1.21846967915e-07,0.8237586,0.0588399,9.93413645,9e-08,0.0,0.0,0.0,9e-08,0.0,0.0,0.0,9e-08
1531930561799555624,4216,1531930561799325928,base_link,-0.0251600285097,-0.0617251418109,-0.992770039264,-0.0998229882023,1.0,0.0,0.0,0.0,1.0,0.0,0.0,0.0,1.0,0.108105272055,0.018951004371,-0.0922818332911,1.21846967915e-07,0.0,0.0,0.0,1.21846967915e-07,0.0,0.0,0.0,1.21846967915e-07,0.53936575,-0.1569064,9.52225715,9e-08,0.0,0.0,0.0,9e-08,0.0,0.0,0.0,9e-08
1531930562225658472,4217,1531930562225063368,base_link,-0.0220150251487,-0.0741019386941,-0.990993949153,-0.109339993099,1.0,0.0,0.0,0.0,1.0,0.0,0.0,0.0,1.0,-0.0349577516317,0.0197225231677,-0.0215985924006,1.21846967915e-07,0.0,0.0,0.0,1.21846967915e-07,0.0,0.0,0.0,1.21846967915e-07,0.65704555,-0.2353596,8.07087295,9e-08,0.0,0.0,0.0,9e-08,0.0,0.0,0.0,9e-08
1531930562619000424,4218,1531930562618690888,base_link,-0.0208586343263,-0.0790807523977,-0.990806807441,-0.10776373371,1.0,0.0,0.0,0.0,1.0,0.0,0.0,0.0,1.0,0.146171048284,0.0333418473601,-0.0178722515702,1.21846967915e-07,0.0,0.0,0.0,1.21846967915e-07,0.0,0.0,0.0,1.21846967915e-07,0.4118793,0.2549729,9.5320638,9e-08,0.0,0.0,0.0,9e-08,0.0,0.0,0.0,9e-08
1531930563116568456,4219,1531930563116339624,base_link,-0.0213455213009,-0.133052554712,-0.982557793035,-0.128146672806,1.0,0.0,0.0,0.0,1.0,0.0,0.0,0.0,1.0,0.23266300559,0.0108746849,-0.120685242116,1.21846967915e-07,0.0,0.0,0.0,1.21846967915e-07,0.0,0.0,0.0,1.21846967915e-07,0.55897905,0.12748645,10.93441475,9e-08,0.0,0.0,0.0,9e-08,0.0,0.0,0.0,9e-08
1531930563439034824,4220,1531930563437562408,base_link,-0.0221564509215,-0.181308379852,-0.97170839906,-0.149730258377,1.0,0.0,0.0,0.0,1.0,0.0,0.0,0.0,1.0,0.301967859268,0.0168748013675,-0.164512649179,1.21846967915e-07,0.0,0.0,0.0,1.21846967915e-07,0.0,0.0,0.0,1.21846967915e-07,0.4903325,0.22555295,9.2770909,9e-08,0.0,0.0,0.0,9e-08,0.0,0.0,0.0,9e-08
1531930563914784072,4221,1531930563914048456,base_link,-0.0332328050465,-0.25267417306,-0.945324689967,-0.20350079478,1.0,0.0,0.0,0.0,1.0,0.0,0.0,0.0,1.0,0.143958508968,-0.0831601992249,-0.240985065699,1.21846967915e-07,0.0,0.0,0.0,1.21846967915e-07,0.0,0.0,0.0,1.21846967915e-07,0.6080123,0.57859235,9.8262633,9e-08,0.0,0.0,0.0,9e-08,0.0,0.0,0.0,9e-08
1531930564269936296,4222,1531930564269539944,base_link,-0.0450641630487,-0.270392523912,-0.9294277091,-0.247024771589,1.0,0.0,0.0,0.0,1.0,0.0,0.0,0.0,1.0,0.0170809365809,-0.135269701481,-0.249818906188,1.21846967915e-07,0.0,0.0,0.0,1.21846967915e-07,0.0,0.0,0.0,1.21846967915e-07,0.69627215,0.69627215,10.6696352,9e-08,0.0,0.0,0.0,9e-08,0.0,0.0,0.0,9e-08
1531930564640742248,4223,1531930564640519784,base_link,-0.0629165235234,-0.296116100077,-0.904431306093,-0.300600696774,1.0,0.0,0.0,0.0,1.0,0.0,0.0,0.0,1.0,0.34097507596,-0.185559421778,-0.331605345011,1.21846967915e-07,0.0,0.0,0.0,1.21846967915e-07,0.0,0.0,0.0,1.21846967915e-07,0.73549875,0.0980665,9.48303055,9e-08,0.0,0.0,0.0,9e-08,0.0,0.0,0.0,9e-08
1531930565031098600,4224,1531930565030783784,base_link,-0.104929530488,-0.32540984668,-0.869403017199,-0.356702423597,1.0,0.0,0.0,0.0,1.0,0.0,0.0,0.0,1.0,0.00977170653641,-0.277868896723,-0.234652712941,1.21846967915e-07,0.0,0.0,0.0,1.21846967915e-07,0.0,0.0,0.0,1.21846967915e-07,1.20621795,0.46091255,11.79739995,9e-08,0.0,0.0,0.0,9e-08,0.0,0.0,0.0,9e-08
1531930565338127624,4225,1531930565337731848,base_link,-0.138327412148,-0.329285413475,-0.843480835969,-0.401219046,1.0,0.0,0.0,0.0,1.0,0.0,0.0,0.0,1.0,0.0397018529475,-0.308283060789,-0.241352140903,1.21846967915e-07,0.0,0.0,0.0,1.21846967915e-07,0.0,0.0,0.0,1.21846967915e-07,1.65732385,0.67665885,14.1608026,9e-08,0.0,0.0,0.0,9e-08,0.0,0.0,0.0,9e-08
1531930565847854472,4226,1531930565845507784,base_link,-0.166918262048,-0.294069100603,-0.801791151358,-0.492739898394,1.0,0.0,0.0,0.0,1.0,0.0,0.0,0.0,1.0,-0.261187821627,-0.286767929792,-0.359422236681,1.21846967915e-07,0.0,0.0,0.0,1.21846967915e-07,0.0,0.0,0.0,1.21846967915e-07,1.6475172,0.75511205,13.56259695,9e-08,0.0,0.0,0.0,9e-08,0.0,0.0,0.0,9e-08
1531930566198581000,4227,1531930566198331784,base_link,-0.182623722076,-0.256085595626,-0.770420248545,-0.554546106721,1.0,0.0,0.0,0.0,1.0,0.0,0.0,0.0,1.0,0.0735120549798,-0.292770475149,-0.237673684955,1.21846967915e-07,0.0,0.0,0.0,1.21846967915e-07,0.0,0.0,0.0,1.21846967915e-07,1.2748645,0.08825985,14.87668805,9e-08,0.0,0.0,0.0,9e-08,0.0,0.0,0.0,9e-08
1531930566568318504,4228,1531930566567936008,base_link,-0.204199379058,-0.21622491109,-0.741316917192,-0.601663219501,1.0,0.0,0.0,0.0,1.0,0.0,0.0,0.0,1.0,-0.217837065458,-0.276195317507,-0.215999186039,1.21846967915e-07,0.0,0.0,0.0,1.21846967915e-07,0.0,0.0,0.0,1.21846967915e-07,1.1571847,0.38245935,13.6116302,9e-08,0.0,0.0,0.0,9e-08,0.0,0.0,0.0,9e-08
1531930567088306280,4229,1531930567088038184,base_link,-0.193666193674,-0.147147917527,-0.705659766958,-0.665496197654,1.0,0.0,0.0,0.0,1.0,0.0,0.0,0.0,1.0,-0.353410899639,-0.13588064909,-0.229086071253,1.21846967915e-07,0.0,0.0,0.0,1.21846967915e-07,0.0,0.0,0.0,1.21846967915e-07,0.77472535,0.6668522,12.1798593,9e-08,0.0,0.0,0.0,9e-08,0.0,0.0,0.0,9e-08
1531930567407710728,4230,1531930567407229768,base_link,-0.157423720814,-0.0976709253222,-0.686256043911,-0.703371029164,1.0,0.0,0.0,0.0,1.0,0.0,0.0,0.0,1.0,-0.310105711222,-0.0714603364468,-0.194644644856,1.21846967915e-07,0.0,0.0,0.0,1.21846967915e-07,0.0,0.0,0.0,1.21846967915e-07,0.14709975,0.4707192,10.36562905,9e-08,0.0,0.0,0.0,9e-08,0.0,0.0,0.0,9e-08
1531930567823706824,4231,1531930567823429160,base_link,-0.123319259988,-0.0492008627886,-0.669490443553,-0.730858523387,1.0,0.0,0.0,0.0,1.0,0.0,0.0,0.0,1.0,-0.417603820562,-0.0406633280218,-0.0519481487572,1.21846967915e-07,0.0,0.0,0.0,1.21846967915e-07,0.0,0.0,0.0,1.21846967915e-07,0.02941995,0.392266,10.9246081,9e-08,0.0,0.0,0.0,9e-08,0.0,0.0,0.0,9e-08
1531930568256287592,4232,1531930568255833736,base_link,-0.0713558478643,-0.00966211297042,-0.656487174864,-0.750892519464,1.0,0.0,0.0,0.0,1.0,0.0,0.0,0.0,1.0,-0.156099647284,0.0418405085802,-0.105964131653,1.21846967915e-07,0.0,0.0,0.0,1.21846967915e-07,0.0,0.0,0.0,1.21846967915e-07,-0.40207265,0.2745862,8.9240515,9e-08,0.0,0.0,0.0,9e-08,0.0,0.0,0.0,9e-08
1531930568642859208,4233,1531930568642035560,base_link,-0.0405387725776,0.0018552296859,-0.646445929129,-0.7618797981,1.0,0.0,0.0,0.0,1.0,0.0,0.0,0.0,1.0,-0.202742770314,0.0783897638321,-0.0487272813916,1.21846967915e-07,0.0,0.0,0.0,1.21846967915e-07,0.0,0.0,0.0,1.21846967915e-07,-0.5687857,0.1176798,8.237586,9e-08,0.0,0.0,0.0,9e-08,0.0,0.0,0.0,9e-08
1531930568961525384,4234,1531930568961266920,base_link,0.0119394535546,0.0250323710114,-0.639395055071,-0.768378027667,1.0,0.0,0.0,0.0,1.0,0.0,0.0,0.0,1.0,-0.376401752234,0.126683950424,-0.0550292059779,1.21846967915e-07,0.0,0.0,0.0,1.21846967915e-07,0.0,0.0,0.0,1.21846967915e-07,-0.5687857,0.2549729,8.1787461,9e-08,0.0,0.0,0.0,9e-08,0.0,0.0,0.0,9e-08
1531930569439916680,4235,1531930569439643752,base_link,0.08090135368,0.0494749511388,-0.63594659902,-0.765884536583,1.0,0.0,0.0,0.0,1.0,0.0,0.0,0.0,1.0,-0.29506739974,0.10722412169,0.0496725700796,1.21846967915e-07,0.0,0.0,0.0,1.21846967915e-07,0.0,0.0,0.0,1.21846967915e-07,-0.5099458,-0.22555295,8.5317855,9e-08,0.0,0.0,0.0,9e-08,0.0,0.0,0.0,9e-08
1531930569772652776,4236,1531930569772276360,base_link,0.112467181025,0.0493425926824,-0.651362837844,-0.748760906576,1.0,0.0,0.0,0.0,1.0,0.0,0.0,0.0,1.0,-0.107265025377,0.0920790731907,0.155520826578,1.21846967915e-07,0.0,0.0,0.0,1.21846967915e-07,0.0,0.0,0.0,1.21846967915e-07,-0.55897905,-0.10787315,5.5113373,9e-08,0.0,0.0,0.0,9e-08,0.0,0.0,0.0,9e-08
1531930570273705416,4237,1531930570271236744,base_link,0.12987860712,0.0380031393771,-0.67209078311,-0.727998137407,1.0,0.0,0.0,0.0,1.0,0.0,0.0,0.0,1.0,-0.104370571673,0.0505601838231,0.102827452123,1.21846967915e-07,0.0,0.0,0.0,1.21846967915e-07,0.0,0.0,0.0,1.21846967915e-07,-0.4707192,0.0196133,8.1591328,9e-08,0.0,0.0,0.0,9e-08,0.0,0.0,0.0,9e-08
1531930570616089032,4238,1531930570614679496,base_link,0.128533501566,0.0305528212742,-0.681727543499,-0.719578501987,1.0,0.0,0.0,0.0,1.0,0.0,0.0,0.0,1.0,0.0590482018888,0.00236042030156,0.0558451414108,1.21846967915e-07,0.0,0.0,0.0,1.21846967915e-07,0.0,0.0,0.0,1.21846967915e-07,-0.4511059,0.1176798,10.9638347,9e-08,0.0,0.0,0.0,9e-08,0.0,0.0,0.0,9e-08
1531930571009493352,4239,1531930571009132904,base_link,0.115200173709,0.0131896618744,-0.698753822636,-0.705902293628,1.0,0.0,0.0,0.0,1.0,0.0,0.0,0.0,1.0,0.044563729316,0.0385387428105,0.125521406531,1.21846967915e-07,0.0,0.0,0.0,1.21846967915e-07,0.0,0.0,0.0,1.21846967915e-07,-0.20593965,-0.20593965,8.73772515,9e-08,0.0,0.0,0.0,9e-08,0.0,0.0,0.0,9e-08
1531930571347310696,4240,1531930571347004360,base_link,0.0904021433754,-0.00676863856803,-0.716427916907,-0.691746107962,1.0,0.0,0.0,0.0,1.0,0.0,0.0,0.0,1.0,0.230794921517,-0.0809920802712,0.128594502807,1.21846967915e-07,0.0,0.0,0.0,1.21846967915e-07,0.0,0.0,0.0,1.21846967915e-07,-0.16671305,0.04903325,10.1008495,9e-08,0.0,0.0,0.0,9e-08,0.0,0.0,0.0,9e-08
1531930571762474824,4241,1531930571762220264,base_link,0.0679608997374,-0.0204447361821,-0.731266284977,-0.678389968473,1.0,0.0,0.0,0.0,1.0,0.0,0.0,0.0,1.0,0.000599617138505,-0.0315162502229,0.00672024302185,1.21846967915e-07,0.0,0.0,0.0,1.21846967915e-07,0.0,0.0,0.0,1.21846967915e-07,0.06864655,0.6472389,10.6107953,9e-08,0.0,0.0,0.0,9e-08,0.0,0.0,0.0,9e-08
1531930572211856584,4242,1531930572211321480,base_link,0.0362073915279,-0.0424047997123,-0.71350346591,-0.698429425136,1.0,0.0,0.0,0.0,1.0,0.0,0.0,0.0,1.0,0.229364722967,-0.0463342741132,-0.115308657289,1.21846967915e-07,0.0,0.0,0.0,1.21846967915e-07,0.0,0.0,0.0,1.21846967915e-07,0.24516625,0.0980665,10.50292215,9e-08,0.0,0.0,0.0,9e-08,0.0,0.0,0.0,9e-08
1531930572728064104,4243,1531930572727587144,base_link,-0.0140272239869,-0.0581514958426,-0.703826902031,-0.707848382421,1.0,0.0,0.0,0.0,1.0,0.0,0.0,0.0,1.0,0.0327394604683,-0.0942478477955,0.0445442162454,1.21846967915e-07,0.0,0.0,0.0,1.21846967915e-07,0.0,0.0,0.0,1.21846967915e-07,0.34323275,-0.10787315,12.56231865,9e-08,0.0,0.0,0.0,9e-08,0.0,0.0,0.0,9e-08
1531930573100401640,4244,1531930573100160968,base_link,-0.0204830069271,-0.038186895995,-0.715587769431,-0.697177417622,1.0,0.0,0.0,0.0,1.0,0.0,0.0,0.0,1.0,-0.0414611510932,-0.0491372793913,0.0776958763599,1.21846967915e-07,0.0,0.0,0.0,1.21846967915e-07,0.0,0.0,0.0,1.21846967915e-07,0.38245935,0.6276256,11.8464332,9e-08,0.0,0.0,0.0,9e-08,0.0,0.0,0.0,9e-08
1531930573541263400,4245,1531930573540971976,base_link,-0.0258867517159,-0.0310999067156,-0.709721274547,-0.703319546396,1.0,0.0,0.0,0.0,1.0,0.0,0.0,0.0,1.0,0.215785562992,0.0232701208442,-0.153441682458,1.21846967915e-07,0.0,0.0,0.0,1.21846967915e-07,0.0,0.0,0.0,1.21846967915e-07,0.38245935,0.5295591,9.5712904,9e-08,0.0,0.0,0.0,9e-08,0.0,0.0,0.0,9e-08
1531930574011262376,4246,1531930574010435208,base_link,-0.0113964782248,-0.0171205714725,-0.685564166254,-0.727721636524,1.0,0.0,0.0,0.0,1.0,0.0,0.0,0.0,1.0,-0.0725357234478,-0.0212055351585,-0.0828888490796,1.21846967915e-07,0.0,0.0,0.0,1.21846967915e-07,0.0,0.0,0.0,1.21846967915e-07,0.0980665,-0.1765197,10.75789505,9e-08,0.0,0.0,0.0,9e-08,0.0,0.0,0.0,9e-08
1531930574353913704,4247,1531930574353541640,base_link,-0.0170844689643,-0.0165430217594,-0.683614894092,-0.729455362532,1.0,0.0,0.0,0.0,1.0,0.0,0.0,0.0,1.0,0.293336689472,-0.0498340800405,-0.0275588165969,1.21846967915e-07,0.0,0.0,0.0,1.21846967915e-07,0.0,0.0,0.0,1.21846967915e-07,-0.0784532,-0.0588399,10.0420096,9e-08,0.0,0.0,0.0,9e-08,0.0,0.0,0.0,9e-08
1531930574824599976,4248,1531930574824208552,base_link,-0.0354689385525,-0.017486907152,-0.694923816282,-0.717995161572,1.0,0.0,0.0,0.0,1.0,0.0,0.0,0.0,1.0,-0.171169757843,5.13717532158e-05,-0.0109848920256,1.21846967915e-07,0.0,0.0,0.0,1.21846967915e-07,0.0,0.0,0.0,1.21846967915e-07,0.2353596,0.44129925,10.2773692,9e-08,0.0,0.0,0.0,9e-08,0.0,0.0,0.0,9e-08
1531930575266351560,4249,1531930575265919592,base_link,-0.0351031814487,-0.0136053591405,-0.679734499942,-0.732491413222,1.0,0.0,0.0,0.0,1.0,0.0,0.0,0.0,1.0,0.122727587819,-0.0189893264323,-0.0792119652033,1.21846967915e-07,0.0,0.0,0.0,1.21846967915e-07,0.0,0.0,0.0,1.21846967915e-07,0.2353596,0.16671305,9.32612415,9e-08,0.0,0.0,0.0,9e-08,0.0,0.0,0.0,9e-08
1531930575653754376,4250,1531930575653511560,base_link,-0.0571050508407,-0.0298540608836,-0.66956087944,-0.739956739912,1.0,0.0,0.0,0.0,1.0,0.0,0.0,0.0,1.0,0.0698819309473,-0.0164336040616,-0.0906634628773,1.21846967915e-07,0.0,0.0,0.0,1.21846967915e-07,0.0,0.0,0.0,1.21846967915e-07,0.22555295,0.0980665,9.8851032,9e-08,0.0,0.0,0.0,9e-08,0.0,0.0,0.0,9e-08
1531930575970407592,4251,1531930575970189576,base_link,-0.091327760182,-0.0583724567477,-0.655997603077,-0.746939784234,1.0,0.0,0.0,0.0,1.0,0.0,0.0,0.0,1.0,0.312365353107,0.00375282205641,-0.0851870030165,1.21846967915e-07,0.0,0.0,0.0,1.21846967915e-07,0.0,0.0,0.0,1.21846967915e-07,0.20593965,0.18632635,11.20900095,9e-08,0.0,0.0,0.0,9e-08,0.0,0.0,0.0,9e-08
1531930576301267912,4252,1531930576299244872,base_link,-0.109061162798,-0.0774818873658,-0.639052124517,-0.757439503887,1.0,0.0,0.0,0.0,1.0,0.0,0.0,0.0,1.0,0.202582553029,-0.00872423872352,-0.152910172939,1.21846967915e-07,0.0,0.0,0.0,1.21846967915e-07,0.0,0.0,0.0,1.21846967915e-07,0.0392266,0.10787315,10.2773692,9e-08,0.0,0.0,0.0,9e-08,0.0,0.0,0.0,9e-08
1531930576755623688,4253,1531930576755179176,base_link,-0.162715301389,-0.124785591124,-0.607659944652,-0.767268974094,1.0,0.0,0.0,0.0,1.0,0.0,0.0,0.0,1.0,0.28717237711,-0.0180500522256,-0.151071205735,1.21846967915e-07,0.0,0.0,0.0,1.21846967915e-07,0.0,0.0,0.0,1.21846967915e-07,0.3726527,0.4118793,9.1005712,9e-08,0.0,0.0,0.0,9e-08,0.0,0.0,0.0,9e-08
1531930577126511624,4254,1531930577126273704,base_link,-0.181137935103,-0.153048411886,-0.568586594531,-0.787702048116,1.0,0.0,0.0,0.0,1.0,0.0,0.0,0.0,1.0,-0.0218720398843,0.00680290907621,-0.334627270699,1.21846967915e-07,0.0,0.0,0.0,1.21846967915e-07,0.0,0.0,0.0,1.21846967915e-07,0.4118793,0.57859235,6.7862018,9e-08,0.0,0.0,0.0,9e-08,0.0,0.0,0.0,9e-08
1531930577494014248,4255,1531930577493626504,base_link,-0.189465552338,-0.166191884684,-0.5143037756,-0.819740622604,1.0,0.0,0.0,0.0,1.0,0.0,0.0,0.0,1.0,0.131388261914,-0.111183166504,-0.297827720642,1.21846967915e-07,0.0,0.0,0.0,1.21846967915e-07,0.0,0.0,0.0,1.21846967915e-07,0.3138128,0.3334261,7.46286065,9e-08,0.0,0.0,0.0,9e-08,0.0,0.0,0.0,9e-08
1531930577933239912,4256,1531930577933028328,base_link,-0.223759375587,-0.166364386044,-0.46356769764,-0.841046742219,1.0,0.0,0.0,0.0,1.0,0.0,0.0,0.0,1.0,0.359058767557,-0.132693275809,-0.228171989322,1.21846967915e-07,0.0,0.0,0.0,1.21846967915e-07,0.0,0.0,0.0,1.21846967915e-07,0.59820565,0.61781895,10.6107953,9e-08,0.0,0.0,0.0,9e-08,0.0,0.0,0.0,9e-08
1531930578303488488,4257,1531930578302959304,base_link,-0.267009436521,-0.159828262657,-0.411649915787,-0.856565954318,1.0,0.0,0.0,0.0,1.0,0.0,0.0,0.0,1.0,0.0049964543432,-0.217682659626,-0.207379668951,1.21846967915e-07,0.0,0.0,0.0,1.21846967915e-07,0.0,0.0,0.0,1.21846967915e-07,0.85317855,0.63743225,12.5721253,9e-08,0.0,0.0,0.0,9e-08,0.0,0.0,0.0,9e-08
1531930578718937640,4258,1531930578718746088,base_link,-0.294836613168,-0.135543644755,-0.355714393929,-0.876451117778,1.0,0.0,0.0,0.0,1.0,0.0,0.0,0.0,1.0,-0.068844601512,-0.265311121941,-0.263190448284,1.21846967915e-07,0.0,0.0,0.0,1.21846967915e-07,0.0,0.0,0.0,1.21846967915e-07,1.6082906,0.50013915,12.95458465,9e-08,0.0,0.0,0.0,9e-08,0.0,0.0,0.0,9e-08
1531930579105254792,4259,1531930579104868840,base_link,-0.302254029858,-0.107126592687,-0.287459394342,-0.902515091939,1.0,0.0,0.0,0.0,1.0,0.0,0.0,0.0,1.0,-0.046205766499,-0.275684058666,-0.312358319759,1.21846967915e-07,0.0,0.0,0.0,1.21846967915e-07,0.0,0.0,0.0,1.21846967915e-07,1.89268345,0.6668522,13.2782041,9e-08,0.0,0.0,0.0,9e-08,0.0,0.0,0.0,9e-08
1531930579480861544,4260,1531930579480242088,base_link,-0.318346297313,-0.0817857354698,-0.219391633493,-0.918604397776,1.0,0.0,0.0,0.0,1.0,0.0,0.0,0.0,1.0,0.18991266191,-0.254420369864,-0.321936488152,1.21846967915e-07,0.0,0.0,0.0,1.21846967915e-07,0.0,0.0,0.0,1.21846967915e-07,2.1182364,0.77472535,13.91563635,9e-08,0.0,0.0,0.0,9e-08,0.0,0.0,0.0,9e-08
1531930579876126312,4261,1531930579874253736,base_link,-0.321682792961,-0.0482953194193,-0.142131972716,-0.9348723149,1.0,0.0,0.0,0.0,1.0,0.0,0.0,0.0,1.0,-0.15677267313,-0.308691561222,-0.331587165594,1.21846967915e-07,0.0,0.0,0.0,1.21846967915e-07,0.0,0.0,0.0,1.21846967915e-07,2.46146915,0.784532,15.2003075,9e-08,0.0,0.0,0.0,9e-08,0.0,0.0,0.0,9e-08
1531930580348137608,4262,1531930580347759240,base_link,-0.304405594173,0.0070298414108,-0.0639194008975,-0.950369468025,1.0,0.0,0.0,0.0,1.0,0.0,0.0,0.0,1.0,-0.325490385294,-0.341068595648,-0.206181779504,1.21846967915e-07,0.0,0.0,0.0,1.21846967915e-07,0.0,0.0,0.0,1.21846967915e-07,1.75539035,0.53936575,15.0237878,9e-08,0.0,0.0,0.0,9e-08,0.0,0.0,0.0,9e-08
1531930580643583560,4263,1531930580642967272,base_link,-0.266836794179,0.0376186764464,-0.0193882405563,-0.962812056729,1.0,0.0,0.0,0.0,1.0,0.0,0.0,0.0,1.0,-0.357869029045,-0.24271799624,-0.256993860006,1.21846967915e-07,0.0,0.0,0.0,1.21846967915e-07,0.0,0.0,0.0,1.21846967915e-07,1.1964113,0.67665885,14.48442205,9e-08,0.0,0.0,0.0,9e-08,0.0,0.0,0.0,9e-08
1531930581052894152,4264,1531930581052462600,base_link,-0.190576139291,0.0720622606984,0.0319472204273,-0.97850249914,1.0,0.0,0.0,0.0,1.0,0.0,0.0,0.0,1.0,-0.351902753115,-0.203813418746,-0.0818119049072,1.21846967915e-07,0.0,0.0,0.0,1.21846967915e-07,0.0,0.0,0.0,1.21846967915e-07,0.7453054,0.1569064,14.99436785,9e-08,0.0,0.0,0.0,9e-08,0.0,0.0,0.0,9e-08
1531930581407802984,4265,1531930581407183048,base_link,-0.0960285247107,0.083459579365,0.0511690526316,-0.99055274928,1.0,0.0,0.0,0.0,1.0,0.0,0.0,0.0,1.0,-0.825784862041,0.044159181416,-0.0873067528009,1.21846967915e-07,0.0,0.0,0.0,1.21846967915e-07,0.0,0.0,0.0,1.21846967915e-07,0.02941995,0.73549875,10.8265416,9e-08,0.0,0.0,0.0,9e-08,0.0,0.0,0.0,9e-08
1531930581745052392,4266,1531930581744700232,base_link,0.0153451116302,0.0621656665233,0.0806266637608,-0.994685527464,1.0,0.0,0.0,0.0,1.0,0.0,0.0,0.0,1.0,-0.609074473381,0.113584019244,-0.138843014836,1.21846967915e-07,0.0,0.0,0.0,1.21846967915e-07,0.0,0.0,0.0,1.21846967915e-07,-0.196133,0.4903325,7.8060934,9e-08,0.0,0.0,0.0,9e-08,0.0,0.0,0.0,9e-08
1531930582156429448,4267,1531930582156181928,base_link,0.101295766361,0.0327403193675,0.105423793747,-0.988712831371,1.0,0.0,0.0,0.0,1.0,0.0,0.0,0.0,1.0,-0.239958941936,0.0856881588697,0.000233577098697,1.21846967915e-07,0.0,0.0,0.0,1.21846967915e-07,0.0,0.0,0.0,1.21846967915e-07,-0.44129925,-0.20593965,8.67888525,9e-08,0.0,0.0,0.0,9e-08,0.0,0.0,0.0,9e-08
1531930582589283688,4268,1531930582588979912,base_link,0.122931130507,0.00693545083233,0.0808181638329,-0.989094667395,1.0,0.0,0.0,0.0,1.0,0.0,0.0,0.0,1.0,0.217905387282,0.0939043536782,0.138762906194,1.21846967915e-07,0.0,0.0,0.0,1.21846967915e-07,0.0,0.0,0.0,1.21846967915e-07,-0.48052585,0.2353596,6.97252815,9e-08,0.0,0.0,0.0,9e-08,0.0,0.0,0.0,9e-08
1531930583011195944,4269,1531930583010908424,base_link,0.123412292547,-0.0241812510831,0.073639810901,-0.989323936532,1.0,0.0,0.0,0.0,1.0,0.0,0.0,0.0,1.0,0.0472133979201,0.158642560244,0.0267830546945,1.21846967915e-07,0.0,0.0,0.0,1.21846967915e-07,0.0,0.0,0.0,1.21846967915e-07,-0.75511205,0.18632635,6.89407495,9e-08,0.0,0.0,0.0,9e-08,0.0,0.0,0.0,9e-08
1531930583414228424,4270,1531930583413736712,base_link,0.10772458147,-0.0539414636778,0.0590996835489,-0.990955579452,1.0,0.0,0.0,0.0,1.0,0.0,0.0,0.0,1.0,-0.00027987267822,0.140760093927,0.16599200666,1.21846967915e-07,0.0,0.0,0.0,1.21846967915e-07,0.0,0.0,0.0,1.21846967915e-07,-0.63743225,0.1176798,7.2176944,9e-08,0.0,0.0,0.0,9e-08,0.0,0.0,0.0,9e-08
1531930583746866952,4271,1531930583746541512,base_link,0.127403252371,-0.0799954073967,0.0361797176579,-0.987957577081,1.0,0.0,0.0,0.0,1.0,0.0,0.0,0.0,1.0,-0.19343842566,0.160616666079,0.0640229731798,1.21846967915e-07,0.0,0.0,0.0,1.21846967915e-07,0.0,0.0,0.0,1.21846967915e-07,-0.85317855,-0.0392266,6.3743225,9e-08,0.0,0.0,0.0,9e-08,0.0,0.0,0.0,9e-08
1531930584093156136,4272,1531930584092782088,base_link,0.0905375027764,-0.0973369221877,0.0232295645613,-0.990852598271,1.0,0.0,0.0,0.0,1.0,0.0,0.0,0.0,1.0,0.367974728346,0.0711894035339,0.213512301445,1.21846967915e-07,0.0,0.0,0.0,1.21846967915e-07,0.0,0.0,0.0,1.21846967915e-07,-0.71588545,-0.08825985,10.2773692,9e-08,0.0,0.0,0.0,9e-08,0.0,0.0,0.0,9e-08
1531930584497120616,4273,1531930584496244776,base_link,0.0789152858475,-0.114484997548,-0.0181002589022,-0.990120166254,1.0,0.0,0.0,0.0,1.0,0.0,0.0,0.0,1.0,-0.102311141789,0.0866053029895,0.12236622721,1.21846967915e-07,0.0,0.0,0.0,1.21846967915e-07,0.0,0.0,0.0,1.21846967915e-07,-1.0591182,0.6472389,7.5903471,9e-08,0.0,0.0,0.0,9e-08,0.0,0.0,0.0,9e-08
1531930584976023432,4274,1531930584975198856,base_link,0.0692355762056,-0.11923777615,-0.015636460514,-0.990325344939,1.0,0.0,0.0,0.0,1.0,0.0,0.0,0.0,1.0,-0.0802747532725,-0.00549359247088,-0.0519986487925,1.21846967915e-07,0.0,0.0,0.0,1.21846967915e-07,0.0,0.0,0.0,1.21846967915e-07,-1.0983448,0.04903325,10.30678915,9e-08,0.0,0.0,0.0,9e-08,0.0,0.0,0.0,9e-08
1531930585309485736,4275,1531930585308086984,base_link,0.0839573590823,-0.118423962264,-0.03921371784,-0.988629966848,1.0,0.0,0.0,0.0,1.0,0.0,0.0,0.0,1.0,-0.0343763902783,-0.0673550739884,0.308303236961,1.21846967915e-07,0.0,0.0,0.0,1.21846967915e-07,0.0,0.0,0.0,1.21846967915e-07,-0.89240515,-1.1375714,5.0798447,9e-08,0.0,0.0,0.0,9e-08,0.0,0.0,0.0,9e-08
1531930585654399528,4276,1531930585644366728,base_link,0.055122215569,-0.111595191437,-0.104677712798,-0.986686693455,1.0,0.0,0.0,0.0,1.0,0.0,0.0,0.0,1.0,0.0466801896691,-0.101492390037,0.398710995913,1.21846967915e-07,0.0,0.0,0.0,1.21846967915e-07,0.0,0.0,0.0,1.21846967915e-07,-0.7060788,0.06864655,11.0226746,9e-08,0.0,0.0,0.0,9e-08,0.0,0.0,0.0,9e-08
1531930585947342280,4277,1531930585947123400,base_link,0.06972756977,-0.0950238624522,-0.135134222174,-0.983792291887,1.0,0.0,0.0,0.0,1.0,0.0,0.0,0.0,1.0,-0.125911131501,-0.0715349838138,-0.0485885329545,1.21846967915e-07,0.0,0.0,0.0,1.21846967915e-07,0.0,0.0,0.0,1.21846967915e-07,-0.50013915,0.85317855,12.8074849,9e-08,0.0,0.0,0.0,9e-08,0.0,0.0,0.0,9e-08
1531930586472622152,4278,1531930586472297928,base_link,0.016230016756,-0.0739110176797,-0.101151700116,-0.99198895235,1.0,0.0,0.0,0.0,1.0,0.0,0.0,0.0,1.0,0.390157699585,-0.105070412159,-0.126246333122,1.21846967915e-07,0.0,0.0,0.0,1.21846967915e-07,0.0,0.0,0.0,1.21846967915e-07,-0.4511059,0.2353596,11.4933938,9e-08,0.0,0.0,0.0,9e-08,0.0,0.0,0.0,9e-08
1531930586907336488,4279,1531930586906951400,base_link,-0.0520598524537,-0.0495902722771,-0.0936175147669,-0.993008729864,1.0,0.0,0.0,0.0,1.0,0.0,0.0,0.0,1.0,0.1827082932,-0.149348571897,0.110933065414,1.21846967915e-07,0.0,0.0,0.0,1.21846967915e-07,0.0,0.0,0.0,1.21846967915e-07,-0.1372931,-0.14709975,12.1798593,9e-08,0.0,0.0,0.0,9e-08,0.0,0.0,0.0,9e-08
1531930587350470184,4280,1531930587349144296,base_link,-0.0772376348179,-0.0282911248295,-0.107540004384,-0.990792161596,1.0,0.0,0.0,0.0,1.0,0.0,0.0,0.0,1.0,0.126240476966,-0.033712439239,-0.0875519886613,1.21846967915e-07,0.0,0.0,0.0,1.21846967915e-07,0.0,0.0,0.0,1.21846967915e-07,-0.196133,0.77472535,11.2972608,9e-08,0.0,0.0,0.0,9e-08,0.0,0.0,0.0,9e-08
1531930587745739144,4281,1531930587745428328,base_link,-0.0709485627423,-0.0212714700689,-0.0765894715677,-0.994307738505,1.0,0.0,0.0,0.0,1.0,0.0,0.0,0.0,1.0,-0.0554745979607,-0.0027680080384,-0.152674511075,1.21846967915e-07,0.0,0.0,0.0,1.21846967915e-07,0.0,0.0,0.0,1.21846967915e-07,-0.24516625,0.06864655,10.46369555,9e-08,0.0,0.0,0.0,9e-08,0.0,0.0,0.0,9e-08
1531930588352389864,4282,1531930588352076360,base_link,-0.0611495989398,-0.0157408134811,-0.0579988570278,-0.996317763529,1.0,0.0,0.0,0.0,1.0,0.0,0.0,0.0,1.0,-0.145856738091,-0.0267023798078,-0.0280553624034,1.21846967915e-07,0.0,0.0,0.0,1.21846967915e-07,0.0,0.0,0.0,1.21846967915e-07,-0.4118793,0.32361945,8.73772515,9e-08,0.0,0.0,0.0,9e-08,0.0,0.0,0.0,9e-08
1531930588648436872,4283,1531930588648181960,base_link,-0.0396511243503,-0.0153615051282,-0.0529665995053,-0.997690509043,1.0,0.0,0.0,0.0,1.0,0.0,0.0,0.0,1.0,-0.24077065289,0.0194613039494,-0.0418764427304,1.21846967915e-07,0.0,0.0,0.0,1.21846967915e-07,0.0,0.0,0.0,1.21846967915e-07,-0.16671305,0.14709975,9.5124505,9e-08,0.0,0.0,0.0,9e-08,0.0,0.0,0.0,9e-08
1531930589025117544,4284,1531930589024819304,base_link,-0.00341705661735,-0.0163997157038,-0.0460961031886,-0.998796536998,1.0,0.0,0.0,0.0,1.0,0.0,0.0,0.0,1.0,-0.161390587687,0.0232626777142,-0.0329674184322,1.21846967915e-07,0.0,0.0,0.0,1.21846967915e-07,0.0,0.0,0.0,1.21846967915e-07,-0.0784532,0.14709975,10.32640245,9e-08,0.0,0.0,0.0,9e-08,0.0,0.0,0.0,9e-08
1531930589351685096,4285,1531930589351470600,base_link,0.0163384032121,-0.0191493957255,-0.0443574522405,-0.998698539928,1.0,0.0,0.0,0.0,1.0,0.0,0.0,0.0,1.0,-0.112119175494,0.0225431136787,0.00913315080106,1.21846967915e-07,0.0,0.0,0.0,1.21846967915e-07,0.0,0.0,0.0,1.21846967915e-07,-0.1176798,1.34628541193e-15,10.99325465,9e-08,0.0,0.0,0.0,9e-08,0.0,0.0,0.0,9e-08
1531930589738717384,4286,1531930589738411496,base_link,0.0217611055376,-0.0234795965021,-0.0559387411627,-0.9979208486,1.0,0.0,0.0,0.0,1.0,0.0,0.0,0.0,1.0,-0.131115466356,0.0354294553399,0.117828302085,1.21846967915e-07,0.0,0.0,0.0,1.21846967915e-07,0.0,0.0,0.0,1.21846967915e-07,-0.2941995,1.13251306285e-15,9.24767095,9e-08,0.0,0.0,0.0,9e-08,0.0,0.0,0.0,9e-08
1531930590167099656,4287,1531930590166847112,base_link,0.0327460461328,-0.0288894370515,-0.0689753479642,-0.996662178606,1.0,0.0,0.0,0.0,1.0,0.0,0.0,0.0,1.0,-0.13163729012,0.0439671091735,0.0126802716404,1.21846967915e-07,0.0,0.0,0.0,1.21846967915e-07,0.0,0.0,0.0,1.21846967915e-07,-0.4118793,0.34323275,9.22805765,9e-08,0.0,0.0,0.0,9e-08,0.0,0.0,0.0,9e-08
1531930590608071656,4288,1531930590607536872,base_link,0.0375851404415,-0.0385590053405,-0.0604422280596,-0.9967182638,1.0,0.0,0.0,0.0,1.0,0.0,0.0,0.0,1.0,0.244366288185,0.0784186944366,-0.0636245235801,1.21846967915e-07,0.0,0.0,0.0,1.21846967915e-07,0.0,0.0,0.0,1.21846967915e-07,-0.30400615,0.14709975,7.50208725,9e-08,0.0,0.0,0.0,9e-08,0.0,0.0,0.0,9e-08
1531930591061024936,4289,1531930591060696648,base_link,0.0351660042419,-0.0478601225674,-0.0475890714196,-0.997099815011,1.0,0.0,0.0,0.0,1.0,0.0,0.0,0.0,1.0,-0.0584192872047,0.00624858029187,-0.0148910582066,1.21846967915e-07,0.0,0.0,0.0,1.21846967915e-07,0.0,0.0,0.0,1.21846967915e-07,-0.36284605,0.04903325,9.4536106,9e-08,0.0,0.0,0.0,9e-08,0.0,0.0,0.0,9e-08
1531930591457335880,4290,1531930591456894472,base_link,0.035870466562,-0.0402915411561,-0.0541361734274,-0.997075311131,1.0,0.0,0.0,0.0,1.0,0.0,0.0,0.0,1.0,0.230087280273,-0.0856563821435,0.0552760735154,1.21846967915e-07,0.0,0.0,0.0,1.21846967915e-07,0.0,0.0,0.0,1.21846967915e-07,0.12748645,-0.63743225,13.85679645,9e-08,0.0,0.0,0.0,9e-08,0.0,0.0,0.0,9e-08
1531930591807150344,4291,1531930591806908008,base_link,-0.00992310949714,-0.0291904257866,-0.0827999311774,-0.996089163849,1.0,0.0,0.0,0.0,1.0,0.0,0.0,0.0,1.0,0.134469866753,-0.0265417136252,0.160268440843,1.21846967915e-07,0.0,0.0,0.0,1.21846967915e-07,0.0,0.0,0.0,1.21846967915e-07,0.24516625,0.12748645,11.40513395,9e-08,0.0,0.0,0.0,9e-08,0.0,0.0,0.0,9e-08
1531930592150881544,4292,1531930592149426088,base_link,-0.00365484443632,-0.0221007414267,-0.0888041288666,-0.995797181175,1.0,0.0,0.0,0.0,1.0,0.0,0.0,0.0,1.0,-0.0741837024689,-0.0119275022298,-0.0711055845022,1.21846967915e-07,0.0,0.0,0.0,1.21846967915e-07,0.0,0.0,0.0,1.21846967915e-07,0.20593965,0.16671305,9.6889702,9e-08,0.0,0.0,0.0,9e-08,0.0,0.0,0.0,9e-08
1531930592531684424,4293,1531930592531441704,base_link,0.00104091662448,-0.0174662772117,-0.0720180075689,-0.997249844442,1.0,0.0,0.0,0.0,1.0,0.0,0.0,0.0,1.0,-0.0409956872463,-0.0225029420108,-0.0736492499709,1.21846967915e-07,0.0,0.0,0.0,1.21846967915e-07,0.0,0.0,0.0,1.21846967915e-07,0.04903325,0.3530394,10.1793027,9e-08,0.0,0.0,0.0,9e-08,0.0,0.0,0.0,9e-08
1531930592885818120,4294,1531930592885511336,base_link,-0.0143363837226,-0.0117167210824,-0.0718885975594,-0.997240801457,1.0,0.0,0.0,0.0,1.0,0.0,0.0,0.0,1.0,0.176131904125,-0.0403209254146,0.102730438113,1.21846967915e-07,0.0,0.0,0.0,1.21846967915e-07,0.0,0.0,0.0,1.21846967915e-07,0.2549729,-0.42168595,10.56176205,9e-08,0.0,0.0,0.0,9e-08,0.0,0.0,0.0,9e-08
1531930593242983752,4295,1531930593242454696,base_link,-0.0332208950232,-0.00908629351275,-0.0886580637158,-0.995466503275,1.0,0.0,0.0,0.0,1.0,0.0,0.0,0.0,1.0,-0.00866737216711,0.0173436757177,0.0080188754946,1.21846967915e-07,0.0,0.0,0.0,1.21846967915e-07,0.0,0.0,0.0,1.21846967915e-07,0.0588399,0.48052585,10.3558224,9e-08,0.0,0.0,0.0,9e-08,0.0,0.0,0.0,9e-08
1531930593644520040,4296,1531930593644114088,base_link,-0.0234476050219,-0.01027215947,-0.07322649317,-0.996986746781,1.0,0.0,0.0,0.0,1.0,0.0,0.0,0.0,1.0,-0.0876459106803,0.0072270296514,-0.0740893706679,1.21846967915e-07,0.0,0.0,0.0,1.21846967915e-07,0.0,0.0,0.0,1.21846967915e-07,0.1176798,0.55897905,11.22861425,9e-08,0.0,0.0,0.0,9e-08,0.0,0.0,0.0,9e-08
1531930593905279976,4297,1531930593905034536,base_link,-0.0202254403331,-0.0146196253427,-0.0594049315794,-0.997921967001,1.0,0.0,0.0,0.0,1.0,0.0,0.0,0.0,1.0,-0.0292948409915,0.0366901122034,-0.110722735524,1.21846967915e-07,0.0,0.0,0.0,1.21846967915e-07,0.0,0.0,0.0,1.21846967915e-07,-0.1372931,-0.04903325,9.07115125,9e-08,0.0,0.0,0.0,9e-08,0.0,0.0,0.0,9e-08
1531930594298999848,4298,1531930594298736360,base_link,-0.0164211271468,-0.0192833733594,-0.0513683605053,-0.998358547634,1.0,0.0,0.0,0.0,1.0,0.0,0.0,0.0,1.0,-0.0856923311949,0.021598784253,-0.00822320766747,1.21846967915e-07,0.0,0.0,0.0,1.21846967915e-07,0.0,0.0,0.0,1.21846967915e-07,0.04903325,0.02941995,8.48275225,9e-08,0.0,0.0,0.0,9e-08,0.0,0.0,0.0,9e-08
1531930594657023720,4299,1531930594655048072,base_link,-0.0139308378355,-0.0226235603615,-0.0487579995342,-0.998457191749,1.0,0.0,0.0,0.0,1.0,0.0,0.0,0.0,1.0,0.0325405038893,0.0538882166147,-0.0340412966907,1.21846967915e-07,0.0,0.0,0.0,1.21846967915e-07,0.0,0.0,0.0,1.21846967915e-07,0.1176798,0.32361945,8.629852,9e-08,0.0,0.0,0.0,9e-08,0.0,0.0,0.0,9e-08
1531930595015643336,4300,1531930595015052808,base_link,-0.0132861203007,-0.0262705094438,-0.0324380338012,-0.999040095944,1.0,0.0,0.0,0.0,1.0,0.0,0.0,0.0,1.0,0.0803328156471,0.00727142952383,-0.105615377426,1.21846967915e-07,0.0,0.0,0.0,1.21846967915e-07,0.0,0.0,0.0,1.21846967915e-07,0.14709975,0.1176798,10.01258965,9e-08,0.0,0.0,0.0,9e-08,0.0,0.0,0.0,9e-08
1531930595467825608,4301,1531930595467505768,base_link,-0.0337729381892,-0.0269391555982,-0.0191749928504,-0.998882370548,1.0,0.0,0.0,0.0,1.0,0.0,0.0,0.0,1.0,0.108648568392,0.0124218352139,-0.00597877148539,1.21846967915e-07,0.0,0.0,0.0,1.21846967915e-07,0.0,0.0,0.0,1.21846967915e-07,0.0980665,-0.2549729,8.0806796,9e-08,0.0,0.0,0.0,9e-08,0.0,0.0,0.0,9e-08
1531930595840944264,4302,1531930595840538408,base_link,-0.105917113946,-0.0209009032099,-0.0252116081454,-0.993835545769,1.0,0.0,0.0,0.0,1.0,0.0,0.0,0.0,1.0,0.653670012951,-0.0101604014635,0.0651364997029,1.21846967915e-07,0.0,0.0,0.0,1.21846967915e-07,0.0,0.0,0.0,1.21846967915e-07,0.36284605,0.91201845,10.9442214,9e-08,0.0,0.0,0.0,9e-08,0.0,0.0,0.0,9e-08
1531930596208687560,4303,1531930596208011752,base_link,-0.129414537697,-0.0203430338038,-0.00361723673791,-0.991375284142,1.0,0.0,0.0,0.0,1.0,0.0,0.0,0.0,1.0,0.0186379514635,0.0215470921248,-0.260088741779,1.21846967915e-07,0.0,0.0,0.0,1.21846967915e-07,0.0,0.0,0.0,1.21846967915e-07,0.392266,0.9218251,11.2972608,9e-08,0.0,0.0,0.0,9e-08,0.0,0.0,0.0,9e-08
1531930596549753608,4304,1531930596549415912,base_link,-0.1811806907,-0.0256953302102,0.0510592235019,-0.981787279923,1.0,0.0,0.0,0.0,1.0,0.0,0.0,0.0,1.0,0.560949146748,-0.0603604987264,-0.302193284035,1.21846967915e-07,0.0,0.0,0.0,1.21846967915e-07,0.0,0.0,0.0,1.21846967915e-07,0.08825985,0.08825985,8.52197885,9e-08,0.0,0.0,0.0,9e-08,0.0,0.0,0.0,9e-08
1531930596961930856,4305,1531930596958287144,base_link,-0.304692158344,0.00213394582128,0.0850078232471,-0.948647355399,1.0,0.0,0.0,0.0,1.0,0.0,0.0,0.0,1.0,0.534541010857,-0.143367111683,0.00835574325174,1.21846967915e-07,0.0,0.0,0.0,1.21846967915e-07,0.0,0.0,0.0,1.21846967915e-07,0.5687857,-0.1372931,11.6503002,9e-08,0.0,0.0,0.0,9e-08,0.0,0.0,0.0,9e-08
1531930597346701992,4306,1531930597346116264,base_link,-0.343843978815,0.0214982477673,0.126884778082,-0.93016632742,1.0,0.0,0.0,0.0,1.0,0.0,0.0,0.0,1.0,0.0850806683302,-0.152644202113,-0.424988925457,1.21846967915e-07,0.0,0.0,0.0,1.21846967915e-07,0.0,0.0,0.0,1.21846967915e-07,0.7256921,1.0591182,9.99297635,9e-08,0.0,0.0,0.0,9e-08,0.0,0.0,0.0,9e-08
1531930597768832712,4307,1531930597768287240,base_link,-0.3724478001,0.0503392153015,0.225555269163,-0.898817790298,1.0,0.0,0.0,0.0,1.0,0.0,0.0,0.0,1.0,0.151675611734,-0.348977416754,-0.267051815987,1.21846967915e-07,0.0,0.0,0.0,1.21846967915e-07,0.0,0.0,0.0,1.21846967915e-07,1.2552512,0.0196133,12.7094184,9e-08,0.0,0.0,0.0,9e-08,0.0,0.0,0.0,9e-08
1531930598086014664,4308,1531930598083860296,base_link,-0.374545325161,0.0908781309538,0.269235028872,-0.882592467645,1.0,0.0,0.0,0.0,1.0,0.0,0.0,0.0,1.0,0.0554891787469,-0.365829110146,-0.16409830749,1.21846967915e-07,0.0,0.0,0.0,1.21846967915e-07,0.0,0.0,0.0,1.21846967915e-07,1.65732385,0.22555295,14.71978165,9e-08,0.0,0.0,0.0,9e-08,0.0,0.0,0.0,9e-08
1531930598576970024,4309,1531930598576514632,base_link,-0.365202476796,0.144540073731,0.364418530766,-0.844354459017,1.0,0.0,0.0,0.0,1.0,0.0,0.0,0.0,1.0,0.0240780804306,-0.314097166061,-0.463018208742,1.21846967915e-07,0.0,0.0,0.0,1.21846967915e-07,0.0,0.0,0.0,1.21846967915e-07,1.79461695,1.24544455,12.5132854,9e-08,0.0,0.0,0.0,9e-08,0.0,0.0,0.0,9e-08
1531930599008078184,4310,1531930599007683176,base_link,-0.3390411647,0.182006896665,0.456606673355,-0.802143954695,1.0,0.0,0.0,0.0,1.0,0.0,0.0,0.0,1.0,0.0167268756777,-0.437062501907,-0.242282927036,1.21846967915e-07,0.0,0.0,0.0,1.21846967915e-07,0.0,0.0,0.0,1.21846967915e-07,2.0593965,0.06864655,16.3378789,9e-08,0.0,0.0,0.0,9e-08,0.0,0.0,0.0,9e-08
1531930599411988584,4311,1531930599411686632,base_link,-0.306527131838,0.236605970368,0.522326723383,-0.759758860609,1.0,0.0,0.0,0.0,1.0,0.0,0.0,0.0,1.0,-0.05059819296,-0.377270936966,-0.28081202507,1.21846967915e-07,0.0,0.0,0.0,1.21846967915e-07,0.0,0.0,0.0,1.21846967915e-07,2.0790098,0.59820565,15.4356671,9e-08,0.0,0.0,0.0,9e-08,0.0,0.0,0.0,9e-08
1531930599671031208,4312,1531930599670669544,base_link,-0.283743148196,0.254018708463,0.569419956459,-0.728508911949,1.0,0.0,0.0,0.0,1.0,0.0,0.0,0.0,1.0,-0.0617150813341,-0.331258356571,-0.325164854527,1.21846967915e-07,0.0,0.0,0.0,1.21846967915e-07,0.0,0.0,0.0,1.21846967915e-07,1.87307015,0.83356525,15.2787607,9e-08,0.0,0.0,0.0,9e-08,0.0,0.0,0.0,9e-08
1531930599976877544,4313,1531930599976472840,base_link,-0.23904431567,0.247987086793,0.634872590247,-0.691590206758,1.0,0.0,0.0,0.0,1.0,0.0,0.0,0.0,1.0,-0.366689950228,-0.330480992794,-0.362559556961,1.21846967915e-07,0.0,0.0,0.0,1.21846967915e-07,0.0,0.0,0.0,1.21846967915e-07,1.77500365,0.71588545,15.1610809,9e-08,0.0,0.0,0.0,9e-08,0.0,0.0,0.0,9e-08
1531930600253806472,4314,1531930600253579944,base_link,0.199375416653,-0.25600663574,-0.67687210175,0.660722486044,1.0,0.0,0.0,0.0,1.0,0.0,0.0,0.0,1.0,-0.29834240675,-0.345114469528,-0.206547141075,1.21846967915e-07,0.0,0.0,0.0,1.21846967915e-07,0.0,0.0,0.0,1.21846967915e-07,0.97085835,0.5491724,20.1820857,9e-08,0.0,0.0,0.0,9e-08,0.0,0.0,0.0,9e-08
1531930600632962664,4315,1531930600630070408,base_link,0.143584410305,-0.251710265007,-0.718098063583,0.632740571392,1.0,0.0,0.0,0.0,1.0,0.0,0.0,0.0,1.0,-0.440950900316,-0.137751743197,-0.241196125746,1.21846967915e-07,0.0,0.0,0.0,1.21846967915e-07,0.0,0.0,0.0,1.21846967915e-07,0.5491724,0.7256921,11.64049355,9e-08,0.0,0.0,0.0,9e-08,0.0,0.0,0.0,9e-08
1531930601011427016,4316,1531930601010541032,base_link,0.0821167856718,-0.19633851916,-0.768067316661,0.603970708298,1.0,0.0,0.0,0.0,1.0,0.0,0.0,0.0,1.0,-0.398998379707,-0.0713900774717,-0.148012444377,1.21846967915e-07,0.0,0.0,0.0,1.21846967915e-07,0.0,0.0,0.0,1.21846967915e-07,-0.38245935,0.57859235,10.7677017,9e-08,0.0,0.0,0.0,9e-08,0.0,0.0,0.0,9e-08
1531930601445029288,4317,1531930601444688072,base_link,0.0315903453883,-0.123879840878,-0.804970389565,0.579377689445,1.0,0.0,0.0,0.0,1.0,0.0,0.0,0.0,1.0,-0.48246589303,-0.0103203542531,-0.175304323435,1.21846967915e-07,0.0,0.0,0.0,1.21846967915e-07,0.0,0.0,0.0,1.21846967915e-07,-0.5687857,0.2157463,8.30623255,9e-08,0.0,0.0,0.0,9e-08,0.0,0.0,0.0,9e-08
1531930601749027976,4318,1531930601748342664,base_link,-0.00889217970356,-0.0470170083756,-0.824805379006,0.563388335721,1.0,0.0,0.0,0.0,1.0,0.0,0.0,0.0,1.0,-0.565584242344,0.111761413515,-0.109816931188,1.21846967915e-07,0.0,0.0,0.0,1.21846967915e-07,0.0,0.0,0.0,1.21846967915e-07,-0.8041453,0.0588399,10.1400761,9e-08,0.0,0.0,0.0,9e-08,0.0,0.0,0.0,9e-08
1531930602174751432,4319,1531930602174269320,base_link,-0.0335634787327,0.0266509953441,-0.832421768693,0.552482774708,1.0,0.0,0.0,0.0,1.0,0.0,0.0,0.0,1.0,-0.346050053835,0.126528576016,-0.0164973028004,1.21846967915e-07,0.0,0.0,0.0,1.21846967915e-07,0.0,0.0,0.0,1.21846967915e-07,-1.01008495,-0.04903325,6.77639515,9e-08,0.0,0.0,0.0,9e-08,0.0,0.0,0.0,9e-08
1531930602576290952,4320,1531930602573724008,base_link,-0.0478191812308,0.0957947990435,-0.82607354935,0.553298448802,1.0,0.0,0.0,0.0,1.0,0.0,0.0,0.0,1.0,-0.0923549607396,0.117832101882,0.0320481210947,1.21846967915e-07,0.0,0.0,0.0,1.21846967915e-07,0.0,0.0,0.0,1.21846967915e-07,-1.1179581,0.196133,6.30567595,9e-08,0.0,0.0,0.0,9e-08,0.0,0.0,0.0,9e-08
1531930602971623592,4321,1531930602961895976,base_link,-0.0343570642836,0.124846979191,-0.820715727379,0.556469692574,1.0,0.0,0.0,0.0,1.0,0.0,0.0,0.0,1.0,-0.08720895648,0.153558790684,0.0620120614767,1.21846967915e-07,0.0,0.0,0.0,1.21846967915e-07,0.0,0.0,0.0,1.21846967915e-07,-1.2356379,0.00980665,6.54103555,9e-08,0.0,0.0,0.0,9e-08,0.0,0.0,0.0,9e-08
1531930603308262568,4322,1531930603304474120,base_link,-0.0174112336868,0.143980203781,-0.80834947671,0.570559088407,1.0,0.0,0.0,0.0,1.0,0.0,0.0,0.0,1.0,-0.00264929141849,0.112719722092,0.132861614227,1.21846967915e-07,0.0,0.0,0.0,1.21846967915e-07,0.0,0.0,0.0,1.21846967915e-07,-1.0983448,-0.18632635,6.52142225,9e-08,0.0,0.0,0.0,9e-08,0.0,0.0,0.0,9e-08
1531930603733162536,4323,1531930603732365800,base_link,0.00571829387906,0.148993172406,-0.792999653319,0.590694409596,1.0,0.0,0.0,0.0,1.0,0.0,0.0,0.0,1.0,-0.161460995674,0.0603964775801,0.0741536766291,1.21846967915e-07,0.0,0.0,0.0,1.21846967915e-07,0.0,0.0,0.0,1.21846967915e-07,-1.26505785,0.5687857,8.3552658,9e-08,0.0,0.0,0.0,9e-08,0.0,0.0,0.0,9e-08
1531930604116872808,4324,1531930604116427208,base_link,0.00504629282141,0.162678124373,-0.784560221897,0.598310639213,1.0,0.0,0.0,0.0,1.0,0.0,0.0,0.0,1.0,0.0860637128353,0.0595140568912,0.114959172904,1.21846967915e-07,0.0,0.0,0.0,1.21846967915e-07,0.0,0.0,0.0,1.21846967915e-07,-1.0983448,-0.40207265,8.4533323,9e-08,0.0,0.0,0.0,9e-08,0.0,0.0,0.0,9e-08
1531930604407738376,4325,1531930604407026888,base_link,0.0204493204214,0.146314320249,-0.771900113265,0.618339841937,1.0,0.0,0.0,0.0,1.0,0.0,0.0,0.0,1.0,-0.0855769664049,-0.0420162081718,0.182328164577,1.21846967915e-07,0.0,0.0,0.0,1.21846967915e-07,0.0,0.0,0.0,1.21846967915e-07,-0.83356525,0.02941995,8.3552658,9e-08,0.0,0.0,0.0,9e-08,0.0,0.0,0.0,9e-08
1531930604918012008,4326,1531930604917606312,base_link,0.000338778214806,0.15401216858,-0.742203939323,0.652237264815,1.0,0.0,0.0,0.0,1.0,0.0,0.0,0.0,1.0,-0.143288120627,-0.0840853527188,0.0929504260421,1.21846967915e-07,0.0,0.0,0.0,1.21846967915e-07,0.0,0.0,0.0,1.21846967915e-07,-0.99047165,0.20593965,10.4931155,9e-08,0.0,0.0,0.0,9e-08,0.0,0.0,0.0,9e-08
1531930605346108840,4327,1531930605345762024,base_link,-0.0212819575857,0.140587207142,-0.723385503381,0.675644676563,1.0,0.0,0.0,0.0,1.0,0.0,0.0,0.0,1.0,0.060963306576,-0.147134140134,0.204665496945,1.21846967915e-07,0.0,0.0,0.0,1.21846967915e-07,0.0,0.0,0.0,1.21846967915e-07,-0.4118793,-0.24516625,13.6312435,9e-08,0.0,0.0,0.0,9e-08,0.0,0.0,0.0,9e-08
1531930605700609480,4328,1531930605700272840,base_link,-0.0168717023252,0.103560349365,-0.709985479125,0.696355669993,1.0,0.0,0.0,0.0,1.0,0.0,0.0,0.0,1.0,0.206827789545,-0.120860628784,0.0156887061894,1.21846967915e-07,0.0,0.0,0.0,1.21846967915e-07,0.0,0.0,0.0,1.21846967915e-07,-0.75511205,0.4314926,11.62088025,9e-08,0.0,0.0,0.0,9e-08,0.0,0.0,0.0,9e-08
1531930606004191368,4329,1531930606002214216,base_link,0.00471157228763,0.0533944519748,-0.71620068769,0.69583288837,1.0,0.0,0.0,0.0,1.0,0.0,0.0,0.0,1.0,0.295142024755,-0.0723267644644,-0.038689173758,1.21846967915e-07,0.0,0.0,0.0,1.21846967915e-07,0.0,0.0,0.0,1.21846967915e-07,-0.3530394,0.04903325,11.85623985,9e-08,0.0,0.0,0.0,9e-08,0.0,0.0,0.0,9e-08
1531930606362195976,4330,1531930606361717224,base_link,0.0616605007989,-0.0283877348381,-0.726529022982,0.68377459584,1.0,0.0,0.0,0.0,1.0,0.0,0.0,0.0,1.0,0.844444870949,-0.0489548742771,-0.111715950072,1.21846967915e-07,0.0,0.0,0.0,1.21846967915e-07,0.0,0.0,0.0,1.21846967915e-07,-0.2941995,-0.0196133,10.32640245,9e-08,0.0,0.0,0.0,9e-08,0.0,0.0,0.0,9e-08
1531930606740258344,4331,1531930606734524072,base_link,0.156196062196,-0.146724021667,-0.717526905355,0.662744288329,1.0,0.0,0.0,0.0,1.0,0.0,0.0,0.0,1.0,0.614249169827,-0.0623714998364,-0.0058762091212,1.21846967915e-07,0.0,0.0,0.0,1.21846967915e-07,0.0,0.0,0.0,1.21846967915e-07,-0.22555295,0.1569064,10.7088618,9e-08,0.0,0.0,0.0,9e-08,0.0,0.0,0.0,9e-08
1531930607217711720,4332,1531930607217102504,base_link,0.213975173678,-0.23245857687,-0.722144610342,0.615373705031,1.0,0.0,0.0,0.0,1.0,0.0,0.0,0.0,1.0,0.413264125586,-0.121853686869,-0.306374043226,1.21846967915e-07,0.0,0.0,0.0,1.21846967915e-07,0.0,0.0,0.0,1.21846967915e-07,0.0,0.3334261,9.65955025,9e-08,0.0,0.0,0.0,9e-08,0.0,0.0,0.0,9e-08
1531930607542607688,4333,1531930607540630376,base_link,0.229329874871,-0.26916757955,-0.744015975575,0.566918733771,1.0,0.0,0.0,0.0,1.0,0.0,0.0,0.0,1.0,0.153362900019,-0.217382505536,-0.282670378685,1.21846967915e-07,0.0,0.0,0.0,1.21846967915e-07,0.0,0.0,0.0,1.21846967915e-07,0.4118793,0.67665885,10.44408225,9e-08,0.0,0.0,0.0,9e-08,0.0,0.0,0.0,9e-08
1531930607990193128,4334,1531930607987579944,base_link,0.223224995577,-0.300378138777,-0.787177040007,0.490199839638,1.0,0.0,0.0,0.0,1.0,0.0,0.0,0.0,1.0,-0.163224861026,-0.259767889977,-0.370577931404,1.21846967915e-07,0.0,0.0,0.0,1.21846967915e-07,0.0,0.0,0.0,1.21846967915e-07,0.97085835,0.85317855,10.8069283,9e-08,0.0,0.0,0.0,9e-08,0.0,0.0,0.0,9e-08
1531930608476023784,4335,1531930608474542120,base_link,0.197330057321,-0.331477677368,-0.836027901818,0.390180400925,1.0,0.0,0.0,0.0,1.0,0.0,0.0,0.0,1.0,0.00340959988534,-0.366615504026,-0.298304826021,1.21846967915e-07,0.0,0.0,0.0,1.21846967915e-07,0.0,0.0,0.0,1.21846967915e-07,1.3533177,0.2745862,15.2199208,9e-08,0.0,0.0,0.0,9e-08,0.0,0.0,0.0,9e-08
1531930608829706536,4336,1531930608829365384,base_link,0.137648521998,-0.328898806101,-0.874049073225,0.330025267718,1.0,0.0,0.0,0.0,1.0,0.0,0.0,0.0,1.0,-0.118524581194,-0.435833930969,-0.186505585909,1.21846967915e-07,0.0,0.0,0.0,1.21846967915e-07,0.0,0.0,0.0,1.21846967915e-07,2.157463,0.2157463,19.2798739,9e-08,0.0,0.0,0.0,9e-08,0.0,0.0,0.0,9e-08
1531930609278219464,4337,1531930609276572456,base_link,0.075574571853,-0.352394040119,-0.896965729122,0.256045709509,1.0,0.0,0.0,0.0,1.0,0.0,0.0,0.0,1.0,-0.0657253488898,-0.335548877716,-0.224842607975,1.21846967915e-07,0.0,0.0,0.0,1.21846967915e-07,0.0,0.0,0.0,1.21846967915e-07,1.8044236,0.36284605,15.70044665,9e-08,0.0,0.0,0.0,9e-08,0.0,0.0,0.0,9e-08
1531930609678232168,4338,1531930609675868264,base_link,0.032398296212,-0.361294911037,-0.914180500445,0.180804729663,1.0,0.0,0.0,0.0,1.0,0.0,0.0,0.0,1.0,0.199690431356,-0.361451148987,-0.316615641117,1.21846967915e-07,0.0,0.0,0.0,1.21846967915e-07,0.0,0.0,0.0,1.21846967915e-07,1.44157755,0.4118793,17.19105745,9e-08,0.0,0.0,0.0,9e-08,0.0,0.0,0.0,9e-08
1531930610080688296,4339,1531930610080246216,base_link,-0.0151471576451,-0.386708387674,-0.914887158583,0.114928993636,1.0,0.0,0.0,0.0,1.0,0.0,0.0,0.0,1.0,0.112896561623,-0.351928979158,-0.191924989223,1.21846967915e-07,0.0,0.0,0.0,1.21846967915e-07,0.0,0.0,0.0,1.21846967915e-07,1.63771055,0.2941995,15.4748937,9e-08,0.0,0.0,0.0,9e-08,0.0,0.0,0.0,9e-08
1531930610499595720,4340,1531930610499214856,base_link,-0.0481577121126,-0.365665934066,-0.928522886354,0.0425970532434,1.0,0.0,0.0,0.0,1.0,0.0,0.0,0.0,1.0,-0.227419272065,-0.160925239325,-0.287791579962,1.21846967915e-07,0.0,0.0,0.0,1.21846967915e-07,0.0,0.0,0.0,1.21846967915e-07,1.02969825,1.36312435,12.2583125,9e-08,0.0,0.0,0.0,9e-08,0.0,0.0,0.0,9e-08
1531930610844630184,4341,1531930610844276072,base_link,-0.0484598533103,-0.315670715786,-0.947257603393,-0.0265833524345,1.0,0.0,0.0,0.0,1.0,0.0,0.0,0.0,1.0,-0.529396414757,-0.157701641321,-0.307758808136,1.21846967915e-07,0.0,0.0,0.0,1.21846967915e-07,0.0,0.0,0.0,1.21846967915e-07,0.24516625,0.6276256,11.4149406,9e-08,0.0,0.0,0.0,9e-08,0.0,0.0,0.0,9e-08
1531930611155243592,4342,1531930611154917896,base_link,-0.0440561356102,-0.246070703752,-0.964226665757,-0.0881771099128,1.0,0.0,0.0,0.0,1.0,0.0,0.0,0.0,1.0,-0.380971461535,-0.108526006341,-0.343621432781,1.21846967915e-07,0.0,0.0,0.0,1.21846967915e-07,0.0,0.0,0.0,1.21846967915e-07,-0.16671305,0.4118793,7.649187,9e-08,0.0,0.0,0.0,9e-08,0.0,0.0,0.0,9e-08
1531930611433548904,4343,1531930611433213256,base_link,-0.0489702176694,-0.212783752097,-0.968017228298,-0.123562285281,1.0,0.0,0.0,0.0,1.0,0.0,0.0,0.0,1.0,-0.292033970356,-0.0955199450254,-0.123288318515,1.21846967915e-07,0.0,0.0,0.0,1.21846967915e-07,0.0,0.0,0.0,1.21846967915e-07,-0.4314926,0.2157463,10.198916,9e-08,0.0,0.0,0.0,9e-08,0.0,0.0,0.0,9e-08
1531930611812322280,4344,1531930611812019880,base_link,-0.0475590207096,-0.136535970778,-0.978094081388,-0.149759928506,1.0,0.0,0.0,0.0,1.0,0.0,0.0,0.0,1.0,-0.497423619032,0.00112598575652,-0.127389982343,1.21846967915e-07,0.0,0.0,0.0,1.21846967915e-07,0.0,0.0,0.0,1.21846967915e-07,-0.69627215,0.34323275,10.48330885,9e-08,0.0,0.0,0.0,9e-08,0.0,0.0,0.0,9e-08
1531930612119163976,4345,1531930612118761320,base_link,-0.0339107359263,-0.0702376823512,-0.981322883663,-0.175846887851,1.0,0.0,0.0,0.0,1.0,0.0,0.0,0.0,1.0,-0.418558001518,0.0479535236955,-0.152559310198,1.21846967915e-07,0.0,0.0,0.0,1.21846967915e-07,0.0,0.0,0.0,1.21846967915e-07,-0.71588545,0.3530394,9.77723005,9e-08,0.0,0.0,0.0,9e-08,0.0,0.0,0.0,9e-08
1531930612713884264,4346,1531930612713247560,base_link,0.00577913627015,0.0234470653083,-0.977692809524,-0.208647087009,1.0,0.0,0.0,0.0,1.0,0.0,0.0,0.0,1.0,-0.0746444910765,0.111332885921,-0.0685811340809,1.21846967915e-07,0.0,0.0,0.0,1.21846967915e-07,0.0,0.0,0.0,1.21846967915e-07,-0.980665,0.0784532,6.3743225,9e-08,0.0,0.0,0.0,9e-08,0.0,0.0,0.0,9e-08
1531930613063386696,4347,1531930613062949352,base_link,0.0248676375988,0.0415704182262,-0.97827283167,-0.201583153427,1.0,0.0,0.0,0.0,1.0,0.0,0.0,0.0,1.0,-0.276828736067,0.14239962399,0.10250133276,1.21846967915e-07,0.0,0.0,0.0,1.21846967915e-07,0.0,0.0,0.0,1.21846967915e-07,-1.01008495,0.30400615,8.041453,9e-08,0.0,0.0,0.0,9e-08,0.0,0.0,0.0,9e-08
1531930613434088296,4348,1531930613433666024,base_link,0.0562263826928,0.0935686566399,-0.975943990186,-0.188724212555,1.0,0.0,0.0,0.0,1.0,0.0,0.0,0.0,1.0,-0.289097815752,0.113608516753,0.0494121536613,1.21846967915e-07,0.0,0.0,0.0,1.21846967915e-07,0.0,0.0,0.0,1.21846967915e-07,-1.2944778,0.196133,8.18855275,9e-08,0.0,0.0,0.0,9e-08,0.0,0.0,0.0,9e-08
1531930613829663560,4349,1531930613829314568,base_link,0.0776340252802,0.103783076558,-0.973612016444,-0.187834162427,1.0,0.0,0.0,0.0,1.0,0.0,0.0,0.0,1.0,-0.0819704160094,0.0993156135082,0.0466269254684,1.21846967915e-07,0.0,0.0,0.0,1.21846967915e-07,0.0,0.0,0.0,1.21846967915e-07,-1.1375714,0.06864655,7.9629998,9e-08,0.0,0.0,0.0,9e-08,0.0,0.0,0.0,9e-08
1531930614222295496,4350,1531930614222052552,base_link,0.0918938186029,0.0782104987133,-0.975783620988,-0.182441686587,1.0,0.0,0.0,0.0,1.0,0.0,0.0,0.0,1.0,0.0802476927638,0.0667891353369,-0.00394685100764,1.21846967915e-07,0.0,0.0,0.0,1.21846967915e-07,0.0,0.0,0.0,1.21846967915e-07,-1.04931155,0.1176798,6.3350959,9e-08,0.0,0.0,0.0,9e-08,0.0,0.0,0.0,9e-08
1531930614567373896,4351,1531930614565742024,base_link,0.0961620811128,0.0652340684899,-0.978253561327,-0.171806112274,1.0,0.0,0.0,0.0,1.0,0.0,0.0,0.0,1.0,0.0492561683059,0.0498556345701,0.136502444744,1.21846967915e-07,0.0,0.0,0.0,1.21846967915e-07,0.0,0.0,0.0,1.21846967915e-07,-1.1179581,-0.38245935,9.95374975,9e-08,0.0,0.0,0.0,9e-08,0.0,0.0,0.0,9e-08
1531930614814065960,4352,1531930614806179336,base_link,0.10089431098,0.0622486708589,-0.981598746305,-0.149697502455,1.0,0.0,0.0,0.0,1.0,0.0,0.0,0.0,1.0,-0.0737879797816,0.0259476508945,0.186043173075,1.21846967915e-07,0.0,0.0,0.0,1.21846967915e-07,0.0,0.0,0.0,1.21846967915e-07,-1.04931155,0.0980665,9.24767095,9e-08,0.0,0.0,0.0,9e-08,0.0,0.0,0.0,9e-08
1531930615314164904,4353,1531930615312972456,base_link,0.101560188737,0.0608716288088,-0.985047112338,-0.125149348157,1.0,0.0,0.0,0.0,1.0,0.0,0.0,0.0,1.0,0.239789292216,-0.0476328358054,0.0289557334036,1.21846967915e-07,0.0,0.0,0.0,1.21846967915e-07,0.0,0.0,0.0,1.21846967915e-07,-0.6276256,0.16671305,10.75789505,9e-08,0.0,0.0,0.0,9e-08,0.0,0.0,0.0,9e-08
1531930615658896488,4354,1531930615658429928,base_link,0.0973835792148,0.0385693326135,-0.987747633854,-0.115686891642,1.0,0.0,0.0,0.0,1.0,0.0,0.0,0.0,1.0,-0.0804926753044,-0.021715959534,0.0683993771672,1.21846967915e-07,0.0,0.0,0.0,1.21846967915e-07,0.0,0.0,0.0,1.21846967915e-07,-0.8433719,0.10787315,8.54159215,9e-08,0.0,0.0,0.0,9e-08,0.0,0.0,0.0,9e-08
1531930616124461000,4355,1531930616123389000,base_link,0.0929296675078,0.0739929719193,-0.986925638638,-0.108935305582,1.0,0.0,0.0,0.0,1.0,0.0,0.0,0.0,1.0,-0.166251271963,-0.0422982648015,-0.0304443761706,1.21846967915e-07,0.0,0.0,0.0,1.21846967915e-07,0.0,0.0,0.0,1.21846967915e-07,-0.4707192,-0.0588399,10.7088618,9e-08,0.0,0.0,0.0,9e-08,0.0,0.0,0.0,9e-08
1531930616496537704,4356,1531930616496151944,base_link,0.0810646283443,0.057050133605,-0.988941500903,-0.110310997088,1.0,0.0,0.0,0.0,1.0,0.0,0.0,0.0,1.0,0.0640059188008,-0.0327929668128,0.00722063239664,1.21846967915e-07,0.0,0.0,0.0,1.21846967915e-07,0.0,0.0,0.0,1.21846967915e-07,-0.4707192,1.07006271368e-15,8.73772515,9e-08,0.0,0.0,0.0,9e-08,0.0,0.0,0.0,9e-08
1531930616908706696,4357,1531930616904500808,base_link,0.0642980526858,0.0236201013916,-0.99279907024,-0.0982743983028,1.0,0.0,0.0,0.0,1.0,0.0,0.0,0.0,1.0,0.143691956997,-0.0813172385097,0.145452991128,1.21846967915e-07,0.0,0.0,0.0,1.21846967915e-07,0.0,0.0,0.0,1.21846967915e-07,-0.196133,-0.26477955,11.22861425,9e-08,0.0,0.0,0.0,9e-08,0.0,0.0,0.0,9e-08
1531930617214836904,4358,1531930617212252648,base_link,0.0517494850884,0.0149162233664,-0.995216497468,-0.0815084059584,1.0,0.0,0.0,0.0,1.0,0.0,0.0,0.0,1.0,-0.0257953349501,-0.0422217547894,0.0520429834723,1.21846967915e-07,0.0,0.0,0.0,1.21846967915e-07,0.0,0.0,0.0,1.21846967915e-07,-0.30400615,0.55897905,12.0425662,9e-08,0.0,0.0,0.0,9e-08,0.0,0.0,0.0,9e-08
1531930617545017992,4359,1531930617544770728,base_link,0.0445381338673,0.0258842011233,-0.994763290165,-0.0882743411374,1.0,0.0,0.0,0.0,1.0,0.0,0.0,0.0,1.0,-0.0353893376887,-0.05890417099,-0.125357165933,1.21846967915e-07,0.0,0.0,0.0,1.21846967915e-07,0.0,0.0,0.0,1.21846967915e-07,-0.2549729,0.6276256,10.30678915,9e-08,0.0,0.0,0.0,9e-08,0.0,0.0,0.0,9e-08
1531930617911750280,4360,1531930617911391592,base_link,0.0247934499467,-0.00376991500626,-0.995826389818,-0.0877546233647,1.0,0.0,0.0,0.0,1.0,0.0,0.0,0.0,1.0,0.149337559938,-0.115452669561,0.185887008905,1.21846967915e-07,0.0,0.0,0.0,1.21846967915e-07,0.0,0.0,0.0,1.21846967915e-07,-0.0588399,-0.53936575,15.32779395,9e-08,0.0,0.0,0.0,9e-08,0.0,0.0,0.0,9e-08
1531930618321730024,4361,1531930618321008552,base_link,0.0184419306261,-0.0306153107125,-0.998219895522,-0.0477455561201,1.0,0.0,0.0,0.0,1.0,0.0,0.0,0.0,1.0,-0.16588139534,0.0606915540993,0.037019636482,1.21846967915e-07,0.0,0.0,0.0,1.21846967915e-07,0.0,0.0,0.0,1.21846967915e-07,-0.0392266,0.8629852,9.7085835,9e-08,0.0,0.0,0.0,9e-08,0.0,0.0,0.0,9e-08
1531930618655084808,4362,1531930618654138536,base_link,0.0274393118391,-0.0238158508655,-0.996916855618,-0.0695461889583,1.0,0.0,0.0,0.0,1.0,0.0,0.0,0.0,1.0,0.338746517897,-0.0174415055662,-0.168972864747,1.21846967915e-07,0.0,0.0,0.0,1.21846967915e-07,0.0,0.0,0.0,1.21846967915e-07,-0.63743225,-0.4118793,12.38579895,9e-08,0.0,0.0,0.0,9e-08,0.0,0.0,0.0,9e-08
1531930619022143048,4363,1531930619021925640,base_link,0.0209417588016,-0.0455390296034,-0.997028034009,-0.058504178672,1.0,0.0,0.0,0.0,1.0,0.0,0.0,0.0,1.0,-0.250475049019,-0.0512784421444,0.252381265163,1.21846967915e-07,0.0,0.0,0.0,1.21846967915e-07,0.0,0.0,0.0,1.21846967915e-07,-0.63743225,-0.30400615,10.65982855,9e-08,0.0,0.0,0.0,9e-08,0.0,0.0,0.0,9e-08
1531930619428778760,4364,1531930619428460808,base_link,0.022581860051,0.00575996221032,-0.999423354777,-0.0246949459944,1.0,0.0,0.0,0.0,1.0,0.0,0.0,0.0,1.0,-0.309729456902,0.128430530429,-0.035032235086,1.21846967915e-07,0.0,0.0,0.0,1.21846967915e-07,0.0,0.0,0.0,1.21846967915e-07,-0.7256921,0.9218251,9.50264385,9e-08,0.0,0.0,0.0,9e-08,0.0,0.0,0.0,9e-08
1531930619924654664,4365,1531930619919419080,base_link,0.0514516296021,0.0435839528169,-0.994520433474,-0.0798891498888,1.0,0.0,0.0,0.0,1.0,0.0,0.0,0.0,1.0,0.24135825038,0.107789449394,-0.247097328305,1.21846967915e-07,0.0,0.0,0.0,1.21846967915e-07,0.0,0.0,0.0,1.21846967915e-07,-0.63743225,-0.392266,5.687857,9e-08,0.0,0.0,0.0,9e-08,0.0,0.0,0.0,9e-08
1531930620346511464,4366,1531930620346022632,base_link,0.0592226811641,0.00184634591573,-0.995501292119,-0.0739353936318,1.0,0.0,0.0,0.0,1.0,0.0,0.0,0.0,1.0,0.215041130781,0.0561065897346,0.249839916825,1.21846967915e-07,0.0,0.0,0.0,1.21846967915e-07,0.0,0.0,0.0,1.21846967915e-07,-0.6668522,-0.12748645,8.38468575,9e-08,0.0,0.0,0.0,9e-08,0.0,0.0,0.0,9e-08
1531930620761272776,4367,1531930620760933384,base_link,0.0579946362415,-0.0097480119634,-0.997097680453,-0.0483509468848,1.0,0.0,0.0,0.0,1.0,0.0,0.0,0.0,1.0,0.179133087397,-0.0122260656208,0.0541936606169,1.21846967915e-07,0.0,0.0,0.0,1.21846967915e-07,0.0,0.0,0.0,1.21846967915e-07,-0.588399,-0.0196133,7.1196279,9e-08,0.0,0.0,0.0,9e-08,0.0,0.0,0.0,9e-08
1531930621056601256,4368,1531930621056355848,base_link,0.0566015450939,0.000691747516598,-0.997542880151,-0.0412793996748,1.0,0.0,0.0,0.0,1.0,0.0,0.0,0.0,1.0,-0.157483577728,0.00693966913968,-0.0443829894066,1.21846967915e-07,0.0,0.0,0.0,1.21846967915e-07,0.0,0.0,0.0,1.21846967915e-07,-0.6668522,0.67665885,8.67888525,9e-08,0.0,0.0,0.0,9e-08,0.0,0.0,0.0,9e-08
1531930621357066728,4369,1531930621356692136,base_link,0.0512375560638,0.0109176729725,-0.997113442761,-0.0549572518578,1.0,0.0,0.0,0.0,1.0,0.0,0.0,0.0,1.0,0.0291673280299,-0.0489071011543,-0.0878250971437,1.21846967915e-07,0.0,0.0,0.0,1.21846967915e-07,0.0,0.0,0.0,1.21846967915e-07,-0.59820565,0.2157463,9.58109705,9e-08,0.0,0.0,0.0,9e-08,0.0,0.0,0.0,9e-08
1531930621780450344,4370,1531930621780139880,base_link,0.0264973639634,-0.071016838168,-0.99570595693,-0.0531426921945,1.0,0.0,0.0,0.0,1.0,0.0,0.0,0.0,1.0,-0.0463300198317,-0.0887941122055,0.224099814892,1.21846967915e-07,0.0,0.0,0.0,1.21846967915e-07,0.0,0.0,0.0,1.21846967915e-07,-0.00980665,0.06864655,10.50292215,9e-08,0.0,0.0,0.0,9e-08,0.0,0.0,0.0,9e-08
1531930622066483432,4371,1531930622065947912,base_link,0.0191681567839,-0.0246871224658,-0.99881854161,-0.0372108678358,1.0,0.0,0.0,0.0,1.0,0.0,0.0,0.0,1.0,-0.410682886839,-0.0169106312096,-0.0519131757319,1.21846967915e-07,0.0,0.0,0.0,1.21846967915e-07,0.0,0.0,0.0,1.21846967915e-07,0.1569064,0.87279185,11.54242705,9e-08,0.0,0.0,0.0,9e-08,0.0,0.0,0.0,9e-08
1531930622511669960,4372,1531930622511321480,base_link,0.0153728351643,0.0173584808678,-0.99696111235,-0.0743700177709,1.0,0.0,0.0,0.0,1.0,0.0,0.0,0.0,1.0,0.037630263716,-0.0600163415074,-0.124996706843,1.21846967915e-07,0.0,0.0,0.0,1.21846967915e-07,0.0,0.0,0.0,1.21846967915e-07,0.5295591,-0.10787315,10.7480884,9e-08,0.0,0.0,0.0,9e-08,0.0,0.0,0.0,9e-08
1531930622912373608,4373,1531930622911962184,base_link,-0.0012850085654,0.0352142122277,-0.997696963799,-0.0579575399443,1.0,0.0,0.0,0.0,1.0,0.0,0.0,0.0,1.0,-0.135558247566,-0.123357817531,0.233502030373,1.21846967915e-07,0.0,0.0,0.0,1.21846967915e-07,0.0,0.0,0.0,1.21846967915e-07,0.59820565,-0.16671305,14.6315218,9e-08,0.0,0.0,0.0,9e-08,0.0,0.0,0.0,9e-08
1531930623312227560,4374,1531930623311610184,base_link,-0.0153809811352,0.0560975428085,-0.997595662082,-0.037674740944,1.0,0.0,0.0,0.0,1.0,0.0,0.0,0.0,1.0,0.0164158996195,-0.0590068995953,-0.0704941526055,1.21846967915e-07,0.0,0.0,0.0,1.21846967915e-07,0.0,0.0,0.0,1.21846967915e-07,0.57859235,-0.3726527,10.2773692,9e-08,0.0,0.0,0.0,9e-08,0.0,0.0,0.0,9e-08
1531930623653087464,4375,1531930623651909800,base_link,-0.0242381707498,0.037239829833,-0.99894145997,-0.011902340371,1.0,0.0,0.0,0.0,1.0,0.0,0.0,0.0,1.0,0.108404017985,-0.0132342148572,0.284983098507,1.21846967915e-07,0.0,0.0,0.0,1.21846967915e-07,0.0,0.0,0.0,1.21846967915e-07,0.2353596,-0.32361945,10.198916,9e-08,0.0,0.0,0.0,9e-08,0.0,0.0,0.0,9e-08
1531930624119077544,4376,1531930624118801992,base_link,-0.0130061243169,0.0246786445129,-0.998821757494,-0.0397102252777,1.0,0.0,0.0,0.0,1.0,0.0,0.0,0.0,1.0,0.342616528273,0.0476256422698,-0.184275180101,1.21846967915e-07,0.0,0.0,0.0,1.21846967915e-07,0.0,0.0,0.0,1.21846967915e-07,-0.12748645,-0.0392266,7.5903471,9e-08,0.0,0.0,0.0,9e-08,0.0,0.0,0.0,9e-08
1531930624417243464,4377,1531930624416926344,base_link,-0.012953680408,-0.0365027136461,-0.998000185302,-0.0499538206446,1.0,0.0,0.0,0.0,1.0,0.0,0.0,0.0,1.0,0.523697912693,0.0294329822063,0.0284330658615,1.21846967915e-07,0.0,0.0,0.0,1.21846967915e-07,0.0,0.0,0.0,1.21846967915e-07,-0.22555295,-0.48052585,7.12943455,9e-08,0.0,0.0,0.0,9e-08,0.0,0.0,0.0,9e-08
1531930624691345672,4378,1531930624691120552,base_link,-0.0144131102466,-0.0884414101713,-0.995424356739,-0.0331772396452,1.0,0.0,0.0,0.0,1.0,0.0,0.0,0.0,1.0,0.27534481883,0.0230258181691,0.112847596407,1.21846967915e-07,0.0,0.0,0.0,1.21846967915e-07,0.0,0.0,0.0,1.21846967915e-07,0.04903325,0.0784532,8.28661925,9e-08,0.0,0.0,0.0,9e-08,0.0,0.0,0.0,9e-08
1531930625062227880,4379,1531930625061721576,base_link,-0.00880131075009,-0.113242609395,-0.993002884574,-0.0323097442661,1.0,0.0,0.0,0.0,1.0,0.0,0.0,0.0,1.0,-0.0912858396769,0.0484837889671,-0.109805293381,1.21846967915e-07,0.0,0.0,0.0,1.21846967915e-07,0.0,0.0,0.0,1.21846967915e-07,0.0588399,0.6276256,9.73800345,9e-08,0.0,0.0,0.0,9e-08,0.0,0.0,0.0,9e-08
1531930625410229896,4380,1531930625410007592,base_link,0.00563713273891,-0.153673425487,-0.985620747678,-0.0700317269521,1.0,0.0,0.0,0.0,1.0,0.0,0.0,0.0,1.0,0.257771670818,0.0222076047212,-0.235008537769,1.21846967915e-07,0.0,0.0,0.0,1.21846967915e-07,0.0,0.0,0.0,1.21846967915e-07,-0.14709975,0.20593965,6.73716855,9e-08,0.0,0.0,0.0,9e-08,0.0,0.0,0.0,9e-08
1531930625921305000,4381,1531930625921043528,base_link,0.00896906198249,-0.220871197231,-0.968412624017,-0.115379633407,1.0,0.0,0.0,0.0,1.0,0.0,0.0,0.0,1.0,0.288866460323,-0.0324311852455,-0.255273491144,1.21846967915e-07,0.0,0.0,0.0,1.21846967915e-07,0.0,0.0,0.0,1.21846967915e-07,0.0,0.392266,10.03220295,9e-08,0.0,0.0,0.0,9e-08,0.0,0.0,0.0,9e-08
1531930626198794824,4382,1531930626197905224,base_link,0.000828951940523,-0.269683080911,-0.951998925225,-0.144804679064,1.0,0.0,0.0,0.0,1.0,0.0,0.0,0.0,1.0,0.236452534795,-0.0599695257843,-0.128183737397,1.21846967915e-07,0.0,0.0,0.0,1.21846967915e-07,0.0,0.0,0.0,1.21846967915e-07,0.1569064,0.0588399,9.50264385,9e-08,0.0,0.0,0.0,9e-08,0.0,0.0,0.0,9e-08
1531930626649629736,4383,1531930626649376936,base_link,-0.0102400056839,-0.294740669857,-0.936850217087,-0.187975398818,1.0,0.0,0.0,0.0,1.0,0.0,0.0,0.0,1.0,0.233665362,-0.0822998210788,-0.377560228109,1.21846967915e-07,0.0,0.0,0.0,1.21846967915e-07,0.0,0.0,0.0,1.21846967915e-07,0.34323275,0.44129925,9.9635564,9e-08,0.0,0.0,0.0,9e-08,0.0,0.0,0.0,9e-08
1531930627146468200,4384,1531930627145994824,base_link,-0.0423029250916,-0.345463671572,-0.890247249216,-0.293811418117,1.0,0.0,0.0,0.0,1.0,0.0,0.0,0.0,1.0,0.263968974352,-0.295408189297,-0.242199167609,1.21846967915e-07,0.0,0.0,0.0,1.21846967915e-07,0.0,0.0,0.0,1.21846967915e-07,0.588399,-0.5295591,12.07198615,9e-08,0.0,0.0,0.0,9e-08,0.0,0.0,0.0,9e-08
1531930627517755656,4385,1531930627517526984,base_link,-0.0879100144637,-0.324648951389,-0.880475163917,-0.334123290784,1.0,0.0,0.0,0.0,1.0,0.0,0.0,0.0,1.0,-0.278361320496,-0.312380701303,-0.143622770905,1.21846967915e-07,0.0,0.0,0.0,1.21846967915e-07,0.0,0.0,0.0,1.21846967915e-07,1.10815145,0.6276256,10.4735022,9e-08,0.0,0.0,0.0,9e-08,0.0,0.0,0.0,9e-08
1531930627927037672,4386,1531930627926569448,base_link,-0.11623546059,-0.318530156025,-0.851309778011,-0.400374224028,1.0,0.0,0.0,0.0,1.0,0.0,0.0,0.0,1.0,0.237239018083,-0.283832997084,-0.452144861221,1.21846967915e-07,0.0,0.0,0.0,1.21846967915e-07,0.0,0.0,0.0,1.21846967915e-07,1.4121576,0.06864655,13.9842829,9e-08,0.0,0.0,0.0,9e-08,0.0,0.0,0.0,9e-08
1531930628149883528,4387,1531930628149506216,base_link,-0.140923154871,-0.305086628382,-0.828301140927,-0.448307967298,1.0,0.0,0.0,0.0,1.0,0.0,0.0,0.0,1.0,0.032277956605,-0.325170099735,-0.241327017546,1.21846967915e-07,0.0,0.0,0.0,1.21846967915e-07,0.0,0.0,0.0,1.21846967915e-07,1.6867438,0.50013915,18.76012145,9e-08,0.0,0.0,0.0,9e-08,0.0,0.0,0.0,9e-08
1531930628606240840,4388,1531930628605716136,base_link,-0.192861248518,-0.291234344897,-0.777370313012,-0.52314672093,1.0,0.0,0.0,0.0,1.0,0.0,0.0,0.0,1.0,-0.118438221514,-0.381568878889,-0.248802900314,1.21846967915e-07,0.0,0.0,0.0,1.21846967915e-07,0.0,0.0,0.0,1.21846967915e-07,1.53964405,0.48052585,16.8085981,9e-08,0.0,0.0,0.0,9e-08,0.0,0.0,0.0,9e-08
1531930629015772872,4389,1531930629015133896,base_link,-0.201347044256,-0.227852214512,-0.747206726514,-0.590952488753,1.0,0.0,0.0,0.0,1.0,0.0,0.0,0.0,1.0,-0.132051572204,-0.285345703363,-0.363822549582,1.21846967915e-07,0.0,0.0,0.0,1.21846967915e-07,0.0,0.0,0.0,1.21846967915e-07,1.1571847,0.4903325,12.22889255,9e-08,0.0,0.0,0.0,9e-08,0.0,0.0,0.0,9e-08
1531930629398694728,4390,1531930629395847496,base_link,-0.241019657304,-0.202608225543,-0.700617955853,-0.640307669541,1.0,0.0,0.0,0.0,1.0,0.0,0.0,0.0,1.0,-0.146727204323,-0.366071939468,-0.0854243114591,1.21846967915e-07,0.0,0.0,0.0,1.21846967915e-07,0.0,0.0,0.0,1.21846967915e-07,1.0983448,0.22555295,19.2994872,9e-08,0.0,0.0,0.0,9e-08,0.0,0.0,0.0,9e-08
1531930629742338632,4391,1531930629741792808,base_link,-0.204314281647,-0.120914676128,-0.686863009702,-0.686916677127,1.0,0.0,0.0,0.0,1.0,0.0,0.0,0.0,1.0,-0.641997754574,-0.0823823586106,-0.291389584541,1.21846967915e-07,0.0,0.0,0.0,1.21846967915e-07,0.0,0.0,0.0,1.21846967915e-07,0.6080123,0.9610517,10.6500219,9e-08,0.0,0.0,0.0,9e-08,0.0,0.0,0.0,9e-08
1531930630134970312,4392,1531930630134421128,base_link,-0.154150926135,-0.0541144391479,-0.659838174112,-0.733432139623,1.0,0.0,0.0,0.0,1.0,0.0,0.0,0.0,1.0,-0.429786354303,-0.140787780285,-0.0892940312624,1.21846967915e-07,0.0,0.0,0.0,1.21846967915e-07,0.0,0.0,0.0,1.21846967915e-07,0.0980665,-0.12748645,13.7096967,9e-08,0.0,0.0,0.0,9e-08,0.0,0.0,0.0,9e-08
1531930630487438664,4393,1531930630487105160,base_link,-0.100647271461,0.00512188521226,-0.652853937626,-0.750750044399,1.0,0.0,0.0,0.0,1.0,0.0,0.0,0.0,1.0,-0.441584467888,0.0124560529366,-0.0547870434821,1.21846967915e-07,0.0,0.0,0.0,1.21846967915e-07,0.0,0.0,0.0,1.21846967915e-07,-0.20593965,0.4314926,9.2378643,9e-08,0.0,0.0,0.0,9e-08,0.0,0.0,0.0,9e-08
1531930630987186696,4394,1531930630986690536,base_link,-0.0373228251248,0.0471379741903,-0.63586526556,-0.76945460046,1.0,0.0,0.0,0.0,1.0,0.0,0.0,0.0,1.0,-0.154012605548,0.0327810645103,0.0533942580223,1.21846967915e-07,0.0,0.0,0.0,1.21846967915e-07,0.0,0.0,0.0,1.21846967915e-07,-0.48052585,-0.4707192,8.18855275,9e-08,0.0,0.0,0.0,9e-08,0.0,0.0,0.0,9e-08
1531930631381971176,4395,1531930631381592680,base_link,0.0229064533931,0.0789566085757,-0.650771759627,-0.754809423118,1.0,0.0,0.0,0.0,1.0,0.0,0.0,0.0,1.0,-0.335007607937,0.0932349711657,0.117931887507,1.21846967915e-07,0.0,0.0,0.0,1.21846967915e-07,0.0,0.0,0.0,1.21846967915e-07,-0.2745862,-0.00980665,6.5508422,9e-08,0.0,0.0,0.0,9e-08,0.0,0.0,0.0,9e-08
1531930631846030600,4396,1531930631845681512,base_link,0.0645328467593,0.0794597455918,-0.659953295529,-0.744300549671,1.0,0.0,0.0,0.0,1.0,0.0,0.0,0.0,1.0,-0.0115256216377,0.115351706743,0.0415820665658,1.21846967915e-07,0.0,0.0,0.0,1.21846967915e-07,0.0,0.0,0.0,1.21846967915e-07,-0.30400615,-0.06864655,6.1193496,9e-08,0.0,0.0,0.0,9e-08,0.0,0.0,0.0,9e-08
1531930632309568904,4397,1531930632309343144,base_link,0.0971601080095,0.0752935077338,-0.671335938773,-0.73088908763,1.0,0.0,0.0,0.0,1.0,0.0,0.0,0.0,1.0,-0.152647569776,0.0654069855809,0.0705348327756,1.21846967915e-07,0.0,0.0,0.0,1.21846967915e-07,0.0,0.0,0.0,1.21846967915e-07,-0.20593965,0.22555295,8.8455983,9e-08,0.0,0.0,0.0,9e-08,0.0,0.0,0.0,9e-08
1531930632701650728,4398,1531930632701434248,base_link,0.104249032349,0.0590077356156,-0.677563597341,-0.725643023773,1.0,0.0,0.0,0.0,1.0,0.0,0.0,0.0,1.0,0.218232795596,0.0847462788224,0.0569219142199,1.21846967915e-07,0.0,0.0,0.0,1.21846967915e-07,0.0,0.0,0.0,1.21846967915e-07,-0.24516625,-0.1176798,8.40429905,9e-08,0.0,0.0,0.0,9e-08,0.0,0.0,0.0,9e-08
1531930632931121256,4399,1531930632930906024,base_link,0.0910758199701,0.0347149779299,-0.684208259799,-0.722744161199,1.0,0.0,0.0,0.0,1.0,0.0,0.0,0.0,1.0,0.375187277794,0.0352065302432,0.0609404928982,1.21846967915e-07,0.0,0.0,0.0,1.21846967915e-07,0.0,0.0,0.0,1.21846967915e-07,-0.2941995,-0.14709975,8.3552658,9e-08,0.0,0.0,0.0,9e-08,0.0,0.0,0.0,9e-08
1531930633407581288,4400,1531930633406163400,base_link,0.0728073845207,-0.00322169497442,-0.705932885697,-0.704519315798,1.0,0.0,0.0,0.0,1.0,0.0,0.0,0.0,1.0,0.0184694603086,0.0488068014383,0.0958708673716,1.21846967915e-07,0.0,0.0,0.0,1.21846967915e-07,0.0,0.0,0.0,1.21846967915e-07,-0.00980665,0.51975245,8.73772515,9e-08,0.0,0.0,0.0,9e-08,0.0,0.0,0.0,9e-08
1531930633910134632,4401,1531930633909581224,base_link,0.0902397731116,0.00619624872505,-0.700626566424,-0.707771717626,1.0,0.0,0.0,0.0,1.0,0.0,0.0,0.0,1.0,-0.0273183360696,0.0207018479705,-0.082729563117,1.21846967915e-07,0.0,0.0,0.0,1.21846967915e-07,0.0,0.0,0.0,1.21846967915e-07,-0.0392266,0.4314926,9.6497436,9e-08,0.0,0.0,0.0,9e-08,0.0,0.0,0.0,9e-08
1531930634288432456,4402,1531930634288232648,base_link,0.0624129350529,-0.00736086757949,-0.693823005405,-0.717398132376,1.0,0.0,0.0,0.0,1.0,0.0,0.0,0.0,1.0,0.267044991255,-0.0404113717377,0.07948654145,1.21846967915e-07,0.0,0.0,0.0,1.21846967915e-07,0.0,0.0,0.0,1.21846967915e-07,0.196133,-0.40207265,12.79767825,9e-08,0.0,0.0,0.0,9e-08,0.0,0.0,0.0,9e-08
1531930634587792168,4403,1531930634585114376,base_link,0.0315041081499,-0.0268847293496,-0.710280231883,-0.702699576415,1.0,0.0,0.0,0.0,1.0,0.0,0.0,0.0,1.0,0.0828125551343,-0.0674001052976,0.176244586706,1.21846967915e-07,0.0,0.0,0.0,1.21846967915e-07,0.0,0.0,0.0,1.21846967915e-07,0.196133,-0.02941995,12.0817928,9e-08,0.0,0.0,0.0,9e-08,0.0,0.0,0.0,9e-08
1531930635041913576,4404,1531930635041551368,base_link,0.0407429912717,-0.0109880257011,-0.712999136558,-0.699893922834,1.0,0.0,0.0,0.0,1.0,0.0,0.0,0.0,1.0,0.0574481859803,0.0186093728989,-0.195791900158,1.21846967915e-07,0.0,0.0,0.0,1.21846967915e-07,0.0,0.0,0.0,1.21846967915e-07,0.196133,0.75511205,11.0422879,9e-08,0.0,0.0,0.0,9e-08,0.0,0.0,0.0,9e-08
1531930635451170088,4405,1531930635450899336,base_link,-0.0137223343854,-0.0579379487235,-0.68628597774,-0.724890645818,1.0,0.0,0.0,0.0,1.0,0.0,0.0,0.0,1.0,0.226072207093,-0.0514140538871,-0.0989551767707,1.21846967915e-07,0.0,0.0,0.0,1.21846967915e-07,0.0,0.0,0.0,1.21846967915e-07,-0.1372931,0.28439285,10.2381426,9e-08,0.0,0.0,0.0,9e-08,0.0,0.0,0.0,9e-08
1531930635811881352,4406,1531930635811581960,base_link,-0.0298275064093,-0.0632383584374,-0.676713004493,-0.732919326689,1.0,0.0,0.0,0.0,1.0,0.0,0.0,0.0,1.0,-0.062324270606,-0.0199343748391,0.0060091977939,1.21846967915e-07,0.0,0.0,0.0,1.21846967915e-07,0.0,0.0,0.0,1.21846967915e-07,-0.22555295,-0.20593965,9.40457735,9e-08,0.0,0.0,0.0,9e-08,0.0,0.0,0.0,9e-08
1531930636289492744,4407,1531930636288703784,base_link,-0.0195218410986,-0.0423328984217,-0.680752502202,-0.731028627468,1.0,0.0,0.0,0.0,1.0,0.0,0.0,0.0,1.0,-0.152867242694,-0.00153285264969,-0.0755795016885,1.21846967915e-07,0.0,0.0,0.0,1.21846967915e-07,0.0,0.0,0.0,1.21846967915e-07,-0.1569064,0.38245935,10.2773692,9e-08,0.0,0.0,0.0,9e-08,0.0,0.0,0.0,9e-08
1531930636579643240,4408,1531930636578866440,base_link,-0.018821185814,-0.0417730795418,-0.672919865792,-0.73829508126,1.0,0.0,0.0,0.0,1.0,0.0,0.0,0.0,1.0,-0.0982196033001,-0.0020492170006,-0.00571150192991,1.21846967915e-07,0.0,0.0,0.0,1.21846967915e-07,0.0,0.0,0.0,1.21846967915e-07,-0.10787315,-0.20593965,10.62060195,9e-08,0.0,0.0,0.0,9e-08,0.0,0.0,0.0,9e-08
1531930637064590760,4409,1531930637064229064,base_link,-0.00624199813411,-0.0268840126085,-0.679109069127,-0.733518343025,1.0,0.0,0.0,0.0,1.0,0.0,0.0,0.0,1.0,-0.104073561728,0.0157084390521,-0.0160339064896,1.21846967915e-07,0.0,0.0,0.0,1.21846967915e-07,0.0,0.0,0.0,1.21846967915e-07,-0.16671305,0.22555295,9.6693569,9e-08,0.0,0.0,0.0,9e-08,0.0,0.0,0.0,9e-08
1531930637530140584,4410,1531930637529903336,base_link,-0.00871631496866,-0.0318997651059,-0.666609122792,-0.744673558178,1.0,0.0,0.0,0.0,1.0,0.0,0.0,0.0,1.0,0.415909230709,0.0381804145873,-0.141093686223,1.21846967915e-07,0.0,0.0,0.0,1.21846967915e-07,0.0,0.0,0.0,1.21846967915e-07,-0.1765197,-0.06864655,8.9632781,9e-08,0.0,0.0,0.0,9e-08,0.0,0.0,0.0,9e-08
1531930638011722568,4411,1531930638011184552,base_link,-0.076364702786,-0.0965163104048,-0.65728163143,-0.743528002821,1.0,0.0,0.0,0.0,1.0,0.0,0.0,0.0,1.0,-0.061417773366,0.00144654326141,0.0749518126249,1.21846967915e-07,0.0,0.0,0.0,1.21846967915e-07,0.0,0.0,0.0,1.21846967915e-07,-0.196133,0.4118793,8.34545915,9e-08,0.0,0.0,0.0,9e-08,0.0,0.0,0.0,9e-08
1531930638466405352,4412,1531930638466064264,base_link,-0.115202563341,-0.137640377974,-0.650531344167,-0.737965084545,1.0,0.0,0.0,0.0,1.0,0.0,0.0,0.0,1.0,0.114165820181,0.00255678407848,0.110908746719,1.21846967915e-07,0.0,0.0,0.0,1.21846967915e-07,0.0,0.0,0.0,1.21846967915e-07,-0.2549729,-0.4118793,7.09020795,9e-08,0.0,0.0,0.0,9e-08,0.0,0.0,0.0,9e-08
1531930638770421288,4413,1531930638770183528,base_link,-0.123080622333,-0.125016078092,-0.661888845565,-0.728783436105,1.0,0.0,0.0,0.0,1.0,0.0,0.0,0.0,1.0,0.302092880011,-0.13597472012,0.0936750546098,1.21846967915e-07,0.0,0.0,0.0,1.21846967915e-07,0.0,0.0,0.0,1.21846967915e-07,0.61781895,-0.04903325,12.58193195,9e-08,0.0,0.0,0.0,9e-08,0.0,0.0,0.0,9e-08
1531930639286070664,4414,1531930639285816296,base_link,-0.0809617442218,-0.142473890106,-0.614083531147,-0.77204132233,1.0,0.0,0.0,0.0,1.0,0.0,0.0,0.0,1.0,0.783511221409,0.143712177873,-0.934096395969,1.21846967915e-07,0.0,0.0,0.0,1.21846967915e-07,0.0,0.0,0.0,1.21846967915e-07,0.4511059,1.89268345,6.63910205,9e-08,0.0,0.0,0.0,9e-08,0.0,0.0,0.0,9e-08
1531930639648673512,4415,1531930639646925064,base_link,-0.182975957984,-0.216716800055,-0.545177185837,-0.788882414189,1.0,0.0,0.0,0.0,1.0,0.0,0.0,0.0,1.0,0.507962822914,-0.17963668704,0.26763805747,1.21846967915e-07,0.0,0.0,0.0,1.21846967915e-07,0.0,0.0,0.0,1.21846967915e-07,0.2549729,-1.1964113,9.7281968,9e-08,0.0,0.0,0.0,9e-08,0.0,0.0,0.0,9e-08
1531930640046532808,4416,1531930640046150184,base_link,-0.229554161853,-0.171153478989,-0.572002088583,-0.768651406076,1.0,0.0,0.0,0.0,1.0,0.0,0.0,0.0,1.0,0.072348639369,-0.121484577656,-0.078189432621,1.21846967915e-07,0.0,0.0,0.0,1.21846967915e-07,0.0,0.0,0.0,1.21846967915e-07,1.53964405,1.7848103,13.50375705,9e-08,0.0,0.0,0.0,9e-08,0.0,0.0,0.0,9e-08
