%time,field.header.seq,field.header.stamp,field.header.frame_id,field.orientation.x,field.orientation.y,field.orientation.z,field.orientation.w,field.orientation_covariance0,field.orientation_covariance1,field.orientation_covariance2,field.orientation_covariance3,field.orientation_covariance4,field.orientation_covariance5,field.orientation_covariance6,field.orientation_covariance7,field.orientation_covariance8,field.angular_velocity.x,field.angular_velocity.y,field.angular_velocity.z,field.angular_velocity_covariance0,field.angular_velocity_covariance1,field.angular_velocity_covariance2,field.angular_velocity_covariance3,field.angular_velocity_covariance4,field.angular_velocity_covariance5,field.angular_velocity_covariance6,field.angular_velocity_covariance7,field.angular_velocity_covariance8,field.linear_acceleration.x,field.linear_acceleration.y,field.linear_acceleration.z,field.linear_acceleration_covariance0,field.linear_acceleration_covariance1,field.linear_acceleration_covariance2,field.linear_acceleration_covariance3,field.linear_acceleration_covariance4,field.linear_acceleration_covariance5,field.linear_acceleration_covariance6,field.linear_acceleration_covariance7,field.linear_acceleration_covariance8
1536681798918195104,2387,1536681798917956704,base_link,-0.0119670504425,-0.350184049424,-0.772559086031,-0.529509565374,1.0,0.0,0.0,0.0,1.0,0.0,0.0,0.0,1.0,0.099484667182,-0.147398293018,-0.205262422562,1.21846967915e-07,0.0,0.0,0.0,1.21846967915e-07,0.0,0.0,0.0,1.21846967915e-07,-2.67721545,0.81395195,11.4345539,9e-08,0.0,0.0,0.0,9e-08,0.0,0.0,0.0,9e-08
1536681799397252960,2388,1536681799397029728,base_link,-0.0374963903325,-0.341096202742,-0.74340139902,-0.574109537565,1.0,0.0,0.0,0.0,1.0,0.0,0.0,0.0,1.0,0.0598651468754,-0.0657651126385,-0.20919649303,1.21846967915e-07,0.0,0.0,0.0,1.21846967915e-07,0.0,0.0,0.0,1.21846967915e-07,-2.7850886,-0.02941995,10.93441475,9e-08,0.0,0.0,0.0,9e-08,0.0,0.0,0.0,9e-08
1536681799709341568,2389,1536681799708968448,base_link,-0.0474688729547,-0.35386450907,-0.709693994414,-0.607339319996,1.0,0.0,0.0,0.0,1.0,0.0,0.0,0.0,1.0,0.234220087528,-0.0401463210583,-0.264757484198,1.21846967915e-07,0.0,0.0,0.0,1.21846967915e-07,0.0,0.0,0.0,1.21846967915e-07,-2.6281822,0.8629852,10.8853815,9e-08,0.0,0.0,0.0,9e-08,0.0,0.0,0.0,9e-08
1536681800159908800,2390,1536681800159421216,base_link,-0.0920375314953,-0.374041826028,-0.647832959713,-0.657217058122,1.0,0.0,0.0,0.0,1.0,0.0,0.0,0.0,1.0,0.295003771782,-0.164485394955,-0.230037942529,1.21846967915e-07,0.0,0.0,0.0,1.21846967915e-07,0.0,0.0,0.0,1.21846967915e-07,-2.8047019,-0.10787315,12.48386545,9e-08,0.0,0.0,0.0,9e-08,0.0,0.0,0.0,9e-08
1536681800649356768,2391,1536681800648933984,base_link,-0.125092021447,-0.360133961608,-0.607490133659,-0.696858130019,1.0,0.0,0.0,0.0,1.0,0.0,0.0,0.0,1.0,-0.0135229760781,-0.25072440505,-0.148613646626,1.21846967915e-07,0.0,0.0,0.0,1.21846967915e-07,0.0,0.0,0.0,1.21846967915e-07,-2.57914895,1.4709975,9.1005712,9e-08,0.0,0.0,0.0,9e-08,0.0,0.0,0.0,9e-08
1536681801046576832,2392,1536681801046182848,base_link,-0.129265129281,-0.337028580541,-0.570039463563,-0.738076738714,1.0,0.0,0.0,0.0,1.0,0.0,0.0,0.0,1.0,0.0606563836336,-0.0758081451058,-0.293529927731,1.21846967915e-07,0.0,0.0,0.0,1.21846967915e-07,0.0,0.0,0.0,1.21846967915e-07,-2.6674088,-0.1372931,13.11149105,9e-08,0.0,0.0,0.0,9e-08,0.0,0.0,0.0,9e-08
1536681801363460064,2393,1536681801363188992,base_link,-0.11618389264,-0.315606407455,-0.544791311749,-0.768177274662,1.0,0.0,0.0,0.0,1.0,0.0,0.0,0.0,1.0,-0.211683422327,-0.0913807749748,-0.17789119482,1.21846967915e-07,0.0,0.0,0.0,1.21846967915e-07,0.0,0.0,0.0,1.21846967915e-07,-2.6674088,1.0787315,12.1210194,9e-08,0.0,0.0,0.0,9e-08,0.0,0.0,0.0,9e-08
1536681801774995104,2394,1536681801774680736,base_link,-0.0797667277203,-0.272163087342,-0.526648551703,-0.801377455402,1.0,0.0,0.0,0.0,1.0,0.0,0.0,0.0,1.0,-0.306966304779,-0.0437734052539,-0.245550721884,1.21846967915e-07,0.0,0.0,0.0,1.21846967915e-07,0.0,0.0,0.0,1.21846967915e-07,-2.6870221,0.71588545,11.89546645,9e-08,0.0,0.0,0.0,9e-08,0.0,0.0,0.0,9e-08
1536681802171464768,2395,1536681802171077856,base_link,-0.0164731475466,-0.235317563436,-0.505990975622,-0.829654995969,1.0,0.0,0.0,0.0,1.0,0.0,0.0,0.0,1.0,-0.307787716389,0.0674773156643,-0.156579166651,1.21846967915e-07,0.0,0.0,0.0,1.21846967915e-07,0.0,0.0,0.0,1.21846967915e-07,-2.75566865,-0.50013915,10.95402805,9e-08,0.0,0.0,0.0,9e-08,0.0,0.0,0.0,9e-08
1536681802523485408,2396,1536681802523251264,base_link,0.0227516364795,-0.208693385763,-0.500292948699,-0.840021665946,1.0,0.0,0.0,0.0,1.0,0.0,0.0,0.0,1.0,-0.154773190618,-0.0732100531459,-0.0212145466357,1.21846967915e-07,0.0,0.0,0.0,1.21846967915e-07,0.0,0.0,0.0,1.21846967915e-07,-2.71644205,1.04931155,7.71783355,9e-08,0.0,0.0,0.0,9e-08,0.0,0.0,0.0,9e-08
1536681802821131360,2397,1536681802820843904,base_link,0.030381783681,-0.202240427607,-0.493670124562,-0.845260649017,1.0,0.0,0.0,0.0,1.0,0.0,0.0,0.0,1.0,0.0648606792092,-0.0150473695248,-0.0181170292199,1.21846967915e-07,0.0,0.0,0.0,1.21846967915e-07,0.0,0.0,0.0,1.21846967915e-07,-3.0008349,-0.6276256,8.36507245,9e-08,0.0,0.0,0.0,9e-08,0.0,0.0,0.0,9e-08
1536681803247131104,2398,1536681803246572160,base_link,0.0200398638437,-0.205553444981,-0.495574045515,-0.843654283771,1.0,0.0,0.0,0.0,1.0,0.0,0.0,0.0,1.0,0.0762228891253,-0.0843601599336,0.000902813626453,1.21846967915e-07,0.0,0.0,0.0,1.21846967915e-07,0.0,0.0,0.0,1.21846967915e-07,-2.91257505,-0.57859235,9.0809579,9e-08,0.0,0.0,0.0,9e-08,0.0,0.0,0.0,9e-08
1536681803556404000,2399,1536681803556153792,base_link,0.0151955340891,-0.199026621166,-0.490696537478,-0.848159423645,1.0,0.0,0.0,0.0,1.0,0.0,0.0,0.0,1.0,0.00903022382408,0.0296288784593,-0.0940679013729,1.21846967915e-07,0.0,0.0,0.0,1.21846967915e-07,0.0,0.0,0.0,1.21846967915e-07,-2.8831551,-0.1176798,10.65982855,9e-08,0.0,0.0,0.0,9e-08,0.0,0.0,0.0,9e-08
1536681804052617408,2400,1536681804052296160,base_link,-0.0179574927831,-0.211055883077,-0.458523314776,-0.86306970314,1.0,0.0,0.0,0.0,1.0,0.0,0.0,0.0,1.0,0.363414049149,-0.0285591650754,-0.138204023242,1.21846967915e-07,0.0,0.0,0.0,1.21846967915e-07,0.0,0.0,0.0,1.21846967915e-07,-2.9812216,1.0983448,11.2188076,9e-08,0.0,0.0,0.0,9e-08,0.0,0.0,0.0,9e-08
1536681804469439168,2401,1536681804469191232,base_link,-0.0888895167212,-0.25059765174,-0.424297129642,-0.865604653717,1.0,0.0,0.0,0.0,1.0,0.0,0.0,0.0,1.0,0.59056198597,-0.0377145707607,-0.0241089314222,1.21846967915e-07,0.0,0.0,0.0,1.21846967915e-07,0.0,0.0,0.0,1.21846967915e-07,-2.73605535,0.06864655,9.1594111,9e-08,0.0,0.0,0.0,9e-08,0.0,0.0,0.0,9e-08
1536681804758296384,2402,1536681804758005152,base_link,-0.124794026067,-0.262328103605,-0.404473708489,-0.867185929463,1.0,0.0,0.0,0.0,1.0,0.0,0.0,0.0,1.0,0.177292138338,-0.156617388129,-0.101892858744,1.21846967915e-07,0.0,0.0,0.0,1.21846967915e-07,0.0,0.0,0.0,1.21846967915e-07,-2.81450855,0.7649187,11.8464332,9e-08,0.0,0.0,0.0,9e-08,0.0,0.0,0.0,9e-08
1536681805159933280,2403,1536681805159701120,base_link,-0.161625442118,-0.251346523407,-0.367093196085,-0.880877248554,1.0,0.0,0.0,0.0,1.0,0.0,0.0,0.0,1.0,0.199726030231,-0.20021738112,-0.153376579285,1.21846967915e-07,0.0,0.0,0.0,1.21846967915e-07,0.0,0.0,0.0,1.21846967915e-07,-2.87334845,0.6080123,11.6895268,9e-08,0.0,0.0,0.0,9e-08,0.0,0.0,0.0,9e-08
1536681805566713120,2404,1536681805566454848,base_link,-0.204856992201,-0.242603331414,-0.318530674903,-0.893149173139,1.0,0.0,0.0,0.0,1.0,0.0,0.0,0.0,1.0,0.313781648874,-0.307015150785,-0.190624430776,1.21846967915e-07,0.0,0.0,0.0,1.21846967915e-07,0.0,0.0,0.0,1.21846967915e-07,-2.7262487,0.63743225,12.4936721,9e-08,0.0,0.0,0.0,9e-08,0.0,0.0,0.0,9e-08
1536681805999378432,2405,1536681805999132384,base_link,-0.26279000282,-0.196965619267,-0.261117687805,-0.907724359241,1.0,0.0,0.0,0.0,1.0,0.0,0.0,0.0,1.0,0.122029192746,-0.340314924717,-0.126398637891,1.21846967915e-07,0.0,0.0,0.0,1.21846967915e-07,0.0,0.0,0.0,1.21846967915e-07,-1.95152335,0.63743225,15.42586045,9e-08,0.0,0.0,0.0,9e-08,0.0,0.0,0.0,9e-08
1536681806386169856,2406,1536681806385962752,base_link,-0.293257864163,-0.145057749356,-0.206789356618,-0.922060863744,1.0,0.0,0.0,0.0,1.0,0.0,0.0,0.0,1.0,0.086722292006,-0.403012931347,-0.221359297633,1.21846967915e-07,0.0,0.0,0.0,1.21846967915e-07,0.0,0.0,0.0,1.21846967915e-07,-0.77472535,0.8825985,17.40680375,9e-08,0.0,0.0,0.0,9e-08,0.0,0.0,0.0,9e-08
1536681806706865248,2407,1536681806706626976,base_link,-0.313667204122,-0.109111567118,-0.153520132842,-0.930665954998,1.0,0.0,0.0,0.0,1.0,0.0,0.0,0.0,1.0,0.107794784009,-0.283955097198,-0.246671706438,1.21846967915e-07,0.0,0.0,0.0,1.21846967915e-07,0.0,0.0,0.0,1.21846967915e-07,-0.14709975,0.63743225,15.58276685,9e-08,0.0,0.0,0.0,9e-08,0.0,0.0,0.0,9e-08
1536681807154471008,2408,1536681807154197888,base_link,-0.32797687752,-0.0530911816415,-0.0847626253258,-0.939376277959,1.0,0.0,0.0,0.0,1.0,0.0,0.0,0.0,1.0,-0.107035815716,-0.393490344286,-0.20696605742,1.21846967915e-07,0.0,0.0,0.0,1.21846967915e-07,0.0,0.0,0.0,1.21846967915e-07,0.50013915,0.7453054,15.81812645,9e-08,0.0,0.0,0.0,9e-08,0.0,0.0,0.0,9e-08
1536681807558369984,2409,1536681807557965472,base_link,-0.295411004959,0.00545031772733,-0.0236926305284,-0.955060883632,1.0,0.0,0.0,0.0,1.0,0.0,0.0,0.0,1.0,-0.261953115463,-0.387368291616,-0.189483821392,1.21846967915e-07,0.0,0.0,0.0,1.21846967915e-07,0.0,0.0,0.0,1.21846967915e-07,0.61781895,0.95124505,15.9456129,9e-08,0.0,0.0,0.0,9e-08,0.0,0.0,0.0,9e-08
1536681807861015360,2410,1536681807859951328,base_link,-0.247148330455,0.0600544037539,0.0207323859272,-0.966892620469,1.0,0.0,0.0,0.0,1.0,0.0,0.0,0.0,1.0,-0.442795187235,-0.410617470741,-0.161519035697,1.21846967915e-07,0.0,0.0,0.0,1.21846967915e-07,0.0,0.0,0.0,1.21846967915e-07,0.61781895,0.93163175,18.2207557,9e-08,0.0,0.0,0.0,9e-08,0.0,0.0,0.0,9e-08
1536681808170462208,2411,1536681808169608544,base_link,-0.171829479667,0.0957638681982,0.0602795339251,-0.978606299415,1.0,0.0,0.0,0.0,1.0,0.0,0.0,0.0,1.0,-0.567374765873,-0.0904429256916,-0.143327251077,1.21846967915e-07,0.0,0.0,0.0,1.21846967915e-07,0.0,0.0,0.0,1.21846967915e-07,0.32361945,0.9610517,16.50459195,9e-08,0.0,0.0,0.0,9e-08,0.0,0.0,0.0,9e-08
1536681808559155232,2412,1536681808557184256,base_link,-0.0583561696993,0.100840102222,0.095944948498,-0.988544585792,1.0,0.0,0.0,0.0,1.0,0.0,0.0,0.0,1.0,-0.552385270596,-0.0189442783594,-0.0783719345927,1.21846967915e-07,0.0,0.0,0.0,1.21846967915e-07,0.0,0.0,0.0,1.21846967915e-07,-0.4118793,0.6080123,11.1403544,9e-08,0.0,0.0,0.0,9e-08,0.0,0.0,0.0,9e-08
1536681809055501696,2413,1536681809055120736,base_link,0.0498662960085,0.099000568516,0.116073732426,-0.987035525499,1.0,0.0,0.0,0.0,1.0,0.0,0.0,0.0,1.0,-0.293470025063,-0.0670353248715,0.010857229121,1.21846967915e-07,0.0,0.0,0.0,1.21846967915e-07,0.0,0.0,0.0,1.21846967915e-07,-0.83356525,0.18632635,9.77723005,9e-08,0.0,0.0,0.0,9e-08,0.0,0.0,0.0,9e-08
1536681809320517536,2414,1536681809320161376,base_link,0.0844099765558,0.0912261465762,0.113713046455,-0.985708927171,1.0,0.0,0.0,0.0,1.0,0.0,0.0,0.0,1.0,-0.17933820188,0.0195142310113,0.067312374711,1.21846967915e-07,0.0,0.0,0.0,1.21846967915e-07,0.0,0.0,0.0,1.21846967915e-07,-0.8433719,0.2549729,8.237586,9e-08,0.0,0.0,0.0,9e-08,0.0,0.0,0.0,9e-08
1536681809665318112,2415,1536681809661707232,base_link,0.109179401453,0.0685071972963,0.103415114016,-0.986251456987,1.0,0.0,0.0,0.0,1.0,0.0,0.0,0.0,1.0,-0.181902050972,0.136716187,0.110059849918,1.21846967915e-07,0.0,0.0,0.0,1.21846967915e-07,0.0,0.0,0.0,1.21846967915e-07,-0.8629852,0.2745862,7.1392412,9e-08,0.0,0.0,0.0,9e-08,0.0,0.0,0.0,9e-08
1536681810055086016,2416,1536681810050102784,base_link,0.118085905834,0.0230566788072,0.0838321566026,-0.989189707753,1.0,0.0,0.0,0.0,1.0,0.0,0.0,0.0,1.0,-0.0135084940121,0.266942709684,0.128003150225,1.21846967915e-07,0.0,0.0,0.0,1.21846967915e-07,0.0,0.0,0.0,1.21846967915e-07,-1.0002783,0.1765197,5.2171378,9e-08,0.0,0.0,0.0,9e-08,0.0,0.0,0.0,9e-08
1536681810516884480,2417,1536681810516650208,base_link,0.108345590344,-0.0185007073209,0.0469911964276,-0.992829685465,1.0,0.0,0.0,0.0,1.0,0.0,0.0,0.0,1.0,0.036657679826,0.141473069787,0.193035110831,1.21846967915e-07,0.0,0.0,0.0,1.21846967915e-07,0.0,0.0,0.0,1.21846967915e-07,-0.83356525,-0.02941995,6.58026215,9e-08,0.0,0.0,0.0,9e-08,0.0,0.0,0.0,9e-08
1536681810878886816,2418,1536681810878594240,base_link,0.113442915261,-0.0502580074615,0.0150029374921,-0.992159135184,1.0,0.0,0.0,0.0,1.0,0.0,0.0,0.0,1.0,-0.0189225412905,0.134846970439,0.149645209312,1.21846967915e-07,0.0,0.0,0.0,1.21846967915e-07,0.0,0.0,0.0,1.21846967915e-07,-0.8433719,0.10787315,6.6292954,9e-08,0.0,0.0,0.0,9e-08,0.0,0.0,0.0,9e-08
1536681811268387456,2419,1536681811268120768,base_link,0.0906736572692,-0.0764410719334,-0.0141607850619,-0.992841640225,1.0,0.0,0.0,0.0,1.0,0.0,0.0,0.0,1.0,0.149225234985,0.0749896019697,0.193246647716,1.21846967915e-07,0.0,0.0,0.0,1.21846967915e-07,0.0,0.0,0.0,1.21846967915e-07,-0.980665,0.0392266,7.2765343,9e-08,0.0,0.0,0.0,9e-08,0.0,0.0,0.0,9e-08
1536681811607494752,2420,1536681811607248896,base_link,0.0773527916477,-0.0962802088558,-0.0424300264841,-0.991436513277,1.0,0.0,0.0,0.0,1.0,0.0,0.0,0.0,1.0,0.129224643111,0.0752167925239,0.0900369882584,1.21846967915e-07,0.0,0.0,0.0,1.21846967915e-07,0.0,0.0,0.0,1.21846967915e-07,-1.0002783,1.01008495,8.48275225,9e-08,0.0,0.0,0.0,9e-08,0.0,0.0,0.0,9e-08
1536681811984545952,2421,1536681811981550752,base_link,0.0452622372587,-0.102653337266,-0.0425180860828,-0.9927768302,1.0,0.0,0.0,0.0,1.0,0.0,0.0,0.0,1.0,0.186228394508,0.110951803625,0.00276683690026,1.21846967915e-07,0.0,0.0,0.0,1.21846967915e-07,0.0,0.0,0.0,1.21846967915e-07,-0.6668522,0.3138128,9.99297635,9e-08,0.0,0.0,0.0,9e-08,0.0,0.0,0.0,9e-08
1536681812441239040,2422,1536681812441051712,base_link,0.000636615906798,-0.0889958203509,-0.0419192028099,-0.995149294888,1.0,0.0,0.0,0.0,1.0,0.0,0.0,0.0,1.0,0.0679286047816,-0.115128077567,0.0511127188802,1.21846967915e-07,0.0,0.0,0.0,1.21846967915e-07,0.0,0.0,0.0,1.21846967915e-07,-0.4118793,0.1372931,12.6898051,9e-08,0.0,0.0,0.0,9e-08,0.0,0.0,0.0,9e-08
1536681812785801600,2423,1536681812780922656,base_link,-0.0144495000962,-0.0747527635905,-0.0591557623592,-0.995341063185,1.0,0.0,0.0,0.0,1.0,0.0,0.0,0.0,1.0,0.0914905816317,-0.0547075606883,0.140073925257,1.21846967915e-07,0.0,0.0,0.0,1.21846967915e-07,0.0,0.0,0.0,1.21846967915e-07,-0.40207265,0.38245935,13.7685366,9e-08,0.0,0.0,0.0,9e-08,0.0,0.0,0.0,9e-08
1536681813065153440,2424,1536681813064898976,base_link,-0.0252560362753,-0.0754899508223,-0.0749120733675,-0.994007837605,1.0,0.0,0.0,0.0,1.0,0.0,0.0,0.0,1.0,0.0560446865857,0.0559586584568,0.0282595399767,1.21846967915e-07,0.0,0.0,0.0,1.21846967915e-07,0.0,0.0,0.0,1.21846967915e-07,-0.588399,0.9218251,12.34657235,9e-08,0.0,0.0,0.0,9e-08,0.0,0.0,0.0,9e-08
1536681813519670592,2425,1536681813503707680,base_link,-0.0558623774753,-0.0677445989513,-0.0565776286972,-0.99452955513,1.0,0.0,0.0,0.0,1.0,0.0,0.0,0.0,1.0,0.230135262012,-0.0244434606284,-0.089588329196,1.21846967915e-07,0.0,0.0,0.0,1.21846967915e-07,0.0,0.0,0.0,1.21846967915e-07,-0.7649187,0.08825985,8.237586,9e-08,0.0,0.0,0.0,9e-08,0.0,0.0,0.0,9e-08
1536681813780312064,2426,1536681813780021344,base_link,-0.0752825921035,-0.0566132978815,-0.0508767747644,-0.994252995781,1.0,0.0,0.0,0.0,1.0,0.0,0.0,0.0,1.0,-0.0173183679581,-0.108235910535,0.012830818072,1.21846967915e-07,0.0,0.0,0.0,1.21846967915e-07,0.0,0.0,0.0,1.21846967915e-07,-0.7060788,0.3138128,9.7085835,9e-08,0.0,0.0,0.0,9e-08,0.0,0.0,0.0,9e-08
1536681814272401152,2427,1536681814272165472,base_link,-0.0724287517513,-0.0425473234528,-0.0446511190579,-0.995464755154,1.0,0.0,0.0,0.0,1.0,0.0,0.0,0.0,1.0,0.011315963231,-0.0534182488918,-0.129617318511,1.21846967915e-07,0.0,0.0,0.0,1.21846967915e-07,0.0,0.0,0.0,1.21846967915e-07,-0.75511205,0.81395195,10.5127288,9e-08,0.0,0.0,0.0,9e-08,0.0,0.0,0.0,9e-08
1536681814728328032,2428,1536681814727931168,base_link,-0.0850841132132,-0.0352954386476,-0.0371606800953,-0.995054777158,1.0,0.0,0.0,0.0,1.0,0.0,0.0,0.0,1.0,-0.0387392640114,-0.0232972670346,0.063849426806,1.21846967915e-07,0.0,0.0,0.0,1.21846967915e-07,0.0,0.0,0.0,1.21846967915e-07,-0.7256921,1.26822247547e-15,10.3558224,9e-08,0.0,0.0,0.0,9e-08,0.0,0.0,0.0,9e-08
1536681815099850528,2429,1536681815099594304,base_link,-0.0788725282993,-0.023125562984,-0.0557253063031,-0.995057296267,1.0,0.0,0.0,0.0,1.0,0.0,0.0,0.0,1.0,-0.0908058434725,-0.00855703186244,0.0920053198934,1.21846967915e-07,0.0,0.0,0.0,1.21846967915e-07,0.0,0.0,0.0,1.21846967915e-07,-0.50013915,0.6276256,10.9049948,9e-08,0.0,0.0,0.0,9e-08,0.0,0.0,0.0,9e-08
1536681815458386528,2430,1536681815458128064,base_link,-0.063781982219,-0.0320932794834,-0.0629992724698,-0.995456162683,1.0,0.0,0.0,0.0,1.0,0.0,0.0,0.0,1.0,-0.115894712508,0.0445006377995,0.00380702642724,1.21846967915e-07,0.0,0.0,0.0,1.21846967915e-07,0.0,0.0,0.0,1.21846967915e-07,-0.5687857,0.53936575,8.71811185,9e-08,0.0,0.0,0.0,9e-08,0.0,0.0,0.0,9e-08
1536681815691505856,2431,1536681815686458976,base_link,-0.0547469619184,-0.037213175826,-0.0588757719219,-0.996068066543,1.0,0.0,0.0,0.0,1.0,0.0,0.0,0.0,1.0,-0.0360018834472,0.0598388575017,-0.0602995418012,1.21846967915e-07,0.0,0.0,0.0,1.21846967915e-07,0.0,0.0,0.0,1.21846967915e-07,-0.53936575,0.38245935,8.95347145,9e-08,0.0,0.0,0.0,9e-08,0.0,0.0,0.0,9e-08
1536681816123823008,2432,1536681816122627168,base_link,-0.0571438121962,-0.0544909372556,-0.0508531028478,-0.995579873448,1.0,0.0,0.0,0.0,1.0,0.0,0.0,0.0,1.0,0.0406221859157,0.117071375251,0.0279354862869,1.21846967915e-07,0.0,0.0,0.0,1.21846967915e-07,0.0,0.0,0.0,1.21846967915e-07,-0.6472389,0.10787315,8.38468575,9e-08,0.0,0.0,0.0,9e-08,0.0,0.0,0.0,9e-08
1536681816578631456,2433,1536681816578381728,base_link,-0.0597973758596,-0.0611983335818,-0.0528939347984,-0.994927770981,1.0,0.0,0.0,0.0,1.0,0.0,0.0,0.0,1.0,0.0111267641187,0.0848359614611,-0.0073690386489,1.21846967915e-07,0.0,0.0,0.0,1.21846967915e-07,0.0,0.0,0.0,1.21846967915e-07,-0.53936575,0.48052585,9.0809579,9e-08,0.0,0.0,0.0,9e-08,0.0,0.0,0.0,9e-08
1536681817150791616,2434,1536681817148919488,base_link,-0.0524327629532,-0.0594486310167,-0.0482156542559,-0.995686655692,1.0,0.0,0.0,0.0,1.0,0.0,0.0,0.0,1.0,-0.0107758985832,-0.0908371210098,-0.00230064662173,1.21846967915e-07,0.0,0.0,0.0,1.21846967915e-07,0.0,0.0,0.0,1.21846967915e-07,-0.36284605,0.3726527,10.50292215,9e-08,0.0,0.0,0.0,9e-08,0.0,0.0,0.0,9e-08
1536681817426161920,2435,1536681817425740608,base_link,-0.0539733430254,-0.039835572824,-0.0471996472408,-0.996630422314,1.0,0.0,0.0,0.0,1.0,0.0,0.0,0.0,1.0,0.0291177425534,-0.151808172464,-0.00882202014327,1.21846967915e-07,0.0,0.0,0.0,1.21846967915e-07,0.0,0.0,0.0,1.21846967915e-07,-0.26477955,0.34323275,12.09159945,9e-08,0.0,0.0,0.0,9e-08,0.0,0.0,0.0,9e-08
1536681817714114496,2436,1536681817713851776,base_link,-0.0515467493459,-0.0226942548877,-0.0469559589068,-0.997307896966,1.0,0.0,0.0,0.0,1.0,0.0,0.0,0.0,1.0,-0.0854065939784,-0.0606558695436,0.00802658405155,1.21846967915e-07,0.0,0.0,0.0,1.21846967915e-07,0.0,0.0,0.0,1.21846967915e-07,-0.14709975,0.42168595,11.1599677,9e-08,0.0,0.0,0.0,9e-08,0.0,0.0,0.0,9e-08
1536681817956206944,2437,1536681817955930976,base_link,-0.0404990690521,-0.0192919970842,-0.0477896547145,-0.997849584435,1.0,0.0,0.0,0.0,1.0,0.0,0.0,0.0,1.0,-0.038881432265,0.0340589061379,0.00577213568613,1.21846967915e-07,0.0,0.0,0.0,1.21846967915e-07,0.0,0.0,0.0,1.21846967915e-07,-0.28439285,0.46091255,11.77778665,9e-08,0.0,0.0,0.0,9e-08,0.0,0.0,0.0,9e-08
1536681818308668992,2438,1536681818307934624,base_link,-0.0427072797818,-0.0212309631806,-0.0474809136503,-0.997732878728,1.0,0.0,0.0,0.0,1.0,0.0,0.0,0.0,1.0,0.0109479799867,-0.0355503857136,-0.00516364350915,1.21846967915e-07,0.0,0.0,0.0,1.21846967915e-07,0.0,0.0,0.0,1.21846967915e-07,-0.28439285,0.5687857,9.97336305,9e-08,0.0,0.0,0.0,9e-08,0.0,0.0,0.0,9e-08
1536681818750337824,2439,1536681818750000000,base_link,-0.0388595208568,-0.019240512753,-0.0460737192818,-0.997996469282,1.0,0.0,0.0,0.0,1.0,0.0,0.0,0.0,1.0,0.0537743531168,0.0299018677324,0.0217668302357,1.21846967915e-07,0.0,0.0,0.0,1.21846967915e-07,0.0,0.0,0.0,1.21846967915e-07,-0.1765197,0.3138128,10.03220295,9e-08,0.0,0.0,0.0,9e-08,0.0,0.0,0.0,9e-08
1536681819241081792,2440,1536681819240896736,base_link,-0.0477724938759,-0.0225609824585,-0.0502173430242,-0.997339966791,1.0,0.0,0.0,0.0,1.0,0.0,0.0,0.0,1.0,0.0393229611218,-0.0230274163187,-0.00718839094043,1.21846967915e-07,0.0,0.0,0.0,1.21846967915e-07,0.0,0.0,0.0,1.21846967915e-07,-0.30400615,0.51975245,9.62032365,9e-08,0.0,0.0,0.0,9e-08,0.0,0.0,0.0,9e-08
1536681819591242976,2441,1536681819587447616,base_link,-0.0575890572743,-0.0314159823787,-0.0461807890415,-0.996776740929,1.0,0.0,0.0,0.0,1.0,0.0,0.0,0.0,1.0,0.100439652801,0.052566472441,-0.0177178271115,1.21846967915e-07,0.0,0.0,0.0,1.21846967915e-07,0.0,0.0,0.0,1.21846967915e-07,-0.2941995,0.4118793,9.24767095,9e-08,0.0,0.0,0.0,9e-08,0.0,0.0,0.0,9e-08
1536681819985248160,2442,1536681819984880736,base_link,-0.0670917897176,-0.0356150016926,-0.0461445856058,-0.996042639964,1.0,0.0,0.0,0.0,1.0,0.0,0.0,0.0,1.0,0.0629017278552,-0.011010770686,0.00799117982388,1.21846967915e-07,0.0,0.0,0.0,1.21846967915e-07,0.0,0.0,0.0,1.21846967915e-07,-0.14709975,0.4707192,9.6301303,9e-08,0.0,0.0,0.0,9e-08,0.0,0.0,0.0,9e-08
1536681820461024544,2443,1536681820460718816,base_link,-0.065899903452,-0.027835344141,-0.0441820766517,-0.996458900529,1.0,0.0,0.0,0.0,1.0,0.0,0.0,0.0,1.0,0.0534857846797,-0.0550825856626,-0.000129538122565,1.21846967915e-07,0.0,0.0,0.0,1.21846967915e-07,0.0,0.0,0.0,1.21846967915e-07,-0.08825985,0.3530394,10.591182,9e-08,0.0,0.0,0.0,9e-08,0.0,0.0,0.0,9e-08
1536681820797211264,2444,1536681820796310272,base_link,-0.0667270383024,-0.0199193733086,-0.0416740261724,-0.996701558376,1.0,0.0,0.0,0.0,1.0,0.0,0.0,0.0,1.0,-0.0109976325184,-0.0987561419606,-0.0186223518103,1.21846967915e-07,0.0,0.0,0.0,1.21846967915e-07,0.0,0.0,0.0,1.21846967915e-07,0.0392266,0.48052585,10.7677017,9e-08,0.0,0.0,0.0,9e-08,0.0,0.0,0.0,9e-08
1536681821196909984,2445,1536681821196392128,base_link,-0.0642737789258,0.000324822533244,-0.0440551039823,-0.996959339013,1.0,0.0,0.0,0.0,1.0,0.0,0.0,0.0,1.0,-0.0333005748689,-0.0323208905756,0.0502497293055,1.21846967915e-07,0.0,0.0,0.0,1.21846967915e-07,0.0,0.0,0.0,1.21846967915e-07,0.2157463,0.5687857,11.4345539,9e-08,0.0,0.0,0.0,9e-08,0.0,0.0,0.0,9e-08
1536681821543534464,2446,1536681821543290624,base_link,-0.0516485859975,0.00490367784209,-0.0482876093112,-0.997485179988,1.0,0.0,0.0,0.0,1.0,0.0,0.0,0.0,1.0,-0.0684322789311,0.0336821526289,-0.00084944057744,1.21846967915e-07,0.0,0.0,0.0,1.21846967915e-07,0.0,0.0,0.0,1.21846967915e-07,0.1372931,0.61781895,10.787315,9e-08,0.0,0.0,0.0,9e-08,0.0,0.0,0.0,9e-08
1536681821959933280,2447,1536681821959609568,base_link,-0.0398367055322,-0.011030649267,-0.0430504767175,-0.998217420266,1.0,0.0,0.0,0.0,1.0,0.0,0.0,0.0,1.0,-0.0309081915766,0.0262882467359,-0.0371223390102,1.21846967915e-07,0.0,0.0,0.0,1.21846967915e-07,0.0,0.0,0.0,1.21846967915e-07,-0.0588399,0.588399,8.3356525,9e-08,0.0,0.0,0.0,9e-08,0.0,0.0,0.0,9e-08
1536681822396925888,2448,1536681822396674368,base_link,-0.0384449821013,-0.0158210437777,-0.0355492395986,-0.998502844006,1.0,0.0,0.0,0.0,1.0,0.0,0.0,0.0,1.0,0.0422377511859,0.0517203100026,-0.00454235402867,1.21846967915e-07,0.0,0.0,0.0,1.21846967915e-07,0.0,0.0,0.0,1.21846967915e-07,0.18632635,0.2941995,9.38496405,9e-08,0.0,0.0,0.0,9e-08,0.0,0.0,0.0,9e-08
1536681822774757568,2449,1536681822774567104,base_link,-0.0447462147535,-0.017022724742,-0.0390966552949,-0.998087899262,1.0,0.0,0.0,0.0,1.0,0.0,0.0,0.0,1.0,0.0989404693246,0.0182434413582,0.0388408452272,1.21846967915e-07,0.0,0.0,0.0,1.21846967915e-07,0.0,0.0,0.0,1.21846967915e-07,0.12748645,0.36284605,9.9243298,9e-08,0.0,0.0,0.0,9e-08,0.0,0.0,0.0,9e-08
1536681823170629664,2450,1536681823170353440,base_link,-0.0708983710219,-0.015322699329,-0.045406943882,-0.996331694427,1.0,0.0,0.0,0.0,1.0,0.0,0.0,0.0,1.0,0.224404394627,-0.0286828689277,0.0142627842724,1.21846967915e-07,0.0,0.0,0.0,1.21846967915e-07,0.0,0.0,0.0,1.21846967915e-07,0.1176798,0.46091255,9.60071035,9e-08,0.0,0.0,0.0,9e-08,0.0,0.0,0.0,9e-08
1536681823662432032,2451,1536681823661954720,base_link,-0.12943588008,-0.0164097018149,-0.0328907081761,-0.990906290196,1.0,0.0,0.0,0.0,1.0,0.0,0.0,0.0,1.0,0.256182551384,-0.0341649465263,-0.0814269781113,1.21846967915e-07,0.0,0.0,0.0,1.21846967915e-07,0.0,0.0,0.0,1.21846967915e-07,0.18632635,0.67665885,10.002783,9e-08,0.0,0.0,0.0,9e-08,0.0,0.0,0.0,9e-08
1536681823992899904,2452,1536681823992608224,base_link,-0.171832921544,-0.0191521613486,-0.0140971163058,-0.98483902903,1.0,0.0,0.0,0.0,1.0,0.0,0.0,0.0,1.0,0.314702749252,0.0121277840808,-0.156274408102,1.21846967915e-07,0.0,0.0,0.0,1.21846967915e-07,0.0,0.0,0.0,1.21846967915e-07,0.30400615,0.7256921,9.81645665,9e-08,0.0,0.0,0.0,9e-08,0.0,0.0,0.0,9e-08
1536681824372972352,2453,1536681824372736800,base_link,-0.234517074457,-0.0138853207905,0.0166424195155,-0.971870346048,1.0,0.0,0.0,0.0,1.0,0.0,0.0,0.0,1.0,0.341402590275,-0.141969993711,-0.135962203145,1.21846967915e-07,0.0,0.0,0.0,1.21846967915e-07,0.0,0.0,0.0,1.21846967915e-07,0.3334261,0.55897905,10.75789505,9e-08,0.0,0.0,0.0,9e-08,0.0,0.0,0.0,9e-08
1536681824838235776,2454,1536681824837917984,base_link,-0.285247328101,0.00820828568144,0.0629225345394,-0.956351055055,1.0,0.0,0.0,0.0,1.0,0.0,0.0,0.0,1.0,0.14494599402,-0.0710136666894,-0.211532726884,1.21846967915e-07,0.0,0.0,0.0,1.21846967915e-07,0.0,0.0,0.0,1.21846967915e-07,0.6864655,1.04931155,11.44436055,9e-08,0.0,0.0,0.0,9e-08,0.0,0.0,0.0,9e-08
1536681825306865632,2455,1536681825306644224,base_link,-0.328782965641,0.0272448571624,0.130092523475,-0.935005569287,1.0,0.0,0.0,0.0,1.0,0.0,0.0,0.0,1.0,0.0924177914858,-0.170335695148,-0.289386898279,1.21846967915e-07,0.0,0.0,0.0,1.21846967915e-07,0.0,0.0,0.0,1.21846967915e-07,0.71588545,1.2552512,11.60126695,9e-08,0.0,0.0,0.0,9e-08,0.0,0.0,0.0,9e-08
1536681825703599808,2456,1536681825703010112,base_link,-0.338791643027,0.0426930993429,0.198216683679,-0.918753322821,1.0,0.0,0.0,0.0,1.0,0.0,0.0,0.0,1.0,0.0636427477002,-0.330668389797,-0.320472568274,1.21846967915e-07,0.0,0.0,0.0,1.21846967915e-07,0.0,0.0,0.0,1.21846967915e-07,0.89240515,0.85317855,11.2972608,9e-08,0.0,0.0,0.0,9e-08,0.0,0.0,0.0,9e-08
1536681826165125824,2457,1536681826164775968,base_link,-0.344679677489,0.0910634736096,0.284320395986,-0.889980491992,1.0,0.0,0.0,0.0,1.0,0.0,0.0,0.0,1.0,0.093526750803,-0.321260362864,-0.28581225872,1.21846967915e-07,0.0,0.0,0.0,1.21846967915e-07,0.0,0.0,0.0,1.21846967915e-07,1.18660465,0.980665,12.77806495,9e-08,0.0,0.0,0.0,9e-08,0.0,0.0,0.0,9e-08
1536681826480284992,2458,1536681826479832768,base_link,-0.349284962039,0.12063218768,0.340777822305,-0.864475775493,1.0,0.0,0.0,0.0,1.0,0.0,0.0,0.0,1.0,0.0494807735085,-0.258645653725,-0.297939419746,1.21846967915e-07,0.0,0.0,0.0,1.21846967915e-07,0.0,0.0,0.0,1.21846967915e-07,1.28467115,1.1375714,13.2389775,9e-08,0.0,0.0,0.0,9e-08,0.0,0.0,0.0,9e-08
1536681826896515936,2459,1536681826896280384,base_link,-0.346455043437,0.154747934501,0.411477054811,-0.828678835864,1.0,0.0,0.0,0.0,1.0,0.0,0.0,0.0,1.0,0.0560666657984,-0.307093679905,-0.296370685101,1.21846967915e-07,0.0,0.0,0.0,1.21846967915e-07,0.0,0.0,0.0,1.21846967915e-07,1.18660465,1.06892485,12.6505785,9e-08,0.0,0.0,0.0,9e-08,0.0,0.0,0.0,9e-08
1536681827120845632,2460,1536681827120384480,base_link,-0.337909485044,0.178435698964,0.449183980478,-0.807596206612,1.0,0.0,0.0,0.0,1.0,0.0,0.0,0.0,1.0,0.00395851396024,-0.370417714119,-0.250060886145,1.21846967915e-07,0.0,0.0,0.0,1.21846967915e-07,0.0,0.0,0.0,1.21846967915e-07,1.1571847,0.87279185,13.6508568,9e-08,0.0,0.0,0.0,9e-08,0.0,0.0,0.0,9e-08
1536681827556494432,2461,1536681827556048160,base_link,-0.30043819877,0.231961121343,0.525462667229,-0.761459068009,1.0,0.0,0.0,0.0,1.0,0.0,0.0,0.0,1.0,-0.0525629743934,-0.316189557314,-0.281502872705,1.21846967915e-07,0.0,0.0,0.0,1.21846967915e-07,0.0,0.0,0.0,1.21846967915e-07,1.2944778,1.34351105,16.1221326,9e-08,0.0,0.0,0.0,9e-08,0.0,0.0,0.0,9e-08
1536681827868026592,2462,1536681827867797632,base_link,-0.264403824519,0.247231811017,0.584571349847,-0.726115270559,1.0,0.0,0.0,0.0,1.0,0.0,0.0,0.0,1.0,-0.13650034368,-0.318475246429,-0.327705949545,1.21846967915e-07,0.0,0.0,0.0,1.21846967915e-07,0.0,0.0,0.0,1.21846967915e-07,1.2356379,1.06892485,14.709975,9e-08,0.0,0.0,0.0,9e-08,0.0,0.0,0.0,9e-08
1536681828313299936,2463,1536681828312878688,base_link,-0.220078645754,0.243848017037,0.652294158434,-0.683092867144,1.0,0.0,0.0,0.0,1.0,0.0,0.0,0.0,1.0,-0.246035963297,-0.169328972697,-0.233723223209,1.21846967915e-07,0.0,0.0,0.0,1.21846967915e-07,0.0,0.0,0.0,1.21846967915e-07,0.4118793,0.7256921,11.3561007,9e-08,0.0,0.0,0.0,9e-08,0.0,0.0,0.0,9e-08
1536681828818388128,2464,1536681828817900512,base_link,0.131578296919,-0.1934623704,-0.72476177042,0.648058515226,1.0,0.0,0.0,0.0,1.0,0.0,0.0,0.0,1.0,-0.514925539494,-0.157937288284,-0.293582886457,1.21846967915e-07,0.0,0.0,0.0,1.21846967915e-07,0.0,0.0,0.0,1.21846967915e-07,-0.0784532,0.8433719,13.07226445,9e-08,0.0,0.0,0.0,9e-08,0.0,0.0,0.0,9e-08
1536681829274415840,2465,1536681829268527936,base_link,0.0630643347908,-0.120326149851,-0.777062245844,0.614588295873,1.0,0.0,0.0,0.0,1.0,0.0,0.0,0.0,1.0,-0.547528505325,0.0134983891621,-0.158833235502,1.21846967915e-07,0.0,0.0,0.0,1.21846967915e-07,0.0,0.0,0.0,1.21846967915e-07,-0.28439285,0.48052585,11.89546645,9e-08,0.0,0.0,0.0,9e-08,0.0,0.0,0.0,9e-08
1536681829619083648,2466,1536681829618688544,base_link,0.0192240766143,-0.0533686183623,-0.79430004862,0.604871604735,1.0,0.0,0.0,0.0,1.0,0.0,0.0,0.0,1.0,-0.315741091967,0.0358376652002,-0.0662134960294,1.21846967915e-07,0.0,0.0,0.0,1.21846967915e-07,0.0,0.0,0.0,1.21846967915e-07,-0.59820565,0.36284605,8.6494653,9e-08,0.0,0.0,0.0,9e-08,0.0,0.0,0.0,9e-08
1536681830064018112,2467,1536681830063796448,base_link,-0.0092942373097,-0.00575446314383,-0.801389646485,0.59804275584,1.0,0.0,0.0,0.0,1.0,0.0,0.0,0.0,1.0,-0.205706372857,0.0853732004762,-0.034696046263,1.21846967915e-07,0.0,0.0,0.0,1.21846967915e-07,0.0,0.0,0.0,1.21846967915e-07,-0.55897905,0.1176798,7.7276402,9e-08,0.0,0.0,0.0,9e-08,0.0,0.0,0.0,9e-08
1536681830568651776,2468,1536681830568088544,base_link,-0.00236987393283,0.0521875753572,-0.79518555175,0.604111561686,1.0,0.0,0.0,0.0,1.0,0.0,0.0,0.0,1.0,-0.0873847156763,0.19448146224,0.0713808387518,1.21846967915e-07,0.0,0.0,0.0,1.21846967915e-07,0.0,0.0,0.0,1.21846967915e-07,-0.87279185,0.38245935,6.4331624,9e-08,0.0,0.0,0.0,9e-08,0.0,0.0,0.0,9e-08
1536681830994374688,2469,1536681830994108896,base_link,0.0136856612484,0.0889837165022,-0.789143328706,0.607575022225,1.0,0.0,0.0,0.0,1.0,0.0,0.0,0.0,1.0,-0.0393930822611,0.202687963843,0.016982877627,1.21846967915e-07,0.0,0.0,0.0,1.21846967915e-07,0.0,0.0,0.0,1.21846967915e-07,-0.69627215,0.16671305,9.05153795,9e-08,0.0,0.0,0.0,9e-08,0.0,0.0,0.0,9e-08
1536681831398657088,2470,1536681831398408800,base_link,0.0291183756479,0.095323853299,-0.778024301895,0.620277090382,1.0,0.0,0.0,0.0,1.0,0.0,0.0,0.0,1.0,-0.0345958396792,0.0625814124942,0.153560712934,1.21846967915e-07,0.0,0.0,0.0,1.21846967915e-07,0.0,0.0,0.0,1.21846967915e-07,-0.7256921,-0.06864655,9.34573745,9e-08,0.0,0.0,0.0,9e-08,0.0,0.0,0.0,9e-08
1536681831755444736,2471,1536681831753096992,base_link,0.021168144115,0.113537599282,-0.754158757303,0.64645625684,1.0,0.0,0.0,0.0,1.0,0.0,0.0,0.0,1.0,-0.11282068491,-0.0171536169946,0.15567214787,1.21846967915e-07,0.0,0.0,0.0,1.21846967915e-07,0.0,0.0,0.0,1.21846967915e-07,-0.8629852,0.38245935,9.69877685,9e-08,0.0,0.0,0.0,9e-08,0.0,0.0,0.0,9e-08
1536681832237692288,2472,1536681832237435328,base_link,0.0234047423368,0.118252606948,-0.740137482922,0.661562578567,1.0,0.0,0.0,0.0,1.0,0.0,0.0,0.0,1.0,0.179193988442,-0.0270960014313,0.0719825848937,1.21846967915e-07,0.0,0.0,0.0,1.21846967915e-07,0.0,0.0,0.0,1.21846967915e-07,-0.5687857,-0.04903325,10.85596155,9e-08,0.0,0.0,0.0,9e-08,0.0,0.0,0.0,9e-08
1536681832648918304,2473,1536681832648476320,base_link,0.0376523675244,0.0943596222418,-0.722710789591,0.683642944466,1.0,0.0,0.0,0.0,1.0,0.0,0.0,0.0,1.0,-0.0313546918333,-0.0546408034861,0.122668601573,1.21846967915e-07,0.0,0.0,0.0,1.21846967915e-07,0.0,0.0,0.0,1.21846967915e-07,-0.588399,0.38245935,10.56176205,9e-08,0.0,0.0,0.0,9e-08,0.0,0.0,0.0,9e-08
1536681833008226976,2474,1536681833006297472,base_link,0.0341725898768,0.0755488766919,-0.711586275778,0.697688736799,1.0,0.0,0.0,0.0,1.0,0.0,0.0,0.0,1.0,0.0683294981718,-0.0934641733766,0.109103806317,1.21846967915e-07,0.0,0.0,0.0,1.21846967915e-07,0.0,0.0,0.0,1.21846967915e-07,-0.83356525,0.2549729,10.89518815,9e-08,0.0,0.0,0.0,9e-08,0.0,0.0,0.0,9e-08
1536681833319009888,2475,1536681833318661472,base_link,-0.0292540101855,-0.0545113220937,0.698112971342,-0.713309889106,1.0,0.0,0.0,0.0,1.0,0.0,0.0,0.0,1.0,0.0816534757614,-0.0814831703901,0.120578825474,1.21846967915e-07,0.0,0.0,0.0,1.21846967915e-07,0.0,0.0,0.0,1.21846967915e-07,-0.5491724,0.44129925,12.6113519,9e-08,0.0,0.0,0.0,9e-08,0.0,0.0,0.0,9e-08
1536681833649568416,2476,1536681833649238720,base_link,-0.0318564245626,-0.0321903020621,0.688056856338,-0.72424216607,1.0,0.0,0.0,0.0,1.0,0.0,0.0,0.0,1.0,0.0767787545919,-0.0908994153142,0.0254408773035,1.21846967915e-07,0.0,0.0,0.0,1.21846967915e-07,0.0,0.0,0.0,1.21846967915e-07,-0.7649187,0.9610517,12.38579895,9e-08,0.0,0.0,0.0,9e-08,0.0,0.0,0.0,9e-08
1536681833945530400,2477,1536681833945301824,base_link,-0.029252411487,-0.0221956370752,0.685782538583,-0.726879604812,1.0,0.0,0.0,0.0,1.0,0.0,0.0,0.0,1.0,0.0226238332689,0.0604107864201,0.0170123130083,1.21846967915e-07,0.0,0.0,0.0,1.21846967915e-07,0.0,0.0,0.0,1.21846967915e-07,-0.63743225,0.3530394,10.5715687,9e-08,0.0,0.0,0.0,9e-08,0.0,0.0,0.0,9e-08
1536681834320001728,2478,1536681834317074048,base_link,-0.0422065950713,-0.01693151547,0.680417802163,-0.731412019053,1.0,0.0,0.0,0.0,1.0,0.0,0.0,0.0,1.0,0.20922575891,0.0219859965146,0.0525615513325,1.21846967915e-07,0.0,0.0,0.0,1.21846967915e-07,0.0,0.0,0.0,1.21846967915e-07,-0.8433719,0.4314926,8.825985,9e-08,0.0,0.0,0.0,9e-08,0.0,0.0,0.0,9e-08
1536681834635835232,2479,1536681834634748736,base_link,-0.0685765430584,-0.00888393326746,0.680288976011,-0.729674751235,1.0,0.0,0.0,0.0,1.0,0.0,0.0,0.0,1.0,0.152076974511,0.0463202409446,-0.0452054813504,1.21846967915e-07,0.0,0.0,0.0,1.21846967915e-07,0.0,0.0,0.0,1.21846967915e-07,-0.91201845,0.5687857,7.36479415,9e-08,0.0,0.0,0.0,9e-08,0.0,0.0,0.0,9e-08
1536681835043186688,2480,1536681835041243936,base_link,-0.0888666243616,0.0106603906897,0.688062569054,-0.720110394461,1.0,0.0,0.0,0.0,1.0,0.0,0.0,0.0,1.0,0.228698089719,-0.0289038494229,-0.0375354215503,1.21846967915e-07,0.0,0.0,0.0,1.21846967915e-07,0.0,0.0,0.0,1.21846967915e-07,-0.7256921,0.2157463,8.0022264,9e-08,0.0,0.0,0.0,9e-08,0.0,0.0,0.0,9e-08
1536681835415419872,2481,1536681835414895552,base_link,-0.0991749540175,0.0249818849678,0.682830949004,-0.723382422375,1.0,0.0,0.0,0.0,1.0,0.0,0.0,0.0,1.0,-0.0645481273532,-0.0491087250412,0.0505784712732,1.21846967915e-07,0.0,0.0,0.0,1.21846967915e-07,0.0,0.0,0.0,1.21846967915e-07,-0.71588545,0.48052585,8.44352565,9e-08,0.0,0.0,0.0,9e-08,0.0,0.0,0.0,9e-08
1536681835845709344,2482,1536681835845414176,base_link,-0.111120090368,0.025904136661,0.687907302323,-0.716773914586,1.0,0.0,0.0,0.0,1.0,0.0,0.0,0.0,1.0,0.155491098762,0.10822827369,-0.0960721075535,1.21846967915e-07,0.0,0.0,0.0,1.21846967915e-07,0.0,0.0,0.0,1.21846967915e-07,-0.392266,0.50013915,10.395049,9e-08,0.0,0.0,0.0,9e-08,0.0,0.0,0.0,9e-08
1536681836232891520,2483,1536681836232646752,base_link,-0.153343362789,0.0615960613468,0.697716243275,-0.697053643693,1.0,0.0,0.0,0.0,1.0,0.0,0.0,0.0,1.0,0.583249032497,-0.0508210062981,-0.0392989031971,1.21846967915e-07,0.0,0.0,0.0,1.21846967915e-07,0.0,0.0,0.0,1.21846967915e-07,-0.2549729,0.0392266,10.6696352,9e-08,0.0,0.0,0.0,9e-08,0.0,0.0,0.0,9e-08
1536681836590646624,2484,1536681836589411392,base_link,-0.171056515734,0.106540932536,0.690565069495,-0.694628377561,1.0,0.0,0.0,0.0,1.0,0.0,0.0,0.0,1.0,0.0469989776611,-0.125888735056,0.0251958146691,1.21846967915e-07,0.0,0.0,0.0,1.21846967915e-07,0.0,0.0,0.0,1.21846967915e-07,-0.22555295,0.8629852,11.79739995,9e-08,0.0,0.0,0.0,9e-08,0.0,0.0,0.0,9e-08
1536681836876577248,2485,1536681836876038880,base_link,0.178303504219,-0.124282936376,-0.698116715129,0.68219840528,1.0,0.0,0.0,0.0,1.0,0.0,0.0,0.0,1.0,0.135306030512,-0.107806667686,-0.157451868057,1.21846967915e-07,0.0,0.0,0.0,1.21846967915e-07,0.0,0.0,0.0,1.21846967915e-07,0.0392266,1.08853815,10.1793027,9e-08,0.0,0.0,0.0,9e-08,0.0,0.0,0.0,9e-08
1536681837340997536,2486,1536681837340385632,base_link,0.202568061454,-0.164075855386,-0.735453116619,0.625423062745,1.0,0.0,0.0,0.0,1.0,0.0,0.0,0.0,1.0,0.258475095034,-0.144037544727,-0.326517641544,1.21846967915e-07,0.0,0.0,0.0,1.21846967915e-07,0.0,0.0,0.0,1.21846967915e-07,0.08825985,0.7256921,11.5522337,9e-08,0.0,0.0,0.0,9e-08,0.0,0.0,0.0,9e-08
1536681837670610624,2487,1536681837670172160,base_link,0.224032254219,-0.211472420933,-0.754269452267,0.579798721654,1.0,0.0,0.0,0.0,1.0,0.0,0.0,0.0,1.0,0.303295522928,-0.192924723029,-0.158020615578,1.21846967915e-07,0.0,0.0,0.0,1.21846967915e-07,0.0,0.0,0.0,1.21846967915e-07,0.34323275,0.57859235,11.34629405,9e-08,0.0,0.0,0.0,9e-08,0.0,0.0,0.0,9e-08
1536681838043720512,2488,1536681838043158752,base_link,0.216330923255,-0.248714414146,-0.777017649964,0.536270121752,1.0,0.0,0.0,0.0,1.0,0.0,0.0,0.0,1.0,0.239627420902,-0.216566711664,-0.214155092835,1.21846967915e-07,0.0,0.0,0.0,1.21846967915e-07,0.0,0.0,0.0,1.21846967915e-07,0.40207265,0.83356525,13.2978174,9e-08,0.0,0.0,0.0,9e-08,0.0,0.0,0.0,9e-08
1536681838405374848,2489,1536681838404800800,base_link,0.206023054502,-0.293790398274,-0.797502998648,0.485005845369,1.0,0.0,0.0,0.0,1.0,0.0,0.0,0.0,1.0,0.106062591076,-0.323190480471,-0.2282987535,1.21846967915e-07,0.0,0.0,0.0,1.21846967915e-07,0.0,0.0,0.0,1.21846967915e-07,0.59820565,0.8433719,12.58193195,9e-08,0.0,0.0,0.0,9e-08,0.0,0.0,0.0,9e-08
1536681838735093600,2490,1536681838734247872,base_link,0.190859948705,-0.329838174238,-0.819229170817,0.428535674685,1.0,0.0,0.0,0.0,1.0,0.0,0.0,0.0,1.0,0.0068650492467,-0.364995628595,-0.319343179464,1.21846967915e-07,0.0,0.0,0.0,1.21846967915e-07,0.0,0.0,0.0,1.21846967915e-07,0.61781895,1.3533177,11.9837263,9e-08,0.0,0.0,0.0,9e-08,0.0,0.0,0.0,9e-08
1536681839137326464,2491,1536681839135682560,base_link,0.156721678518,-0.345149337404,-0.853925730264,0.356540457121,1.0,0.0,0.0,0.0,1.0,0.0,0.0,0.0,1.0,0.0509758964181,-0.226277962327,-0.299340873957,1.21846967915e-07,0.0,0.0,0.0,1.21846967915e-07,0.0,0.0,0.0,1.21846967915e-07,1.2356379,1.2944778,14.26867575,9e-08,0.0,0.0,0.0,9e-08,0.0,0.0,0.0,9e-08
1536681839541224448,2492,1536681839540634016,base_link,0.119851135594,-0.38663343162,-0.877538056292,0.25705496418,1.0,0.0,0.0,0.0,1.0,0.0,0.0,0.0,1.0,0.0811727419496,-0.449614793062,-0.36403632164,1.21846967915e-07,0.0,0.0,0.0,1.21846967915e-07,0.0,0.0,0.0,1.21846967915e-07,1.01008495,0.784532,13.6704701,9e-08,0.0,0.0,0.0,9e-08,0.0,0.0,0.0,9e-08
1536681839996831328,2493,1536681839995199200,base_link,0.059295628517,-0.379406984928,-0.907350611435,0.171024080632,1.0,0.0,0.0,0.0,1.0,0.0,0.0,0.0,1.0,-0.18551877141,-0.364316135645,-0.286880463362,1.21846967915e-07,0.0,0.0,0.0,1.21846967915e-07,0.0,0.0,0.0,1.21846967915e-07,1.2944778,1.7063571,15.4160538,9e-08,0.0,0.0,0.0,9e-08,0.0,0.0,0.0,9e-08
1536681840353809472,2494,1536681840353535712,base_link,0.0260065751807,-0.378148200532,-0.92101480744,0.0897737208647,1.0,0.0,0.0,0.0,1.0,0.0,0.0,0.0,1.0,0.00432014465332,-0.248795375228,-0.374236524105,1.21846967915e-07,0.0,0.0,0.0,1.21846967915e-07,0.0,0.0,0.0,1.21846967915e-07,0.65704555,1.2160246,12.24850585,9e-08,0.0,0.0,0.0,9e-08,0.0,0.0,0.0,9e-08
1536681840721739648,2495,1536681840721539968,base_link,-0.0103983939243,-0.355998764753,-0.934346564717,0.0123794143202,1.0,0.0,0.0,0.0,1.0,0.0,0.0,0.0,1.0,-0.233592763543,-0.30074635148,-0.256919085979,1.21846967915e-07,0.0,0.0,0.0,1.21846967915e-07,0.0,0.0,0.0,1.21846967915e-07,0.588399,1.22583125,13.20955755,9e-08,0.0,0.0,0.0,9e-08,0.0,0.0,0.0,9e-08
1536681841152307008,2496,1536681841151956384,base_link,-0.0548116893862,-0.28422128025,-0.955093617183,-0.0633255475779,1.0,0.0,0.0,0.0,1.0,0.0,0.0,0.0,1.0,-0.514595508575,-0.280373305082,-0.248696580529,1.21846967915e-07,0.0,0.0,0.0,1.21846967915e-07,0.0,0.0,0.0,1.21846967915e-07,0.32361945,0.97085835,13.4351105,9e-08,0.0,0.0,0.0,9e-08,0.0,0.0,0.0,9e-08
1536681841632422464,2497,1536681841632207488,base_link,-0.0796770785482,-0.157441406717,-0.975397371467,-0.132150423157,1.0,0.0,0.0,0.0,1.0,0.0,0.0,0.0,1.0,-0.599177360535,-0.0804157331586,-0.188443988562,1.21846967915e-07,0.0,0.0,0.0,1.21846967915e-07,0.0,0.0,0.0,1.21846967915e-07,-0.2353596,0.87279185,12.3171524,9e-08,0.0,0.0,0.0,9e-08,0.0,0.0,0.0,9e-08
1536681841976898144,2498,1536681841975419072,base_link,-0.064512159898,-0.0810850786032,-0.979622657901,-0.172054756927,1.0,0.0,0.0,0.0,1.0,0.0,0.0,0.0,1.0,-0.452446788549,0.0269877426326,-0.16506485641,1.21846967915e-07,0.0,0.0,0.0,1.21846967915e-07,0.0,0.0,0.0,1.21846967915e-07,-0.4707192,0.48052585,10.44408225,9e-08,0.0,0.0,0.0,9e-08,0.0,0.0,0.0,9e-08
1536681842350576800,2499,1536681842350341888,base_link,-0.0475764636155,-0.013438793192,-0.980314006404,-0.191155245273,1.0,0.0,0.0,0.0,1.0,0.0,0.0,0.0,1.0,-0.240740507841,0.0759482160211,-0.00113189243712,1.21846967915e-07,0.0,0.0,0.0,1.21846967915e-07,0.0,0.0,0.0,1.21846967915e-07,-0.5491724,0.0588399,9.69877685,9e-08,0.0,0.0,0.0,9e-08,0.0,0.0,0.0,9e-08
1536681842830863424,2500,1536681842830196384,base_link,-0.00589906522977,0.029302939909,-0.981465603219,-0.189292917034,1.0,0.0,0.0,0.0,1.0,0.0,0.0,0.0,1.0,-0.161708578467,0.263717144728,0.0261416994035,1.21846967915e-07,0.0,0.0,0.0,1.21846967915e-07,0.0,0.0,0.0,1.21846967915e-07,-0.75511205,0.42168595,6.63910205,9e-08,0.0,0.0,0.0,9e-08,0.0,0.0,0.0,9e-08
1536681843265115328,2501,1536681843264655744,base_link,0.047383904422,0.0469684425846,-0.980876094505,-0.182840964312,1.0,0.0,0.0,0.0,1.0,0.0,0.0,0.0,1.0,0.0460507087409,0.274039357901,0.0335707142949,1.21846967915e-07,0.0,0.0,0.0,1.21846967915e-07,0.0,0.0,0.0,1.21846967915e-07,-0.77472535,-0.0392266,5.6290171,9e-08,0.0,0.0,0.0,9e-08,0.0,0.0,0.0,9e-08
1536681843694178432,2502,1536681843693912064,base_link,0.0797895887493,0.0416376618553,-0.982849437791,-0.160956234043,1.0,0.0,0.0,0.0,1.0,0.0,0.0,0.0,1.0,-0.0351005271077,0.0912946984172,0.144290357828,1.21846967915e-07,0.0,0.0,0.0,1.21846967915e-07,0.0,0.0,0.0,1.21846967915e-07,-0.71588545,0.4118793,7.2961476,9e-08,0.0,0.0,0.0,9e-08,0.0,0.0,0.0,9e-08
1536681844043720384,2503,1536681844041143904,base_link,0.101255376284,0.0557632832803,-0.984479131621,-0.132055459617,1.0,0.0,0.0,0.0,1.0,0.0,0.0,0.0,1.0,-0.0953200757504,0.0368142612278,0.133905306458,1.21846967915e-07,0.0,0.0,0.0,1.21846967915e-07,0.0,0.0,0.0,1.21846967915e-07,-0.61781895,0.5491724,8.20816605,9e-08,0.0,0.0,0.0,9e-08,0.0,0.0,0.0,9e-08
1536681844477287136,2504,1536681844477023328,base_link,0.0971616895401,0.0681007180898,-0.987444605575,-0.104283503981,1.0,0.0,0.0,0.0,1.0,0.0,0.0,0.0,1.0,-0.0542069002986,-0.0454760119319,0.0895829498768,1.21846967915e-07,0.0,0.0,0.0,1.21846967915e-07,0.0,0.0,0.0,1.21846967915e-07,-0.4903325,0.44129925,10.09104285,9e-08,0.0,0.0,0.0,9e-08,0.0,0.0,0.0,9e-08
1536681844903556896,2505,1536681844903042496,base_link,0.0934463573576,0.0679159123678,-0.98972683533,-0.084237750278,1.0,0.0,0.0,0.0,1.0,0.0,0.0,0.0,1.0,0.0696545392275,-0.0869110822678,0.0855506435037,1.21846967915e-07,0.0,0.0,0.0,1.21846967915e-07,0.0,0.0,0.0,1.21846967915e-07,-0.18632635,0.2157463,10.1204628,9e-08,0.0,0.0,0.0,9e-08,0.0,0.0,0.0,9e-08
1536681845325785088,2506,1536681845325475264,base_link,0.0687109830036,0.0527501138546,-0.994639173161,-0.056472484598,1.0,0.0,0.0,0.0,1.0,0.0,0.0,0.0,1.0,0.0266185868531,-0.0439983718097,0.152827128768,1.21846967915e-07,0.0,0.0,0.0,1.21846967915e-07,0.0,0.0,0.0,1.21846967915e-07,-0.14709975,0.2745862,11.91507975,9e-08,0.0,0.0,0.0,9e-08,0.0,0.0,0.0,9e-08
1536681845649051776,2507,1536681845647659968,base_link,0.0552160197102,0.0446600706187,-0.996867393185,-0.0348147908726,1.0,0.0,0.0,0.0,1.0,0.0,0.0,0.0,1.0,0.142708301544,-0.0898483321071,0.105380669236,1.21846967915e-07,0.0,0.0,0.0,1.21846967915e-07,0.0,0.0,0.0,1.21846967915e-07,0.0196133,0.392266,10.9246081,9e-08,0.0,0.0,0.0,9e-08,0.0,0.0,0.0,9e-08
1536681846156384864,2508,1536681846156146528,base_link,0.0234762609577,0.00318362627864,-0.99968916618,-0.00776535370796,1.0,0.0,0.0,0.0,1.0,0.0,0.0,0.0,1.0,0.135892748833,-0.0686247199774,0.0831830725074,1.21846967915e-07,0.0,0.0,0.0,1.21846967915e-07,0.0,0.0,0.0,1.21846967915e-07,0.2353596,0.69627215,12.4936721,9e-08,0.0,0.0,0.0,9e-08,0.0,0.0,0.0,9e-08
1536681846502483328,2509,1536681846501193440,base_link,0.0156218047082,-0.0272654496958,-0.999506002211,0.000553186573169,1.0,0.0,0.0,0.0,1.0,0.0,0.0,0.0,1.0,0.223138615489,-0.0214303843677,0.00501220021397,1.21846967915e-07,0.0,0.0,0.0,1.21846967915e-07,0.0,0.0,0.0,1.21846967915e-07,0.2353596,0.5687857,11.91507975,9e-08,0.0,0.0,0.0,9e-08,0.0,0.0,0.0,9e-08
1536681846697706240,2510,1536681846697134144,base_link,0.0177853685388,-0.0448752460971,-0.99883400612,-0.000721922736488,1.0,0.0,0.0,0.0,1.0,0.0,0.0,0.0,1.0,0.187154695392,0.00250785984099,-0.037527281791,1.21846967915e-07,0.0,0.0,0.0,1.21846967915e-07,0.0,0.0,0.0,1.21846967915e-07,0.20593965,0.53936575,10.03220295,9e-08,0.0,0.0,0.0,9e-08,0.0,0.0,0.0,9e-08
1536681847048642816,2511,1536681847048197088,base_link,0.00645173940921,-0.0818260271646,-0.99661144237,-0.00533940765919,1.0,0.0,0.0,0.0,1.0,0.0,0.0,0.0,1.0,0.216229841113,-0.0374916531146,0.00313935661688,1.21846967915e-07,0.0,0.0,0.0,1.21846967915e-07,0.0,0.0,0.0,1.21846967915e-07,0.22555295,0.24516625,11.62088025,9e-08,0.0,0.0,0.0,9e-08,0.0,0.0,0.0,9e-08
1536681847519315872,2512,1536681847518200384,base_link,-0.0153408238362,-0.0966390838707,-0.995199582496,0.00182690766662,1.0,0.0,0.0,0.0,1.0,0.0,0.0,0.0,1.0,-0.0578126385808,-0.0506135337055,0.0181724000722,1.21846967915e-07,0.0,0.0,0.0,1.21846967915e-07,0.0,0.0,0.0,1.21846967915e-07,0.3530394,0.588399,11.7287534,9e-08,0.0,0.0,0.0,9e-08,0.0,0.0,0.0,9e-08
1536681847963254880,2513,1536681847957064288,base_link,-0.018814544103,-0.0773701301843,-0.996812127175,-0.00504569147801,1.0,0.0,0.0,0.0,1.0,0.0,0.0,0.0,1.0,-0.0176852885634,-0.00324488384649,-0.063558794558,1.21846967915e-07,0.0,0.0,0.0,1.21846967915e-07,0.0,0.0,0.0,1.21846967915e-07,0.2745862,0.4707192,9.3751574,9e-08,0.0,0.0,0.0,9e-08,0.0,0.0,0.0,9e-08
1536681848266834560,2514,1536681848266584416,base_link,-0.0116709349473,-0.0771109417586,-0.99680867627,-0.017033932366,1.0,0.0,0.0,0.0,1.0,0.0,0.0,0.0,1.0,0.0417748950422,-0.0300756301731,-0.0769499987364,1.21846967915e-07,0.0,0.0,0.0,1.21846967915e-07,0.0,0.0,0.0,1.21846967915e-07,0.1372931,0.4707192,8.52197885,9e-08,0.0,0.0,0.0,9e-08,0.0,0.0,0.0,9e-08
1536681848623599104,2515,1536681848623355552,base_link,-0.0223234964674,-0.0875138511381,-0.995645288662,-0.023096461402,1.0,0.0,0.0,0.0,1.0,0.0,0.0,0.0,1.0,0.142312407494,-0.0745012611151,0.0151709550992,1.21846967915e-07,0.0,0.0,0.0,1.21846967915e-07,0.0,0.0,0.0,1.21846967915e-07,0.32361945,0.44129925,11.1403544,9e-08,0.0,0.0,0.0,9e-08,0.0,0.0,0.0,9e-08
1536681848902263680,2516,1536681848900998240,base_link,-0.0259139166016,-0.0858281003286,-0.995779444135,-0.0196291812802,1.0,0.0,0.0,0.0,1.0,0.0,0.0,0.0,1.0,-0.0816063955426,0.0889826118946,0.0273416209966,1.21846967915e-07,0.0,0.0,0.0,1.21846967915e-07,0.0,0.0,0.0,1.21846967915e-07,0.44129925,0.69627215,10.16949605,9e-08,0.0,0.0,0.0,9e-08,0.0,0.0,0.0,9e-08
1536681849207521856,2517,1536681849206168192,base_link,-0.0196254822313,-0.0694462625102,-0.997171642189,-0.0209945965751,1.0,0.0,0.0,0.0,1.0,0.0,0.0,0.0,1.0,-0.120134063065,0.0298487097025,-0.0407595299184,1.21846967915e-07,0.0,0.0,0.0,1.21846967915e-07,0.0,0.0,0.0,1.21846967915e-07,0.392266,0.7453054,8.99269805,9e-08,0.0,0.0,0.0,9e-08,0.0,0.0,0.0,9e-08
1536681849452517600,2518,1536681849450159968,base_link,-0.0149617607503,-0.0593236759165,-0.997739469025,-0.0277992651267,1.0,0.0,0.0,0.0,1.0,0.0,0.0,0.0,1.0,-0.0693577975035,0.00791885424405,-0.0670551583171,1.21846967915e-07,0.0,0.0,0.0,1.21846967915e-07,0.0,0.0,0.0,1.21846967915e-07,0.2745862,0.6472389,9.0417313,9e-08,0.0,0.0,0.0,9e-08,0.0,0.0,0.0,9e-08
1536681849871087648,2519,1536681849870773312,base_link,-0.0105612365717,-0.0505845701505,-0.998063500452,-0.0346252885994,1.0,0.0,0.0,0.0,1.0,0.0,0.0,0.0,1.0,-0.0832371860743,0.0634905546904,0.0213766526431,1.21846967915e-07,0.0,0.0,0.0,1.21846967915e-07,0.0,0.0,0.0,1.21846967915e-07,0.4903325,0.4707192,11.0030613,9e-08,0.0,0.0,0.0,9e-08,0.0,0.0,0.0,9e-08
1536681850145790624,2520,1536681850145545664,base_link,-0.00198450855471,-0.0405349598775,-0.998717833375,-0.0302600074757,1.0,0.0,0.0,0.0,1.0,0.0,0.0,0.0,1.0,-0.00865504704416,-0.0393235348165,0.0162074696273,1.21846967915e-07,0.0,0.0,0.0,1.21846967915e-07,0.0,0.0,0.0,1.21846967915e-07,0.3530394,0.51975245,9.05153795,9e-08,0.0,0.0,0.0,9e-08,0.0,0.0,0.0,9e-08
1536681850496620896,2521,1536681850496303008,base_link,-0.0110051164905,-0.0368480746502,-0.998812726573,-0.0299039134711,1.0,0.0,0.0,0.0,1.0,0.0,0.0,0.0,1.0,0.0228301696479,-0.0675356686115,0.0375469513237,1.21846967915e-07,0.0,0.0,0.0,1.21846967915e-07,0.0,0.0,0.0,1.21846967915e-07,0.16671305,0.3726527,10.4146623,9e-08,0.0,0.0,0.0,9e-08,0.0,0.0,0.0,9e-08
1536681850952787744,2522,1536681850951865696,base_link,-0.0152002933511,-0.0328574732531,-0.999180005189,-0.0181288378963,1.0,0.0,0.0,0.0,1.0,0.0,0.0,0.0,1.0,0.0857745856047,0.029734916985,0.0766458958387,1.21846967915e-07,0.0,0.0,0.0,1.21846967915e-07,0.0,0.0,0.0,1.21846967915e-07,0.28439285,0.1765197,13.2193642,9e-08,0.0,0.0,0.0,9e-08,0.0,0.0,0.0,9e-08
1536681851349353280,2523,1536681851348312544,base_link,-0.00680915570236,-0.0380910553304,-0.999248448007,-0.00229042759805,1.0,0.0,0.0,0.0,1.0,0.0,0.0,0.0,1.0,0.0141593813896,0.0331470668316,0.0417522750795,1.21846967915e-07,0.0,0.0,0.0,1.21846967915e-07,0.0,0.0,0.0,1.21846967915e-07,-0.04903325,0.61781895,9.26728425,9e-08,0.0,0.0,0.0,9e-08,0.0,0.0,0.0,9e-08
1536681851592971232,2524,1536681851592463488,base_link,0.00103486831764,-0.036543155959,-0.999331405287,-0.000518852720623,1.0,0.0,0.0,0.0,1.0,0.0,0.0,0.0,1.0,0.0465758666396,0.106786124408,0.00687853666022,1.21846967915e-07,0.0,0.0,0.0,1.21846967915e-07,0.0,0.0,0.0,1.21846967915e-07,-0.1765197,0.28439285,8.0610663,9e-08,0.0,0.0,0.0,9e-08,0.0,0.0,0.0,9e-08
1536681851950799680,2525,1536681851948400928,base_link,0.014205936441,-0.0674047552804,-0.997608362159,-0.00568736198004,1.0,0.0,0.0,0.0,1.0,0.0,0.0,0.0,1.0,0.143740266562,0.0567515492439,-0.045035045594,1.21846967915e-07,0.0,0.0,0.0,1.21846967915e-07,0.0,0.0,0.0,1.21846967915e-07,-0.12748645,0.5099458,7.77667345,9e-08,0.0,0.0,0.0,9e-08,0.0,0.0,0.0,9e-08
1536681852424348608,2526,1536681852422494368,base_link,0.0230606284866,-0.0804501119893,-0.996317428429,-0.0186431945357,1.0,0.0,0.0,0.0,1.0,0.0,0.0,0.0,1.0,0.121715709567,0.0556969419122,-0.0843403711915,1.21846967915e-07,0.0,0.0,0.0,1.21846967915e-07,0.0,0.0,0.0,1.21846967915e-07,0.04903325,0.6080123,8.6886919,9e-08,0.0,0.0,0.0,9e-08,0.0,0.0,0.0,9e-08
1536681852858090176,2527,1536681852857672896,base_link,0.0233511860117,-0.072852013207,-0.99642076405,-0.0359578538514,1.0,0.0,0.0,0.0,1.0,0.0,0.0,0.0,1.0,-0.0374255180359,0.0150636676699,-0.0636155158281,1.21846967915e-07,0.0,0.0,0.0,1.21846967915e-07,0.0,0.0,0.0,1.21846967915e-07,0.1176798,0.5099458,10.2969825,9e-08,0.0,0.0,0.0,9e-08,0.0,0.0,0.0,9e-08
1536681853258161632,2528,1536681853257838752,base_link,0.0233461604439,-0.0663518119988,-0.996788387697,-0.0382792893059,1.0,0.0,0.0,0.0,1.0,0.0,0.0,0.0,1.0,-0.0628414303064,-0.0505796708167,-0.0374224297702,1.21846967915e-07,0.0,0.0,0.0,1.21846967915e-07,0.0,0.0,0.0,1.21846967915e-07,0.0,0.75511205,9.38496405,9e-08,0.0,0.0,0.0,9e-08,0.0,0.0,0.0,9e-08
1536681853661346720,2529,1536681853660397184,base_link,0.0109799243726,-0.0663762792796,-0.996673206394,-0.0460016354784,1.0,0.0,0.0,0.0,1.0,0.0,0.0,0.0,1.0,0.0630974471569,0.0463525652885,-0.0264983754605,1.21846967915e-07,0.0,0.0,0.0,1.21846967915e-07,0.0,0.0,0.0,1.21846967915e-07,0.2157463,0.6864655,12.1994726,9e-08,0.0,0.0,0.0,9e-08,0.0,0.0,0.0,9e-08
1536681854121975328,2530,1536681854121721600,base_link,0.0159968669786,-0.0549366865236,-0.997034081242,-0.0514694235638,1.0,0.0,0.0,0.0,1.0,0.0,0.0,0.0,1.0,-0.0821541473269,0.0180673766881,-0.0184236951172,1.21846967915e-07,0.0,0.0,0.0,1.21846967915e-07,0.0,0.0,0.0,1.21846967915e-07,0.0784532,0.7256921,9.77723005,9e-08,0.0,0.0,0.0,9e-08,0.0,0.0,0.0,9e-08
1536681854395550752,2531,1536681854395247392,base_link,0.0189972930739,-0.0663891022319,-0.995997455722,-0.0567508427791,1.0,0.0,0.0,0.0,1.0,0.0,0.0,0.0,1.0,0.0892373248935,-0.00188821053598,-0.0398516058922,1.21846967915e-07,0.0,0.0,0.0,1.21846967915e-07,0.0,0.0,0.0,1.21846967915e-07,0.1176798,0.5491724,8.85540495,9e-08,0.0,0.0,0.0,9e-08,0.0,0.0,0.0,9e-08
1536681854861292288,2532,1536681854860933056,base_link,0.0121749812366,-0.0647577491263,-0.996132730913,-0.0581187247276,1.0,0.0,0.0,0.0,1.0,0.0,0.0,0.0,1.0,-0.0783210620284,-0.0668629854918,0.0398054793477,1.21846967915e-07,0.0,0.0,0.0,1.21846967915e-07,0.0,0.0,0.0,1.21846967915e-07,0.12748645,0.44129925,9.79684335,9e-08,0.0,0.0,0.0,9e-08,0.0,0.0,0.0,9e-08
1536681855303560064,2533,1536681855303285792,base_link,0.010442614163,-0.0450878756891,-0.997311303501,-0.0568172437214,1.0,0.0,0.0,0.0,1.0,0.0,0.0,0.0,1.0,-0.0513013117015,-0.0108343036845,-0.00257554417476,1.21846967915e-07,0.0,0.0,0.0,1.21846967915e-07,0.0,0.0,0.0,1.21846967915e-07,0.2549729,0.4511059,10.2185293,9e-08,0.0,0.0,0.0,9e-08,0.0,0.0,0.0,9e-08
1536681855690351936,2534,1536681855690189280,base_link,0.0115244318841,-0.0403373495068,-0.997484456938,-0.0571388122973,1.0,0.0,0.0,0.0,1.0,0.0,0.0,0.0,1.0,-0.0283774659038,-0.0702363178134,-0.00540115172043,1.21846967915e-07,0.0,0.0,0.0,1.21846967915e-07,0.0,0.0,0.0,1.21846967915e-07,0.22555295,0.392266,10.3558224,9e-08,0.0,0.0,0.0,9e-08,0.0,0.0,0.0,9e-08
1536681856056438272,2535,1536681856056135328,base_link,-0.00163977732333,-0.0368790437828,-0.997749642248,-0.0559723025695,1.0,0.0,0.0,0.0,1.0,0.0,0.0,0.0,1.0,0.00125860294793,-0.0158055946231,0.026473145932,1.21846967915e-07,0.0,0.0,0.0,1.21846967915e-07,0.0,0.0,0.0,1.21846967915e-07,0.392266,0.2941995,11.48358715,9e-08,0.0,0.0,0.0,9e-08,0.0,0.0,0.0,9e-08
1536681856599920192,2536,1536681856597694880,base_link,-0.0146565367783,-0.0276745419687,-0.998624998268,-0.0420406766203,1.0,0.0,0.0,0.0,1.0,0.0,0.0,0.0,1.0,0.0121089974418,-0.0660007670522,0.0378352515399,1.21846967915e-07,0.0,0.0,0.0,1.21846967915e-07,0.0,0.0,0.0,1.21846967915e-07,0.4903325,0.61781895,10.8657682,9e-08,0.0,0.0,0.0,9e-08,0.0,0.0,0.0,9e-08
1536681857007912576,2537,1536681857007513504,base_link,-0.0213358123609,-0.0311873576594,-0.998607054135,-0.0368250358511,1.0,0.0,0.0,0.0,1.0,0.0,0.0,0.0,1.0,0.0660532414913,0.00781148904935,0.0191877037287,1.21846967915e-07,0.0,0.0,0.0,1.21846967915e-07,0.0,0.0,0.0,1.21846967915e-07,0.28439285,0.5099458,10.65982855,9e-08,0.0,0.0,0.0,9e-08,0.0,0.0,0.0,9e-08
1536681857302954720,2538,1536681857299416096,base_link,-0.0198550920673,-0.037580112673,-0.998534870364,-0.0334906422527,1.0,0.0,0.0,0.0,1.0,0.0,0.0,0.0,1.0,0.0375975184143,0.0172894969583,0.0198654290289,1.21846967915e-07,0.0,0.0,0.0,1.21846967915e-07,0.0,0.0,0.0,1.21846967915e-07,0.3334261,0.36284605,9.81645665,9e-08,0.0,0.0,0.0,9e-08,0.0,0.0,0.0,9e-08
1536681857597399264,2539,1536681857597174080,base_link,-0.0166509248469,-0.0477505500798,-0.998260702126,-0.0303018524229,1.0,0.0,0.0,0.0,1.0,0.0,0.0,0.0,1.0,0.110150717199,0.0329819954932,0.0210575647652,1.21846967915e-07,0.0,0.0,0.0,1.21846967915e-07,0.0,0.0,0.0,1.21846967915e-07,0.16671305,0.46091255,9.4928372,9e-08,0.0,0.0,0.0,9e-08,0.0,0.0,0.0,9e-08
1536681857994550784,2540,1536681857994337184,base_link,-0.0119722090922,-0.0612941807913,-0.997707964423,-0.026048173386,1.0,0.0,0.0,0.0,1.0,0.0,0.0,0.0,1.0,0.0732370242476,0.0397370494902,0.0070500317961,1.21846967915e-07,0.0,0.0,0.0,1.21846967915e-07,0.0,0.0,0.0,1.21846967915e-07,0.24516625,0.69627215,9.4339973,9e-08,0.0,0.0,0.0,9e-08,0.0,0.0,0.0,9e-08
1536681858298606784,2541,1536681858296121728,base_link,-0.00722565485331,-0.0747021502017,-0.996790544764,-0.0278565707883,1.0,0.0,0.0,0.0,1.0,0.0,0.0,0.0,1.0,0.125997915864,0.040299680084,-0.0311347097158,1.21846967915e-07,0.0,0.0,0.0,1.21846967915e-07,0.0,0.0,0.0,1.21846967915e-07,0.2941995,0.53936575,9.67916355,9e-08,0.0,0.0,0.0,9e-08,0.0,0.0,0.0,9e-08
1536681858789600608,2542,1536681858789310880,base_link,0.00382446729318,-0.12215659564,-0.99162359903,-0.0417825015773,1.0,0.0,0.0,0.0,1.0,0.0,0.0,0.0,1.0,0.24267347157,0.0259592216462,-0.0895724073052,1.21846967915e-07,0.0,0.0,0.0,1.21846967915e-07,0.0,0.0,0.0,1.21846967915e-07,0.1765197,0.6864655,8.9828914,9e-08,0.0,0.0,0.0,9e-08,0.0,0.0,0.0,9e-08
1536681859095533216,2543,1536681859094817600,base_link,0.00470251881832,-0.158291654696,-0.985728118141,-0.0571114303436,1.0,0.0,0.0,0.0,1.0,0.0,0.0,0.0,1.0,0.255102187395,0.0275844074786,-0.114503607154,1.21846967915e-07,0.0,0.0,0.0,1.21846967915e-07,0.0,0.0,0.0,1.21846967915e-07,0.24516625,0.69627215,9.42419065,9e-08,0.0,0.0,0.0,9e-08,0.0,0.0,0.0,9e-08
1536681859558399744,2544,1536681859558166464,base_link,-0.00660107438843,-0.207710492753,-0.974192702931,-0.0880985503488,1.0,0.0,0.0,0.0,1.0,0.0,0.0,0.0,1.0,0.162875801325,-0.113710902631,-0.135567501187,1.21846967915e-07,0.0,0.0,0.0,1.21846967915e-07,0.0,0.0,0.0,1.21846967915e-07,0.5099458,0.73549875,10.6107953,9e-08,0.0,0.0,0.0,9e-08,0.0,0.0,0.0,9e-08
1536681860000291488,2545,1536681859999179680,base_link,-0.03358935101,-0.236047924331,-0.962086537207,-0.132448585655,1.0,0.0,0.0,0.0,1.0,0.0,0.0,0.0,1.0,0.136440619826,-0.141160413623,-0.203435510397,1.21846967915e-07,0.0,0.0,0.0,1.21846967915e-07,0.0,0.0,0.0,1.21846967915e-07,0.7256921,0.89240515,11.42474725,9e-08,0.0,0.0,0.0,9e-08,0.0,0.0,0.0,9e-08
1536681860311817088,2546,1536681860311516800,base_link,-0.0512592081257,-0.24898212697,-0.952535947557,-0.167498246689,1.0,0.0,0.0,0.0,1.0,0.0,0.0,0.0,1.0,0.0985061004758,-0.163181513548,-0.209617093205,1.21846967915e-07,0.0,0.0,0.0,1.21846967915e-07,0.0,0.0,0.0,1.21846967915e-07,0.8041453,0.9022118,11.93469305,9e-08,0.0,0.0,0.0,9e-08,0.0,0.0,0.0,9e-08
1536681860735987328,2547,1536681860735750272,base_link,-0.0731169368801,-0.255783000282,-0.938952411205,-0.218168145706,1.0,0.0,0.0,0.0,1.0,0.0,0.0,0.0,1.0,0.0462183393538,-0.150812581182,-0.227615907788,1.21846967915e-07,0.0,0.0,0.0,1.21846967915e-07,0.0,0.0,0.0,1.21846967915e-07,0.75511205,1.01008495,11.03248125,9e-08,0.0,0.0,0.0,9e-08,0.0,0.0,0.0,9e-08
1536681861215548576,2548,1536681861215288608,base_link,-0.0963151374305,-0.254107841369,-0.921121867023,-0.278724066682,1.0,0.0,0.0,0.0,1.0,0.0,0.0,0.0,1.0,0.0150208286941,-0.150555118918,-0.231357753277,1.21846967915e-07,0.0,0.0,0.0,1.21846967915e-07,0.0,0.0,0.0,1.21846967915e-07,0.784532,1.0002783,11.2580342,9e-08,0.0,0.0,0.0,9e-08,0.0,0.0,0.0,9e-08
1536681861612118400,2549,1536681861611833760,base_link,-0.10917837136,-0.254481632031,-0.90289789507,-0.328777391657,1.0,0.0,0.0,0.0,1.0,0.0,0.0,0.0,1.0,0.0401547290385,-0.100044354796,-0.243274986744,1.21846967915e-07,0.0,0.0,0.0,1.21846967915e-07,0.0,0.0,0.0,1.21846967915e-07,0.53936575,0.8629852,10.7677017,9e-08,0.0,0.0,0.0,9e-08,0.0,0.0,0.0,9e-08
1536681861963007712,2550,1536681861962734688,base_link,-0.115359063529,-0.254592454044,-0.88336526156,-0.376219063147,1.0,0.0,0.0,0.0,1.0,0.0,0.0,0.0,1.0,0.031866773963,-0.111654140055,-0.275982260704,1.21846967915e-07,0.0,0.0,0.0,1.21846967915e-07,0.0,0.0,0.0,1.21846967915e-07,0.4707192,0.9022118,10.44408225,9e-08,0.0,0.0,0.0,9e-08,0.0,0.0,0.0,9e-08
1536681862317262080,2551,1536681862315662112,base_link,-0.126998868044,-0.257567164391,-0.861485007767,-0.418776819721,1.0,0.0,0.0,0.0,1.0,0.0,0.0,0.0,1.0,0.016779826954,-0.102812297642,-0.227611243725,1.21846967915e-07,0.0,0.0,0.0,1.21846967915e-07,0.0,0.0,0.0,1.21846967915e-07,0.55897905,0.65704555,10.99325465,9e-08,0.0,0.0,0.0,9e-08,0.0,0.0,0.0,9e-08
1536681862702765920,2552,1536681862697583008,base_link,-0.135791911228,-0.250039192013,-0.838371031586,-0.464946204093,1.0,0.0,0.0,0.0,1.0,0.0,0.0,0.0,1.0,-0.0511914752424,-0.109725698829,-0.242116197944,1.21846967915e-07,0.0,0.0,0.0,1.21846967915e-07,0.0,0.0,0.0,1.21846967915e-07,0.3726527,1.0198916,10.2185293,9e-08,0.0,0.0,0.0,9e-08,0.0,0.0,0.0,9e-08
1536681863057647552,2553,1536681863057347744,base_link,-0.136853157376,-0.238428604186,-0.816919674893,-0.507016034061,1.0,0.0,0.0,0.0,1.0,0.0,0.0,0.0,1.0,-0.07094309479,-0.0981503129005,-0.258932381868,1.21846967915e-07,0.0,0.0,0.0,1.21846967915e-07,0.0,0.0,0.0,1.21846967915e-07,0.3530394,0.83356525,10.1793027,9e-08,0.0,0.0,0.0,9e-08,0.0,0.0,0.0,9e-08
1536681863461239904,2554,1536681863460858336,base_link,-0.131046319393,-0.214949152596,-0.789918290183,-0.559153662964,1.0,0.0,0.0,0.0,1.0,0.0,0.0,0.0,1.0,-0.108243577182,-0.0955350473523,-0.240938067436,1.21846967915e-07,0.0,0.0,0.0,1.21846967915e-07,0.0,0.0,0.0,1.21846967915e-07,0.28439285,0.95124505,10.11065615,9e-08,0.0,0.0,0.0,9e-08,0.0,0.0,0.0,9e-08
1536681863919412160,2555,1536681863918437408,base_link,-0.122799606467,-0.188481280163,-0.761199146267,-0.608252351744,1.0,0.0,0.0,0.0,1.0,0.0,0.0,0.0,1.0,-0.100457340479,-0.0947737693787,-0.212239846587,1.21846967915e-07,0.0,0.0,0.0,1.21846967915e-07,0.0,0.0,0.0,1.21846967915e-07,0.26477955,0.65704555,10.34601575,9e-08,0.0,0.0,0.0,9e-08,0.0,0.0,0.0,9e-08
1536681864405539968,2556,1536681864405259328,base_link,-0.122159798745,-0.160253653896,-0.731256672761,-0.651658981773,1.0,0.0,0.0,0.0,1.0,0.0,0.0,0.0,1.0,-0.217727094889,-0.119339197874,-0.168680891395,1.21846967915e-07,0.0,0.0,0.0,1.21846967915e-07,0.0,0.0,0.0,1.21846967915e-07,0.4118793,0.71588545,11.99353295,9e-08,0.0,0.0,0.0,9e-08,0.0,0.0,0.0,9e-08
1536681864815440480,2557,1536681864815137088,base_link,-0.1121907764,-0.131201577244,-0.711529206817,-0.681120814295,1.0,0.0,0.0,0.0,1.0,0.0,0.0,0.0,1.0,-0.190904036164,-0.0940808281302,-0.156272783875,1.21846967915e-07,0.0,0.0,0.0,1.21846967915e-07,0.0,0.0,0.0,1.21846967915e-07,0.36284605,0.59820565,11.4541672,9e-08,0.0,0.0,0.0,9e-08,0.0,0.0,0.0,9e-08
1536681865344142752,2558,1536681865343829280,base_link,-0.0825244740183,-0.0972113414786,-0.689012715172,-0.713443161441,1.0,0.0,0.0,0.0,1.0,0.0,0.0,0.0,1.0,-0.282295256853,0.0165766570717,-0.132988393307,1.21846967915e-07,0.0,0.0,0.0,1.21846967915e-07,0.0,0.0,0.0,1.21846967915e-07,0.2353596,0.4903325,9.18883105,9e-08,0.0,0.0,0.0,9e-08,0.0,0.0,0.0,9e-08
1536681865722624064,2559,1536681865722225280,base_link,-0.0369781696778,-0.0547208117429,-0.680648833333,-0.729626900143,1.0,0.0,0.0,0.0,1.0,0.0,0.0,0.0,1.0,-0.278355360031,0.0106813414022,-0.073695383966,1.21846967915e-07,0.0,0.0,0.0,1.21846967915e-07,0.0,0.0,0.0,1.21846967915e-07,0.1372931,0.51975245,9.5909037,9e-08,0.0,0.0,0.0,9e-08,0.0,0.0,0.0,9e-08
1536681866146962560,2560,1536681866146616640,base_link,0.000151389707968,-0.0167660264369,-0.685708736487,-0.727682902193,1.0,0.0,0.0,0.0,1.0,0.0,0.0,0.0,1.0,-0.111168175936,-0.00135583279189,0.148847594857,1.21846967915e-07,0.0,0.0,0.0,1.21846967915e-07,0.0,0.0,0.0,1.21846967915e-07,0.2745862,0.48052585,10.591182,9e-08,0.0,0.0,0.0,9e-08,0.0,0.0,0.0,9e-08
1536681866585923200,2561,1536681866585643136,base_link,0.0299893328426,0.00363899532868,-0.69949718183,-0.713996561785,1.0,0.0,0.0,0.0,1.0,0.0,0.0,0.0,1.0,-0.0636659637094,0.0571490861475,0.00634350534528,1.21846967915e-07,0.0,0.0,0.0,1.21846967915e-07,0.0,0.0,0.0,1.21846967915e-07,0.16671305,0.6472389,9.65955025,9e-08,0.0,0.0,0.0,9e-08,0.0,0.0,0.0,9e-08
1536681867043020352,2562,1536681867042575648,base_link,0.0246968544425,-0.00900603453368,-0.695446368382,-0.718097002798,1.0,0.0,0.0,0.0,1.0,0.0,0.0,0.0,1.0,0.0967447087169,0.0295026116073,-0.00348367542028,1.21846967915e-07,0.0,0.0,0.0,1.21846967915e-07,0.0,0.0,0.0,1.21846967915e-07,-0.1176798,0.53936575,9.67916355,9e-08,0.0,0.0,0.0,9e-08,0.0,0.0,0.0,9e-08
1536681867305387584,2563,1536681867303522912,base_link,0.0168519636258,-0.0214645988918,-0.696674931114,-0.7168677163,1.0,0.0,0.0,0.0,1.0,0.0,0.0,0.0,1.0,0.0719561055303,0.0520350933075,0.0452718660235,1.21846967915e-07,0.0,0.0,0.0,1.21846967915e-07,0.0,0.0,0.0,1.21846967915e-07,-0.34323275,-0.08825985,8.01203305,9e-08,0.0,0.0,0.0,9e-08,0.0,0.0,0.0,9e-08
1536681867608684288,2564,1536681867608419584,base_link,0.00392670197314,-0.0401713711377,-0.708340063386,-0.704716394413,1.0,0.0,0.0,0.0,1.0,0.0,0.0,0.0,1.0,0.0649454519153,0.0259274914861,0.118810839951,1.21846967915e-07,0.0,0.0,0.0,1.21846967915e-07,0.0,0.0,0.0,1.21846967915e-07,-0.1569064,0.38245935,8.6690786,9e-08,0.0,0.0,0.0,9e-08,0.0,0.0,0.0,9e-08
1536681868052372416,2565,1536681868052111680,base_link,0.00676740819868,-0.046499679697,-0.719142920084,-0.693271550309,1.0,0.0,0.0,0.0,1.0,0.0,0.0,0.0,1.0,0.0430238842964,0.0337670743465,-0.0082804877311,1.21846967915e-07,0.0,0.0,0.0,1.21846967915e-07,0.0,0.0,0.0,1.21846967915e-07,0.0196133,0.4903325,9.5909037,9e-08,0.0,0.0,0.0,9e-08,0.0,0.0,0.0,9e-08
1536681868408280768,2566,1536681868407899456,base_link,0.00396075168044,-0.0554414428354,-0.719711766814,-0.6920444578,1.0,0.0,0.0,0.0,1.0,0.0,0.0,0.0,1.0,0.121010281146,0.0405740998685,2.88055744022e-05,1.21846967915e-07,0.0,0.0,0.0,1.21846967915e-07,0.0,0.0,0.0,1.21846967915e-07,-0.1372931,0.40207265,8.7279185,9e-08,0.0,0.0,0.0,9e-08,0.0,0.0,0.0,9e-08
1536681868691260992,2567,1536681868690901312,base_link,-0.00344959687588,-0.0603201109254,-0.718927699281,-0.692454004036,1.0,0.0,0.0,0.0,1.0,0.0,0.0,0.0,1.0,0.0570728592575,-0.0150007707998,-0.010797043331,1.21846967915e-07,0.0,0.0,0.0,1.21846967915e-07,0.0,0.0,0.0,1.21846967915e-07,0.0,0.75511205,11.15016105,9e-08,0.0,0.0,0.0,9e-08,0.0,0.0,0.0,9e-08
1536681869151451008,2568,1536681869151058464,base_link,-0.00876821903693,-0.0628365062927,-0.713808318271,-0.697461379991,1.0,0.0,0.0,0.0,1.0,0.0,0.0,0.0,1.0,0.0854739099741,-0.0161455497146,-0.0650548934937,1.21846967915e-07,0.0,0.0,0.0,1.21846967915e-07,0.0,0.0,0.0,1.21846967915e-07,-0.0196133,0.44129925,9.5320638,9e-08,0.0,0.0,0.0,9e-08,0.0,0.0,0.0,9e-08
1536681869473702048,2569,1536681869473469088,base_link,-0.0240852654677,-0.0719345842009,-0.708211771473,-0.701912674291,1.0,0.0,0.0,0.0,1.0,0.0,0.0,0.0,1.0,0.115831285715,-0.0335642769933,-0.00590764125809,1.21846967915e-07,0.0,0.0,0.0,1.21846967915e-07,0.0,0.0,0.0,1.21846967915e-07,0.0,0.392266,10.8265416,9e-08,0.0,0.0,0.0,9e-08,0.0,0.0,0.0,9e-08
1536681870006090752,2570,1536681870001796640,base_link,-0.0489218413061,-0.0800452865955,-0.706007409128,-0.701963634239,1.0,0.0,0.0,0.0,1.0,0.0,0.0,0.0,1.0,0.0642672553658,-0.0503455847502,-0.015278249979,1.21846967915e-07,0.0,0.0,0.0,1.21846967915e-07,0.0,0.0,0.0,1.21846967915e-07,-0.0784532,0.5099458,12.03275955,9e-08,0.0,0.0,0.0,9e-08,0.0,0.0,0.0,9e-08
1536681870375798368,2571,1536681870375356288,base_link,-0.0439484065007,-0.0688925279497,-0.705558712721,-0.703924186303,1.0,0.0,0.0,0.0,1.0,0.0,0.0,0.0,1.0,-0.163915023208,0.0185910817236,-0.00776013918221,1.21846967915e-07,0.0,0.0,0.0,1.21846967915e-07,0.0,0.0,0.0,1.21846967915e-07,-0.06864655,0.50013915,10.65982855,9e-08,0.0,0.0,0.0,9e-08,0.0,0.0,0.0,9e-08
1536681870672995968,2572,1536681870672438880,base_link,-0.0151192901029,-0.0424726952799,-0.709059937501,-0.703705536608,1.0,0.0,0.0,0.0,1.0,0.0,0.0,0.0,1.0,-0.217059314251,0.0113300802186,0.00906450487673,1.21846967915e-07,0.0,0.0,0.0,1.21846967915e-07,0.0,0.0,0.0,1.21846967915e-07,-0.14709975,0.24516625,9.32612415,9e-08,0.0,0.0,0.0,9e-08,0.0,0.0,0.0,9e-08
1536681871117818784,2573,1536681871116985504,base_link,0.0046149413723,-0.0326301074524,-0.716783190237,-0.696516932025,1.0,0.0,0.0,0.0,1.0,0.0,0.0,0.0,1.0,-0.0559386946261,0.0442067794502,0.0645182803273,1.21846967915e-07,0.0,0.0,0.0,1.21846967915e-07,0.0,0.0,0.0,1.21846967915e-07,-0.2745862,0.2549729,8.433719,9e-08,0.0,0.0,0.0,9e-08,0.0,0.0,0.0,9e-08
1536681871629019552,2574,1536681871628729760,base_link,0.0135831426263,-0.0390062818179,-0.729819301193,-0.682391233693,1.0,0.0,0.0,0.0,1.0,0.0,0.0,0.0,1.0,0.128401845694,0.0875160247087,-0.0250573363155,1.21846967915e-07,0.0,0.0,0.0,1.21846967915e-07,0.0,0.0,0.0,1.21846967915e-07,0.00980665,0.9022118,9.75761675,9e-08,0.0,0.0,0.0,9e-08,0.0,0.0,0.0,9e-08
1536681872065513184,2575,1536681872064824160,base_link,0.034281658755,-0.0413425780715,-0.711423695013,-0.700708131311,1.0,0.0,0.0,0.0,1.0,0.0,0.0,0.0,1.0,-0.0742080584168,0.0323174856603,-0.118954837322,1.21846967915e-07,0.0,0.0,0.0,1.21846967915e-07,0.0,0.0,0.0,1.21846967915e-07,-0.0784532,0.18632635,8.0806796,9e-08,0.0,0.0,0.0,9e-08,0.0,0.0,0.0,9e-08
1536681872496054976,2576,1536681872495811168,base_link,0.0132793555394,-0.0548328218882,-0.713735555703,-0.69813936781,1.0,0.0,0.0,0.0,1.0,0.0,0.0,0.0,1.0,0.302060633898,-0.050012499094,0.15505976975,1.21846967915e-07,0.0,0.0,0.0,1.21846967915e-07,0.0,0.0,0.0,1.21846967915e-07,0.02941995,0.22555295,11.64049355,9e-08,0.0,0.0,0.0,9e-08,0.0,0.0,0.0,9e-08
1536681872758514624,2577,1536681872757851808,base_link,-0.00252853095188,-0.0664943638431,-0.726051343957,-0.684413290378,1.0,0.0,0.0,0.0,1.0,0.0,0.0,0.0,1.0,-0.0588013157248,-0.0504014603794,0.158296823502,1.21846967915e-07,0.0,0.0,0.0,1.21846967915e-07,0.0,0.0,0.0,1.21846967915e-07,-0.1372931,0.196133,8.7671451,9e-08,0.0,0.0,0.0,9e-08,0.0,0.0,0.0,9e-08
1536681873039825152,2578,1536681873039552448,base_link,0.00403507167879,-0.0469920116057,-0.738732082269,-0.672346919133,1.0,0.0,0.0,0.0,1.0,0.0,0.0,0.0,1.0,-0.043155759573,-0.0382494628429,0.0818516686559,1.21846967915e-07,0.0,0.0,0.0,1.21846967915e-07,0.0,0.0,0.0,1.21846967915e-07,0.00980665,0.5295591,11.20900095,9e-08,0.0,0.0,0.0,9e-08,0.0,0.0,0.0,9e-08
1536681873342644832,2579,1536681873342417952,base_link,0.00621001816833,-0.0298934772693,-0.743169915066,-0.668405784709,1.0,0.0,0.0,0.0,1.0,0.0,0.0,0.0,1.0,0.0580657832325,-0.0418922491372,0.0124853476882,1.21846967915e-07,0.0,0.0,0.0,1.21846967915e-07,0.0,0.0,0.0,1.21846967915e-07,0.196133,0.6472389,12.4152189,9e-08,0.0,0.0,0.0,9e-08,0.0,0.0,0.0,9e-08
1536681873842485856,2580,1536681873841393536,base_link,-0.02228026663,-0.0511997777064,-0.74087530409,-0.669317530228,1.0,0.0,0.0,0.0,1.0,0.0,0.0,0.0,1.0,0.278503656387,-0.0150388842449,-0.0252419505268,1.21846967915e-07,0.0,0.0,0.0,1.21846967915e-07,0.0,0.0,0.0,1.21846967915e-07,-0.0980665,0.57859235,10.42446895,9e-08,0.0,0.0,0.0,9e-08,0.0,0.0,0.0,9e-08
1536681874224854816,2581,1536681874224423168,base_link,-0.0586089984108,-0.0914389137246,-0.729325559038,-0.675491035689,1.0,0.0,0.0,0.0,1.0,0.0,0.0,0.0,1.0,0.274804323912,-0.0232255645096,-0.0921778678894,1.21846967915e-07,0.0,0.0,0.0,1.21846967915e-07,0.0,0.0,0.0,1.21846967915e-07,-0.3530394,0.5687857,10.3165958,9e-08,0.0,0.0,0.0,9e-08,0.0,0.0,0.0,9e-08
1536681874556361152,2582,1536681874555215936,base_link,-0.0880497692029,-0.12082562089,-0.718840237649,-0.678908771645,1.0,0.0,0.0,0.0,1.0,0.0,0.0,0.0,1.0,0.279198616743,0.0351045019925,-0.0456292107701,1.21846967915e-07,0.0,0.0,0.0,1.21846967915e-07,0.0,0.0,0.0,1.21846967915e-07,-0.3334261,0.63743225,10.03220295,9e-08,0.0,0.0,0.0,9e-08,0.0,0.0,0.0,9e-08
1536681874848151520,2583,1536681874847610656,base_link,-0.10866934041,-0.152258747346,-0.697868743746,-0.691366375241,1.0,0.0,0.0,0.0,1.0,0.0,0.0,0.0,1.0,0.34627494216,0.000789095996879,-0.220953449607,1.21846967915e-07,0.0,0.0,0.0,1.21846967915e-07,0.0,0.0,0.0,1.21846967915e-07,-0.4118793,0.6276256,7.5315072,9e-08,0.0,0.0,0.0,9e-08,0.0,0.0,0.0,9e-08
1536681875209809024,2584,1536681875208544064,base_link,-0.150184860834,-0.187863830657,-0.661353068734,-0.710467316056,1.0,0.0,0.0,0.0,1.0,0.0,0.0,0.0,1.0,0.270082622766,-0.100479595363,-0.140915870667,1.21846967915e-07,0.0,0.0,0.0,1.21846967915e-07,0.0,0.0,0.0,1.21846967915e-07,-0.3334261,0.53936575,10.11065615,9e-08,0.0,0.0,0.0,9e-08,0.0,0.0,0.0,9e-08
1536681875644702944,2585,1536681875644319648,base_link,-0.181316840949,-0.190372813991,-0.630308026956,-0.730475315145,1.0,0.0,0.0,0.0,1.0,0.0,0.0,0.0,1.0,0.0850593075156,-0.133966743946,-0.161009773612,1.21846967915e-07,0.0,0.0,0.0,1.21846967915e-07,0.0,0.0,0.0,1.21846967915e-07,-0.12748645,0.77472535,10.7284751,9e-08,0.0,0.0,0.0,9e-08,0.0,0.0,0.0,9e-08
1536681876005382112,2586,1536681876005139104,base_link,-0.206993505794,-0.183892552749,-0.593019007644,-0.75608575848,1.0,0.0,0.0,0.0,1.0,0.0,0.0,0.0,1.0,0.0803233385086,-0.184825286269,-0.211250886321,1.21846967915e-07,0.0,0.0,0.0,1.21846967915e-07,0.0,0.0,0.0,1.21846967915e-07,0.1765197,0.83356525,11.91507975,9e-08,0.0,0.0,0.0,9e-08,0.0,0.0,0.0,9e-08
1536681876423733728,2587,1536681876422874912,base_link,-0.236338592259,-0.174676803334,-0.542640470411,-0.786875723388,1.0,0.0,0.0,0.0,1.0,0.0,0.0,0.0,1.0,0.156888544559,-0.18335480988,-0.24649694562,1.21846967915e-07,0.0,0.0,0.0,1.21846967915e-07,0.0,0.0,0.0,1.21846967915e-07,0.3334261,0.9218251,11.9837263,9e-08,0.0,0.0,0.0,9e-08,0.0,0.0,0.0,9e-08
1536681876904862080,2588,1536681876904501408,base_link,-0.257306036433,-0.156589572232,-0.484565330687,-0.821261072851,1.0,0.0,0.0,0.0,1.0,0.0,0.0,0.0,1.0,0.118235096335,-0.175735622644,-0.247045084834,1.21846967915e-07,0.0,0.0,0.0,1.21846967915e-07,0.0,0.0,0.0,1.21846967915e-07,0.2353596,0.77472535,11.28745415,9e-08,0.0,0.0,0.0,9e-08,0.0,0.0,0.0,9e-08
1536681877209883584,2589,1536681877209654880,base_link,-0.274989674862,-0.1444911527,-0.443920864238,-0.84049821642,1.0,0.0,0.0,0.0,1.0,0.0,0.0,0.0,1.0,-0.038902439177,-0.219177961349,-0.214338853955,1.21846967915e-07,0.0,0.0,0.0,1.21846967915e-07,0.0,0.0,0.0,1.21846967915e-07,0.4903325,1.0198916,12.2386992,9e-08,0.0,0.0,0.0,9e-08,0.0,0.0,0.0,9e-08
1536681877600174208,2590,1536681877599341728,base_link,-0.282212318596,-0.116205938142,-0.391430412704,-0.868121315937,1.0,0.0,0.0,0.0,1.0,0.0,0.0,0.0,1.0,-0.00769136659801,-0.183494642377,-0.241555973887,1.21846967915e-07,0.0,0.0,0.0,1.21846967915e-07,0.0,0.0,0.0,1.21846967915e-07,0.5491724,1.14737805,12.03275955,9e-08,0.0,0.0,0.0,9e-08,0.0,0.0,0.0,9e-08
1536681878112431840,2591,1536681878106815296,base_link,-0.275614388141,-0.0940126615607,-0.313474619137,-0.903842902098,1.0,0.0,0.0,0.0,1.0,0.0,0.0,0.0,1.0,0.0954314470291,-0.122308164835,-0.316132158041,1.21846967915e-07,0.0,0.0,0.0,1.21846967915e-07,0.0,0.0,0.0,1.21846967915e-07,0.392266,0.75511205,12.30734575,9e-08,0.0,0.0,0.0,9e-08,0.0,0.0,0.0,9e-08
1536681878590229120,2592,1536681878589980160,base_link,-0.280322524695,-0.0788289592507,-0.248124930067,-0.923926023235,1.0,0.0,0.0,0.0,1.0,0.0,0.0,0.0,1.0,-0.0236073955894,-0.121505528688,-0.211111962795,1.21846967915e-07,0.0,0.0,0.0,1.21846967915e-07,0.0,0.0,0.0,1.21846967915e-07,0.28439285,0.7649187,10.787315,9e-08,0.0,0.0,0.0,9e-08,0.0,0.0,0.0,9e-08
1536681879035815456,2593,1536681879035612640,base_link,-0.270448194906,-0.0667570409346,-0.18913841747,-0.941609223826,1.0,0.0,0.0,0.0,1.0,0.0,0.0,0.0,1.0,-0.0801160857081,-0.107244811952,-0.262610465288,1.21846967915e-07,0.0,0.0,0.0,1.21846967915e-07,0.0,0.0,0.0,1.21846967915e-07,0.30400615,0.8433719,9.8262633,9e-08,0.0,0.0,0.0,9e-08,0.0,0.0,0.0,9e-08
1536681879414843712,2594,1536681879414452448,base_link,-0.246717678792,-0.0542429071791,-0.136388679269,-0.957907209577,1.0,0.0,0.0,0.0,1.0,0.0,0.0,0.0,1.0,-0.135828122497,-0.104514889419,-0.252846688032,1.21846967915e-07,0.0,0.0,0.0,1.21846967915e-07,0.0,0.0,0.0,1.21846967915e-07,0.22555295,0.7649187,10.3362091,9e-08,0.0,0.0,0.0,9e-08,0.0,0.0,0.0,9e-08
1536681879835711840,2595,1536681879834644000,base_link,-0.220223702557,-0.037995466759,-0.0855243026078,-0.970949771616,1.0,0.0,0.0,0.0,1.0,0.0,0.0,0.0,1.0,-0.16668471694,-0.113933235407,-0.183270037174,1.21846967915e-07,0.0,0.0,0.0,1.21846967915e-07,0.0,0.0,0.0,1.21846967915e-07,0.28439285,0.53936575,10.7284751,9e-08,0.0,0.0,0.0,9e-08,0.0,0.0,0.0,9e-08
1536681880193036256,2596,1536681880191223200,base_link,-0.182170252535,-0.0204932980313,-0.052775933231,-0.981635739314,1.0,0.0,0.0,0.0,1.0,0.0,0.0,0.0,1.0,-0.317009180784,-0.0965161025524,-0.146718770266,1.21846967915e-07,0.0,0.0,0.0,1.21846967915e-07,0.0,0.0,0.0,1.21846967915e-07,0.2745862,0.8041453,10.5519554,9e-08,0.0,0.0,0.0,9e-08,0.0,0.0,0.0,9e-08
1536681880625792736,2597,1536681880625466112,base_link,-0.12565650742,-0.0020214635783,-0.0177892244811,-0.99191224376,1.0,0.0,0.0,0.0,1.0,0.0,0.0,0.0,1.0,-0.137610018253,-0.0793923065066,-0.121296010911,1.21846967915e-07,0.0,0.0,0.0,1.21846967915e-07,0.0,0.0,0.0,1.21846967915e-07,0.26477955,0.48052585,10.38524235,9e-08,0.0,0.0,0.0,9e-08,0.0,0.0,0.0,9e-08
1536681881060253696,2598,1536681881059984064,base_link,-0.0959582709197,0.00982515000744,0.00195416763305,-0.995334947592,1.0,0.0,0.0,0.0,1.0,0.0,0.0,0.0,1.0,-0.121540933847,-0.0200694128871,-0.0561110265553,1.21846967915e-07,0.0,0.0,0.0,1.21846967915e-07,0.0,0.0,0.0,1.21846967915e-07,0.196133,0.7060788,11.50320045,9e-08,0.0,0.0,0.0,9e-08,0.0,0.0,0.0,9e-08
1536681881579018752,2599,1536681881577501568,base_link,-0.0440895864579,0.0099592616246,0.0212728878136,-0.998751413375,1.0,0.0,0.0,0.0,1.0,0.0,0.0,0.0,1.0,-0.283687084913,0.0199565086514,-0.0838271230459,1.21846967915e-07,0.0,0.0,0.0,1.21846967915e-07,0.0,0.0,0.0,1.21846967915e-07,0.1176798,0.75511205,10.48330885,9e-08,0.0,0.0,0.0,9e-08,0.0,0.0,0.0,9e-08
1536681881986882880,2600,1536681881986684928,base_link,-0.00807375359267,0.00998326849462,0.0304591371512,-0.999453545602,1.0,0.0,0.0,0.0,1.0,0.0,0.0,0.0,1.0,-0.102472744882,0.0133713176474,0.00397421047091,1.21846967915e-07,0.0,0.0,0.0,1.21846967915e-07,0.0,0.0,0.0,1.21846967915e-07,0.1372931,0.2941995,10.2969825,9e-08,0.0,0.0,0.0,9e-08,0.0,0.0,0.0,9e-08
1536681882356890688,2601,1536681882356528480,base_link,-0.010500984347,0.00753146386676,0.0229830883942,-0.999652331577,1.0,0.0,0.0,0.0,1.0,0.0,0.0,0.0,1.0,0.0362294204533,0.0267760008574,0.0522121563554,1.21846967915e-07,0.0,0.0,0.0,1.21846967915e-07,0.0,0.0,0.0,1.21846967915e-07,0.02941995,0.48052585,9.0613446,9e-08,0.0,0.0,0.0,9e-08,0.0,0.0,0.0,9e-08
1536681882754576192,2602,1536681882748265184,base_link,0.000247339554942,0.000712231938128,0.0121983943016,-0.999925312574,1.0,0.0,0.0,0.0,1.0,0.0,0.0,0.0,1.0,-0.0584390424192,0.0809107497334,0.0347003340721,1.21846967915e-07,0.0,0.0,0.0,1.21846967915e-07,0.0,0.0,0.0,1.21846967915e-07,-0.00980665,0.51975245,9.0809579,9e-08,0.0,0.0,0.0,9e-08,0.0,0.0,0.0,9e-08
1536681883115302624,2603,1536681883115029088,base_link,0.0255184286818,-0.00583073383985,0.00499139310533,-0.999644886115,1.0,0.0,0.0,0.0,1.0,0.0,0.0,0.0,1.0,-0.133680060506,0.0453744418919,0.0459076538682,1.21846967915e-07,0.0,0.0,0.0,1.21846967915e-07,0.0,0.0,0.0,1.21846967915e-07,0.0392266,0.50013915,9.1201845,9e-08,0.0,0.0,0.0,9e-08,0.0,0.0,0.0,9e-08
1536681883572136480,2604,1536681883571278848,base_link,0.0482072779029,-0.012422289411,-0.0124984785261,-0.998681897862,1.0,0.0,0.0,0.0,1.0,0.0,0.0,0.0,1.0,0.00163622153923,0.0330122373998,0.092033624649,1.21846967915e-07,0.0,0.0,0.0,1.21846967915e-07,0.0,0.0,0.0,1.21846967915e-07,0.1176798,0.34323275,9.022118,9e-08,0.0,0.0,0.0,9e-08,0.0,0.0,0.0,9e-08
1536681884008153920,2605,1536681884007964992,base_link,0.0415747162676,-0.0230727081884,-0.0369700962209,-0.998184554624,1.0,0.0,0.0,0.0,1.0,0.0,0.0,0.0,1.0,0.0709740594029,0.0912646353245,0.109431542456,1.21846967915e-07,0.0,0.0,0.0,1.21846967915e-07,0.0,0.0,0.0,1.21846967915e-07,0.22555295,0.69627215,9.63993695,9e-08,0.0,0.0,0.0,9e-08,0.0,0.0,0.0,9e-08
1536681884365604416,2606,1536681884364011008,base_link,0.0287703017435,-0.0299214624092,-0.0473416985204,-0.998015901379,1.0,0.0,0.0,0.0,1.0,0.0,0.0,0.0,1.0,0.118910379708,0.0633767470717,0.0555791333318,1.21846967915e-07,0.0,0.0,0.0,1.21846967915e-07,0.0,0.0,0.0,1.21846967915e-07,0.24516625,0.51975245,9.9047165,9e-08,0.0,0.0,0.0,9e-08,0.0,0.0,0.0,9e-08
1536681884647624864,2607,1536681884647378240,base_link,0.00653258473475,-0.0378722027263,-0.0567747090523,-0.997647058839,1.0,0.0,0.0,0.0,1.0,0.0,0.0,0.0,1.0,0.170944705606,-0.00711274845526,0.0651891902089,1.21846967915e-07,0.0,0.0,0.0,1.21846967915e-07,0.0,0.0,0.0,1.21846967915e-07,0.20593965,0.51975245,9.610517,9e-08,0.0,0.0,0.0,9e-08,0.0,0.0,0.0,9e-08
1536681885067972736,2608,1536681885067728896,base_link,-0.0212430413497,-0.0370996053201,-0.0721360607354,-0.996478168964,1.0,0.0,0.0,0.0,1.0,0.0,0.0,0.0,1.0,0.22118768096,-0.0795179307461,0.0730347335339,1.21846967915e-07,0.0,0.0,0.0,1.21846967915e-07,0.0,0.0,0.0,1.21846967915e-07,0.4314926,0.57859235,9.85568325,9e-08,0.0,0.0,0.0,9e-08,0.0,0.0,0.0,9e-08
1536681885397495168,2609,1536681885397281280,base_link,-0.0358330892561,-0.0229120317876,-0.0807504377836,-0.995826488557,1.0,0.0,0.0,0.0,1.0,0.0,0.0,0.0,1.0,0.10396578908,0.028559487313,0.0291681494564,1.21846967915e-07,0.0,0.0,0.0,1.21846967915e-07,0.0,0.0,0.0,1.21846967915e-07,0.588399,0.65704555,11.67972015,9e-08,0.0,0.0,0.0,9e-08,0.0,0.0,0.0,9e-08
1536681885779342528,2610,1536681885778971936,base_link,-0.0505456683938,-0.0257483690032,-0.0895105505301,-0.99436915592,1.0,0.0,0.0,0.0,1.0,0.0,0.0,0.0,1.0,-0.00801059883088,-0.0282793566585,0.0433077029884,1.21846967915e-07,0.0,0.0,0.0,1.21846967915e-07,0.0,0.0,0.0,1.21846967915e-07,0.5687857,0.6864655,10.3754357,9e-08,0.0,0.0,0.0,9e-08,0.0,0.0,0.0,9e-08
1536681886234659904,2611,1536681886234426272,base_link,-0.0542275894234,-0.024177651371,-0.0874439836519,-0.994398491271,1.0,0.0,0.0,0.0,1.0,0.0,0.0,0.0,1.0,-0.081903770566,-0.122955448925,-0.0486643686891,1.21846967915e-07,0.0,0.0,0.0,1.21846967915e-07,0.0,0.0,0.0,1.21846967915e-07,0.57859235,0.8433719,11.40513395,9e-08,0.0,0.0,0.0,9e-08,0.0,0.0,0.0,9e-08
1536681886673868256,2612,1536681886673691296,base_link,-0.0623521417823,-0.00823870561899,-0.0732904887763,-0.995325493695,1.0,0.0,0.0,0.0,1.0,0.0,0.0,0.0,1.0,0.103769488633,-0.0161685347557,-0.0396184884012,1.21846967915e-07,0.0,0.0,0.0,1.21846967915e-07,0.0,0.0,0.0,1.21846967915e-07,0.53936575,0.5099458,12.1014061,9e-08,0.0,0.0,0.0,9e-08,0.0,0.0,0.0,9e-08
1536681887017518912,2613,1536681887017282784,base_link,-0.0644743455582,-0.00640198324694,-0.0718857549591,-0.995306240114,1.0,0.0,0.0,0.0,1.0,0.0,0.0,0.0,1.0,0.0722677335143,-0.0610144436359,-0.00854463875294,1.21846967915e-07,0.0,0.0,0.0,1.21846967915e-07,0.0,0.0,0.0,1.21846967915e-07,0.28439285,0.89240515,11.6699135,9e-08,0.0,0.0,0.0,9e-08,0.0,0.0,0.0,9e-08
1536681887376522880,2614,1536681887376137920,base_link,-0.0950940436889,-0.00299505722116,-0.0517474891903,-0.994117875229,1.0,0.0,0.0,0.0,1.0,0.0,0.0,0.0,1.0,0.216655522585,-0.0496922954917,-0.157436698675,1.21846967915e-07,0.0,0.0,0.0,1.21846967915e-07,0.0,0.0,0.0,1.21846967915e-07,0.14709975,0.6668522,11.38552065,9e-08,0.0,0.0,0.0,9e-08,0.0,0.0,0.0,9e-08
1536681887772554912,2615,1536681887772270464,base_link,-0.123733844633,-0.000297362704727,-0.0269868224664,-0.991948364927,1.0,0.0,0.0,0.0,1.0,0.0,0.0,0.0,1.0,0.196023985744,0.0048576053232,-0.0711620897055,1.21846967915e-07,0.0,0.0,0.0,1.21846967915e-07,0.0,0.0,0.0,1.21846967915e-07,0.0588399,0.1372931,9.65955025,9e-08,0.0,0.0,0.0,9e-08,0.0,0.0,0.0,9e-08
1536681888175663872,2616,1536681888175357792,base_link,-0.128443629475,-0.00951263284013,-0.0314804826835,-0.991171389354,1.0,0.0,0.0,0.0,1.0,0.0,0.0,0.0,1.0,-0.175265386701,-0.00537264021114,0.0296295844018,1.21846967915e-07,0.0,0.0,0.0,1.21846967915e-07,0.0,0.0,0.0,1.21846967915e-07,0.00980665,0.3726527,9.8851032,9e-08,0.0,0.0,0.0,9e-08,0.0,0.0,0.0,9e-08
1536681888717588768,2617,1536681888711395488,base_link,-0.0965754965879,-0.0141577652987,-0.0239212647072,-0.994937437347,1.0,0.0,0.0,0.0,1.0,0.0,0.0,0.0,1.0,0.0256477091461,-0.0365458875895,-0.0459691137075,1.21846967915e-07,0.0,0.0,0.0,1.21846967915e-07,0.0,0.0,0.0,1.21846967915e-07,-0.1372931,0.34323275,9.414384,9e-08,0.0,0.0,0.0,9e-08,0.0,0.0,0.0,9e-08
1536681889084854304,2618,1536681889084590240,base_link,-0.0793104955069,-0.0128404754589,-0.0172890501596,-0.996617306812,1.0,0.0,0.0,0.0,1.0,0.0,0.0,0.0,1.0,-0.211551502347,-0.0594098903239,-0.0555275976658,1.21846967915e-07,0.0,0.0,0.0,1.21846967915e-07,0.0,0.0,0.0,1.21846967915e-07,-0.2353596,0.5295591,10.79712165,9e-08,0.0,0.0,0.0,9e-08,0.0,0.0,0.0,9e-08
1536681889460277088,2619,1536681889459505856,base_link,-0.0589861898391,-0.0194960887858,-0.0143446992343,-0.997965310787,1.0,0.0,0.0,0.0,1.0,0.0,0.0,0.0,1.0,-0.0850482583046,0.0352655388415,0.0323152393103,1.21846967915e-07,0.0,0.0,0.0,1.21846967915e-07,0.0,0.0,0.0,1.21846967915e-07,-0.06864655,0.0784532,10.4538889,9e-08,0.0,0.0,0.0,9e-08,0.0,0.0,0.0,9e-08
1536681889914372896,2620,1536681889913099968,base_link,-0.0442675879063,-0.0270796270534,-0.0301880837118,-0.998196250274,1.0,0.0,0.0,0.0,1.0,0.0,0.0,0.0,1.0,-0.0942019298673,0.0331674925983,0.0766909793019,1.21846967915e-07,0.0,0.0,0.0,1.21846967915e-07,0.0,0.0,0.0,1.21846967915e-07,-0.392266,0.24516625,9.1986377,9e-08,0.0,0.0,0.0,9e-08,0.0,0.0,0.0,9e-08
1536681890234643200,2621,1536681890234166144,base_link,-0.0290035277441,-0.0260455270582,-0.0402953028223,-0.998427120259,1.0,0.0,0.0,0.0,1.0,0.0,0.0,0.0,1.0,-0.066930629313,0.0294684842229,0.0495013445616,1.21846967915e-07,0.0,0.0,0.0,1.21846967915e-07,0.0,0.0,0.0,1.21846967915e-07,-0.392266,0.55897905,9.62032365,9e-08,0.0,0.0,0.0,9e-08,0.0,0.0,0.0,9e-08
1536681890615029408,2622,1536681890613564608,base_link,-0.00624672829701,-0.0386199551623,-0.0376748254591,-0.998523953131,1.0,0.0,0.0,0.0,1.0,0.0,0.0,0.0,1.0,-0.0435713082552,0.0761111527681,-0.0529936365783,1.21846967915e-07,0.0,0.0,0.0,1.21846967915e-07,0.0,0.0,0.0,1.21846967915e-07,-0.44129925,0.6080123,8.65927195,9e-08,0.0,0.0,0.0,9e-08,0.0,0.0,0.0,9e-08
1536681891038821152,2623,1536681891038630944,base_link,-0.0257096326296,-0.0494971056232,-0.0315354442342,-0.997945172383,1.0,0.0,0.0,0.0,1.0,0.0,0.0,0.0,1.0,0.198773920536,0.0321149379015,0.0218763574958,1.21846967915e-07,0.0,0.0,0.0,1.21846967915e-07,0.0,0.0,0.0,1.21846967915e-07,-0.3726527,0.0980665,9.34573745,9e-08,0.0,0.0,0.0,9e-08,0.0,0.0,0.0,9e-08
1536681891413979680,2624,1536681891413098144,base_link,-0.0389839379451,-0.0494668715266,-0.0450803494536,-0.996996009669,1.0,0.0,0.0,0.0,1.0,0.0,0.0,0.0,1.0,0.0575061254203,-0.0620191544294,0.0872977972031,1.21846967915e-07,0.0,0.0,0.0,1.21846967915e-07,0.0,0.0,0.0,1.21846967915e-07,-0.24516625,0.34323275,9.8262633,9e-08,0.0,0.0,0.0,9e-08,0.0,0.0,0.0,9e-08
1536681891807039616,2625,1536681891806563840,base_link,-0.0116161160281,-0.0529335750591,-0.0583502001512,-0.996824135253,1.0,0.0,0.0,0.0,1.0,0.0,0.0,0.0,1.0,-0.187113538384,-0.0105816116557,-0.0404424481094,1.21846967915e-07,0.0,0.0,0.0,1.21846967915e-07,0.0,0.0,0.0,1.21846967915e-07,-0.18632635,0.93163175,9.38496405,9e-08,0.0,0.0,0.0,9e-08,0.0,0.0,0.0,9e-08
1536681892297794656,2626,1536681892297446112,base_link,-0.0291098470604,-0.0455660552632,-0.04214791434,-0.997647184494,1.0,0.0,0.0,0.0,1.0,0.0,0.0,0.0,1.0,0.128608092666,-0.0842627882957,-0.00249210419133,1.21846967915e-07,0.0,0.0,0.0,1.21846967915e-07,0.0,0.0,0.0,1.21846967915e-07,0.0,0.16671305,10.1596894,9e-08,0.0,0.0,0.0,9e-08,0.0,0.0,0.0,9e-08
1536681892716338176,2627,1536681892712951392,base_link,-0.0383817788198,-0.034898176323,-0.0558611875186,-0.99709000801,1.0,0.0,0.0,0.0,1.0,0.0,0.0,0.0,1.0,-0.0651870593429,0.0137457279488,0.0856725201011,1.21846967915e-07,0.0,0.0,0.0,1.21846967915e-07,0.0,0.0,0.0,1.21846967915e-07,0.0588399,0.6668522,10.2185293,9e-08,0.0,0.0,0.0,9e-08,0.0,0.0,0.0,9e-08
1536681893238687200,2628,1536681893238412640,base_link,-0.0478736583172,-0.0282789228134,-0.0561607027054,-0.996872304177,1.0,0.0,0.0,0.0,1.0,0.0,0.0,0.0,1.0,0.0127329034731,-0.0197838358581,0.0400083698332,1.21846967915e-07,0.0,0.0,0.0,1.21846967915e-07,0.0,0.0,0.0,1.21846967915e-07,0.32361945,0.30400615,11.03248125,9e-08,0.0,0.0,0.0,9e-08,0.0,0.0,0.0,9e-08
1536681893563222432,2629,1536681893562989920,base_link,-0.0487897752276,-0.0157664414421,-0.0632761728988,-0.996678033821,1.0,0.0,0.0,0.0,1.0,0.0,0.0,0.0,1.0,0.039991710335,-0.073138140142,0.0669341161847,1.21846967915e-07,0.0,0.0,0.0,1.21846967915e-07,0.0,0.0,0.0,1.21846967915e-07,0.34323275,0.1765197,12.34657235,9e-08,0.0,0.0,0.0,9e-08,0.0,0.0,0.0,9e-08
1536681893907301056,2630,1536681893905640800,base_link,-0.0518274438585,-0.00274726873585,-0.0733742946603,-0.995953102039,1.0,0.0,0.0,0.0,1.0,0.0,0.0,0.0,1.0,-0.117247968912,-0.0889959260821,0.0256315283477,1.21846967915e-07,0.0,0.0,0.0,1.21846967915e-07,0.0,0.0,0.0,1.21846967915e-07,0.2353596,0.9414384,11.44436055,9e-08,0.0,0.0,0.0,9e-08,0.0,0.0,0.0,9e-08
1536681894309095968,2631,1536681894308755456,base_link,-0.0501421970935,-0.00257118603563,-0.0612225361493,-0.996860546988,1.0,0.0,0.0,0.0,1.0,0.0,0.0,0.0,1.0,0.130495071411,-0.0497532486916,-0.0708888098598,1.21846967915e-07,0.0,0.0,0.0,1.21846967915e-07,0.0,0.0,0.0,1.21846967915e-07,0.2549729,0.392266,9.71839015,9e-08,0.0,0.0,0.0,9e-08,0.0,0.0,0.0,9e-08
1536681894713024672,2632,1536681894711502592,base_link,-0.0561125808497,0.0157270970839,-0.0563350749328,-0.996709785253,1.0,0.0,0.0,0.0,1.0,0.0,0.0,0.0,1.0,-0.135119065642,-0.119343914092,0.00798959285021,1.21846967915e-07,0.0,0.0,0.0,1.21846967915e-07,0.0,0.0,0.0,1.21846967915e-07,0.4118793,0.5687857,11.3561007,9e-08,0.0,0.0,0.0,9e-08,0.0,0.0,0.0,9e-08
1536681894986001120,2633,1536681894985575680,base_link,-0.0419087597074,0.030878046902,-0.0561601158704,-0.99706381113,1.0,0.0,0.0,0.0,1.0,0.0,0.0,0.0,1.0,-0.0865113660693,-0.0344281829894,0.0036250858102,1.21846967915e-07,0.0,0.0,0.0,1.21846967915e-07,0.0,0.0,0.0,1.21846967915e-07,0.3138128,0.7060788,11.48358715,9e-08,0.0,0.0,0.0,9e-08,0.0,0.0,0.0,9e-08
1536681895504504256,2634,1536681895504296128,base_link,-0.0444280573695,0.0325141239909,-0.056831920582,-0.996864640893,1.0,0.0,0.0,0.0,1.0,0.0,0.0,0.0,1.0,-0.0121975326911,0.0628130733967,0.0236994288862,1.21846967915e-07,0.0,0.0,0.0,1.21846967915e-07,0.0,0.0,0.0,1.21846967915e-07,0.1765197,0.5099458,9.2378643,9e-08,0.0,0.0,0.0,9e-08,0.0,0.0,0.0,9e-08
1536681895955796192,2635,1536681895955508224,base_link,-0.0508303302214,0.0349293305398,-0.0601867202354,-0.99627996974,1.0,0.0,0.0,0.0,1.0,0.0,0.0,0.0,1.0,0.0725763812661,0.0256063938141,0.0159777626395,1.21846967915e-07,0.0,0.0,0.0,1.21846967915e-07,0.0,0.0,0.0,1.21846967915e-07,0.22555295,0.46091255,10.591182,9e-08,0.0,0.0,0.0,9e-08,0.0,0.0,0.0,9e-08
1536681896287465792,2636,1536681896286267360,base_link,-0.0629352866931,0.0253987007594,-0.0582983346523,-0.995989638433,1.0,0.0,0.0,0.0,1.0,0.0,0.0,0.0,1.0,0.190606966615,0.131602853537,-0.0286865755916,1.21846967915e-07,0.0,0.0,0.0,1.21846967915e-07,0.0,0.0,0.0,1.21846967915e-07,0.0784532,0.48052585,9.1594111,9e-08,0.0,0.0,0.0,9e-08,0.0,0.0,0.0,9e-08
1536681896710260768,2637,1536681896709332832,base_link,-0.0879180764531,0.0104798098572,-0.0503866139088,-0.994797353513,1.0,0.0,0.0,0.0,1.0,0.0,0.0,0.0,1.0,0.088677354157,0.0219886619598,-0.0433249548078,1.21846967915e-07,0.0,0.0,0.0,1.21846967915e-07,0.0,0.0,0.0,1.21846967915e-07,0.0,0.4314926,9.0809579,9e-08,0.0,0.0,0.0,9e-08,0.0,0.0,0.0,9e-08
1536681897194273952,2638,1536681897194046400,base_link,-0.103059747462,-0.00415558166904,-0.0404397949308,-0.993844073575,1.0,0.0,0.0,0.0,1.0,0.0,0.0,0.0,1.0,0.111123472452,0.145145997405,-0.05344639346,1.21846967915e-07,0.0,0.0,0.0,1.21846967915e-07,0.0,0.0,0.0,1.21846967915e-07,-0.00980665,0.53936575,8.67888525,9e-08,0.0,0.0,0.0,9e-08,0.0,0.0,0.0,9e-08
1536681897505573088,2639,1536681897504854368,base_link,-0.125593423313,-0.0277815535075,-0.0322331813141,-0.991168754213,1.0,0.0,0.0,0.0,1.0,0.0,0.0,0.0,1.0,0.206367790699,0.0746260434389,-0.063006773591,1.21846967915e-07,0.0,0.0,0.0,1.21846967915e-07,0.0,0.0,0.0,1.21846967915e-07,-0.0392266,0.38245935,7.36479415,9e-08,0.0,0.0,0.0,9e-08,0.0,0.0,0.0,9e-08
1536681897953333792,2640,1536681897953112832,base_link,-0.164606779727,-0.0234548159126,-0.0134222841971,-0.985989007021,1.0,0.0,0.0,0.0,1.0,0.0,0.0,0.0,1.0,0.177001923323,-0.0726022273302,-0.112881891429,1.21846967915e-07,0.0,0.0,0.0,1.21846967915e-07,0.0,0.0,0.0,1.21846967915e-07,0.24516625,0.7256921,9.9047165,9e-08,0.0,0.0,0.0,9e-08,0.0,0.0,0.0,9e-08
1536681898297840800,2641,1536681898297347392,base_link,-0.199913307307,-0.0171981970462,0.0121675878042,-0.97958707698,1.0,0.0,0.0,0.0,1.0,0.0,0.0,0.0,1.0,0.191997349262,-0.0176110379398,-0.138796135783,1.21846967915e-07,0.0,0.0,0.0,1.21846967915e-07,0.0,0.0,0.0,1.21846967915e-07,0.40207265,0.6864655,10.4931155,9e-08,0.0,0.0,0.0,9e-08,0.0,0.0,0.0,9e-08
1536681898711252096,2642,1536681898695798592,base_link,-0.242751940615,-0.0122637229385,0.0495122767458,-0.968746422382,1.0,0.0,0.0,0.0,1.0,0.0,0.0,0.0,1.0,0.280533969402,-0.0903409644961,-0.203488394618,1.21846967915e-07,0.0,0.0,0.0,1.21846967915e-07,0.0,0.0,0.0,1.21846967915e-07,0.5099458,0.87279185,10.58137535,9e-08,0.0,0.0,0.0,9e-08,0.0,0.0,0.0,9e-08
1536681899048034720,2643,1536681899047281440,base_link,-0.280745319447,-0.00522571025189,0.0900945453561,-0.955530078259,1.0,0.0,0.0,0.0,1.0,0.0,0.0,0.0,1.0,0.189863845706,-0.0856043174863,-0.210125416517,1.21846967915e-07,0.0,0.0,0.0,1.21846967915e-07,0.0,0.0,0.0,1.21846967915e-07,0.588399,0.89240515,10.62060195,9e-08,0.0,0.0,0.0,9e-08,0.0,0.0,0.0,9e-08
1536681899423765344,2644,1536681899423583904,base_link,-0.312951505462,0.0162386953401,0.139019521312,-0.939399399987,1.0,0.0,0.0,0.0,1.0,0.0,0.0,0.0,1.0,0.163689658046,-0.207367241383,-0.221387967467,1.21846967915e-07,0.0,0.0,0.0,1.21846967915e-07,0.0,0.0,0.0,1.21846967915e-07,0.87279185,1.01008495,11.1403544,9e-08,0.0,0.0,0.0,9e-08,0.0,0.0,0.0,9e-08
1536681899787935136,2645,1536681899787686464,base_link,-0.328241985316,0.0389779846152,0.197680567734,-0.922854435397,1.0,0.0,0.0,0.0,1.0,0.0,0.0,0.0,1.0,0.0960628837347,-0.219068065286,-0.319879084826,1.21846967915e-07,0.0,0.0,0.0,1.21846967915e-07,0.0,0.0,0.0,1.21846967915e-07,1.22583125,0.9610517,11.7091401,9e-08,0.0,0.0,0.0,9e-08,0.0,0.0,0.0,9e-08
1536681900268608448,2646,1536681900268168672,base_link,-0.350582084293,0.0769767155727,0.283297449777,-0.889330839667,1.0,0.0,0.0,0.0,1.0,0.0,0.0,0.0,1.0,0.161009296775,-0.216739192605,-0.280483752489,1.21846967915e-07,0.0,0.0,0.0,1.21846967915e-07,0.0,0.0,0.0,1.21846967915e-07,1.5494507,0.6668522,12.8270982,9e-08,0.0,0.0,0.0,9e-08,0.0,0.0,0.0,9e-08
1536681900749270240,2647,1536681900748682784,base_link,-0.337994367759,0.129568715136,0.369805695306,-0.85569591745,1.0,0.0,0.0,0.0,1.0,0.0,0.0,0.0,1.0,0.0162216126919,-0.320472061634,-0.257636427879,1.21846967915e-07,0.0,0.0,0.0,1.21846967915e-07,0.0,0.0,0.0,1.21846967915e-07,1.765197,1.1571847,14.4746154,9e-08,0.0,0.0,0.0,9e-08,0.0,0.0,0.0,9e-08
1536681901120642336,2648,1536681901120394496,base_link,-0.31757207215,0.183011455599,0.441929020373,-0.818751199732,1.0,0.0,0.0,0.0,1.0,0.0,0.0,0.0,1.0,-0.0128510268405,-0.491463452578,-0.304714053869,1.21846967915e-07,0.0,0.0,0.0,1.21846967915e-07,0.0,0.0,0.0,1.21846967915e-07,2.1182364,1.36312435,16.4947853,9e-08,0.0,0.0,0.0,9e-08,0.0,0.0,0.0,9e-08
1536681901575540992,2649,1536681901575169440,base_link,-0.294514129128,0.232302308186,0.518274945448,-0.768562389319,1.0,0.0,0.0,0.0,1.0,0.0,0.0,0.0,1.0,0.0415739417076,-0.19338734448,-0.278013944626,1.21846967915e-07,0.0,0.0,0.0,1.21846967915e-07,0.0,0.0,0.0,1.21846967915e-07,1.8044236,1.0002783,14.6903617,9e-08,0.0,0.0,0.0,9e-08,0.0,0.0,0.0,9e-08
1536681902116450528,2650,1536681902116155552,base_link,-0.26162797891,0.2768321456,0.605996273484,-0.698343239631,1.0,0.0,0.0,0.0,1.0,0.0,0.0,0.0,1.0,-0.0276600215584,-0.363014400005,-0.271310538054,1.21846967915e-07,0.0,0.0,0.0,1.21846967915e-07,0.0,0.0,0.0,1.21846967915e-07,1.61809725,1.14737805,14.22944915,9e-08,0.0,0.0,0.0,9e-08,0.0,0.0,0.0,9e-08
1536681902397515072,2651,1536681902394753472,base_link,0.223273867109,-0.277702017258,-0.65279877417,0.668493926913,1.0,0.0,0.0,0.0,1.0,0.0,0.0,0.0,1.0,-0.359210669994,-0.361333727837,-0.268963932991,1.21846967915e-07,0.0,0.0,0.0,1.21846967915e-07,0.0,0.0,0.0,1.21846967915e-07,0.784532,1.20621795,13.4351105,9e-08,0.0,0.0,0.0,9e-08,0.0,0.0,0.0,9e-08
1536681902800485824,2652,1536681902800012704,base_link,0.136134869789,-0.257596659331,-0.725311652177,0.623726114209,1.0,0.0,0.0,0.0,1.0,0.0,0.0,0.0,1.0,-0.478928506374,-0.207363903522,-0.278167843819,1.21846967915e-07,0.0,0.0,0.0,1.21846967915e-07,0.0,0.0,0.0,1.21846967915e-07,-0.93163175,0.85317855,14.7688149,9e-08,0.0,0.0,0.0,9e-08,0.0,0.0,0.0,9e-08
1536681903120109984,2653,1536681903119808352,base_link,0.062744415983,-0.18369940918,-0.781789186419,0.5925566077,1.0,0.0,0.0,0.0,1.0,0.0,0.0,0.0,1.0,-0.71364992857,-0.104652009904,-0.2622384727,1.21846967915e-07,0.0,0.0,0.0,1.21846967915e-07,0.0,0.0,0.0,1.21846967915e-07,-1.44157755,0.8433719,11.71894675,9e-08,0.0,0.0,0.0,9e-08,0.0,0.0,0.0,9e-08
1536681903517760128,2654,1536681903517470400,base_link,-0.0064405587513,-0.101285725949,-0.817993430713,0.566203557241,1.0,0.0,0.0,0.0,1.0,0.0,0.0,0.0,1.0,-0.552666842937,0.0310887731612,-0.0574865192175,1.21846967915e-07,0.0,0.0,0.0,1.21846967915e-07,0.0,0.0,0.0,1.21846967915e-07,-1.42196425,-0.00980665,10.8265416,9e-08,0.0,0.0,0.0,9e-08,0.0,0.0,0.0,9e-08
1536681904058283904,2655,1536681904058020736,base_link,-0.0622749740967,0.0052927282843,-0.821011560355,0.56748024846,1.0,0.0,0.0,0.0,1.0,0.0,0.0,0.0,1.0,-0.34647795558,0.106579549611,0.0670188516378,1.21846967915e-07,0.0,0.0,0.0,1.21846967915e-07,0.0,0.0,0.0,1.21846967915e-07,-1.20621795,0.4314926,7.3942141,9e-08,0.0,0.0,0.0,9e-08,0.0,0.0,0.0,9e-08
1536681904301231296,2656,1536681904300845888,base_link,-0.0711083621855,0.0468040039803,-0.815571023302,0.572360805776,1.0,0.0,0.0,0.0,1.0,0.0,0.0,0.0,1.0,-0.179249510169,0.179916575551,0.086269557476,1.21846967915e-07,0.0,0.0,0.0,1.21846967915e-07,0.0,0.0,0.0,1.21846967915e-07,-1.01008495,0.30400615,7.2961476,9e-08,0.0,0.0,0.0,9e-08,0.0,0.0,0.0,9e-08
1536681904734413152,2657,1536681904734075808,base_link,-0.0581143328329,0.107512561781,-0.800868377828,0.586236824819,1.0,0.0,0.0,0.0,1.0,0.0,0.0,0.0,1.0,-0.105318717659,0.198779284954,0.141273230314,1.21846967915e-07,0.0,0.0,0.0,1.21846967915e-07,0.0,0.0,0.0,1.21846967915e-07,-0.97085835,0.2549729,6.080123,9e-08,0.0,0.0,0.0,9e-08,0.0,0.0,0.0,9e-08
1536681905149019712,2658,1536681905148815584,base_link,-0.0262204686062,0.136747990763,-0.779808072671,0.610337483566,1.0,0.0,0.0,0.0,1.0,0.0,0.0,0.0,1.0,0.0914198607206,0.180486246943,0.211234420538,1.21846967915e-07,0.0,0.0,0.0,1.21846967915e-07,0.0,0.0,0.0,1.21846967915e-07,-0.9414384,-0.1765197,6.9038816,9e-08,0.0,0.0,0.0,9e-08,0.0,0.0,0.0,9e-08
1536681905604611584,2659,1536681905604098880,base_link,-0.00559039219498,0.153431783865,-0.743805907112,0.65052302631,1.0,0.0,0.0,0.0,1.0,0.0,0.0,0.0,1.0,-0.108923986554,0.0654915049672,0.221760094166,1.21846967915e-07,0.0,0.0,0.0,1.21846967915e-07,0.0,0.0,0.0,1.21846967915e-07,-0.8433719,0.10787315,8.95347145,9e-08,0.0,0.0,0.0,9e-08,0.0,0.0,0.0,9e-08
1536681905853052992,2660,1536681905851282720,base_link,0.000568355562033,0.150105107153,-0.729073515834,0.667772373109,1.0,0.0,0.0,0.0,1.0,0.0,0.0,0.0,1.0,0.141807034612,-0.0419333316386,0.183494955301,1.21846967915e-07,0.0,0.0,0.0,1.21846967915e-07,0.0,0.0,0.0,1.21846967915e-07,-0.7649187,0.12748645,10.18910935,9e-08,0.0,0.0,0.0,9e-08,0.0,0.0,0.0,9e-08
1536681906300028128,2661,1536681906299781824,base_link,0.0043816928687,0.120384831702,-0.705321725112,0.698576808339,1.0,0.0,0.0,0.0,1.0,0.0,0.0,0.0,1.0,0.0511190220714,-0.175810739398,0.149168074131,1.21846967915e-07,0.0,0.0,0.0,1.21846967915e-07,0.0,0.0,0.0,1.21846967915e-07,-0.8629852,0.26477955,10.54214875,9e-08,0.0,0.0,0.0,9e-08,0.0,0.0,0.0,9e-08
1536681906736210784,2662,1536681906735794400,base_link,0.00246044532962,-0.0804893308534,0.68519326298,-0.723896129424,1.0,0.0,0.0,0.0,1.0,0.0,0.0,0.0,1.0,0.133858039975,-0.15281021595,0.141472250223,1.21846967915e-07,0.0,0.0,0.0,1.21846967915e-07,0.0,0.0,0.0,1.21846967915e-07,-0.5295591,0.5099458,12.6898051,9e-08,0.0,0.0,0.0,9e-08,0.0,0.0,0.0,9e-08
1536681907207814816,2663,1536681907207559232,base_link,-0.0298531995177,-0.0210043580076,0.674802801254,-0.737094826222,1.0,0.0,0.0,0.0,1.0,0.0,0.0,0.0,1.0,0.127219453454,-0.0821152850986,0.0262226015329,1.21846967915e-07,0.0,0.0,0.0,1.21846967915e-07,0.0,0.0,0.0,1.21846967915e-07,-0.69627215,0.50013915,10.50292215,9e-08,0.0,0.0,0.0,9e-08,0.0,0.0,0.0,9e-08
1536681907587581792,2664,1536681907587284896,base_link,-0.052399271775,0.0119599798611,0.675898791832,-0.735032039029,1.0,0.0,0.0,0.0,1.0,0.0,0.0,0.0,1.0,0.204219669104,-0.0152031006292,-0.0224104952067,1.21846967915e-07,0.0,0.0,0.0,1.21846967915e-07,0.0,0.0,0.0,1.21846967915e-07,-0.7060788,0.42168595,9.75761675,9e-08,0.0,0.0,0.0,9e-08,0.0,0.0,0.0,9e-08
1536681908040108416,2665,1536681908039825792,base_link,-0.051028634478,0.0366653777731,0.677010836498,-0.73328579408,1.0,0.0,0.0,0.0,1.0,0.0,0.0,0.0,1.0,0.0585223697126,-0.105517417192,-0.0133011136204,1.21846967915e-07,0.0,0.0,0.0,1.21846967915e-07,0.0,0.0,0.0,1.21846967915e-07,-0.57859235,0.2549729,10.8069283,9e-08,0.0,0.0,0.0,9e-08,0.0,0.0,0.0,9e-08
1536681908381062560,2666,1536681908380792256,base_link,-0.0505522933953,0.0558487478277,0.678314899393,-0.730899637611,1.0,0.0,0.0,0.0,1.0,0.0,0.0,0.0,1.0,0.0265464186668,-0.0795395299792,-0.0151517791674,1.21846967915e-07,0.0,0.0,0.0,1.21846967915e-07,0.0,0.0,0.0,1.21846967915e-07,-0.42168595,0.3334261,10.6892485,9e-08,0.0,0.0,0.0,9e-08,0.0,0.0,0.0,9e-08
1536681908804799648,2667,1536681908804516576,base_link,-0.042755214782,0.0684976430008,0.682872187502,-0.726061732946,1.0,0.0,0.0,0.0,1.0,0.0,0.0,0.0,1.0,0.154693633318,-0.0822896808386,-0.0352209322155,1.21846967915e-07,0.0,0.0,0.0,1.21846967915e-07,0.0,0.0,0.0,1.21846967915e-07,-0.2353596,0.32361945,11.11093445,9e-08,0.0,0.0,0.0,9e-08,0.0,0.0,0.0,9e-08
1536681909167663424,2668,1536681909167454176,base_link,-0.0407187330399,0.0673706312682,0.687605800356,-0.721804299058,1.0,0.0,0.0,0.0,1.0,0.0,0.0,0.0,1.0,0.020979616791,0.049281321466,-0.0639400556684,1.21846967915e-07,0.0,0.0,0.0,1.21846967915e-07,0.0,0.0,0.0,1.21846967915e-07,-0.42168595,0.40207265,9.79684335,9e-08,0.0,0.0,0.0,9e-08,0.0,0.0,0.0,9e-08
1536681909392482976,2669,1536681909392036800,base_link,-0.0446910182482,0.068198065246,0.692024730317,-0.717254145623,1.0,0.0,0.0,0.0,1.0,0.0,0.0,0.0,1.0,-0.00768659124151,0.00626070518047,-0.060485586524,1.21846967915e-07,0.0,0.0,0.0,1.21846967915e-07,0.0,0.0,0.0,1.21846967915e-07,-0.34323275,0.30400615,9.610517,9e-08,0.0,0.0,0.0,9e-08,0.0,0.0,0.0,9e-08
1536681909857640800,2670,1536681909857351840,base_link,0.0508257841683,-0.0925352090177,-0.701927387824,0.704380520017,1.0,0.0,0.0,0.0,1.0,0.0,0.0,0.0,1.0,0.0956391170621,-0.0616526640952,-0.0563070476055,1.21846967915e-07,0.0,0.0,0.0,1.21846967915e-07,0.0,0.0,0.0,1.21846967915e-07,0.22555295,0.3138128,11.52281375,9e-08,0.0,0.0,0.0,9e-08,0.0,0.0,0.0,9e-08
1536681910186970016,2671,1536681910186627136,base_link,0.0645138577867,-0.112747400964,-0.706783480737,0.695401392785,1.0,0.0,0.0,0.0,1.0,0.0,0.0,0.0,1.0,0.0272056423128,-0.0558438226581,-0.0729978978634,1.21846967915e-07,0.0,0.0,0.0,1.21846967915e-07,0.0,0.0,0.0,1.21846967915e-07,0.30400615,0.3334261,11.4737805,9e-08,0.0,0.0,0.0,9e-08,0.0,0.0,0.0,9e-08
1536681910639815776,2672,1536681910638658432,base_link,0.0360804879153,-0.0727706552502,-0.7274978798,0.681285156901,1.0,0.0,0.0,0.0,1.0,0.0,0.0,0.0,1.0,-0.378099799156,0.0742749497294,-0.153948113322,1.21846967915e-07,0.0,0.0,0.0,1.21846967915e-07,0.0,0.0,0.0,1.21846967915e-07,0.0196133,0.48052585,9.1594111,9e-08,0.0,0.0,0.0,9e-08,0.0,0.0,0.0,9e-08
1536681910984133536,2673,1536681910983862176,base_link,0.00917746856263,-0.0250895782445,-0.74673708283,0.664582587991,1.0,0.0,0.0,0.0,1.0,0.0,0.0,0.0,1.0,-0.166592270136,0.0452147908509,-0.10553907603,1.21846967915e-07,0.0,0.0,0.0,1.21846967915e-07,0.0,0.0,0.0,1.21846967915e-07,-0.04903325,0.26477955,9.14960445,9e-08,0.0,0.0,0.0,9e-08,0.0,0.0,0.0,9e-08
1536681911391245696,2674,1536681911390774976,base_link,-0.000649108954441,-0.00624019055648,-0.751172111472,0.660076584667,1.0,0.0,0.0,0.0,1.0,0.0,0.0,0.0,1.0,-0.0264353305101,0.0264734253287,0.022741291672,1.21846967915e-07,0.0,0.0,0.0,1.21846967915e-07,0.0,0.0,0.0,1.21846967915e-07,-0.0588399,0.0784532,8.71811185,9e-08,0.0,0.0,0.0,9e-08,0.0,0.0,0.0,9e-08
1536681911745414656,2675,1536681911745220224,base_link,0.00366660972677,-0.0164150001057,-0.739938641511,0.672464058923,1.0,0.0,0.0,0.0,1.0,0.0,0.0,0.0,1.0,0.203628584743,-0.0217974949628,0.135784268379,1.21846967915e-07,0.0,0.0,0.0,1.21846967915e-07,0.0,0.0,0.0,1.21846967915e-07,0.00980665,0.08825985,9.1201845,9e-08,0.0,0.0,0.0,9e-08,0.0,0.0,0.0,9e-08
1536681912166863744,2676,1536681912166490176,base_link,0.0176557943116,-0.0483898212428,-0.717190383437,0.694970972079,1.0,0.0,0.0,0.0,1.0,0.0,0.0,0.0,1.0,0.17553460598,-0.071574896574,0.117990553379,1.21846967915e-07,0.0,0.0,0.0,1.21846967915e-07,0.0,0.0,0.0,1.21846967915e-07,0.14709975,0.4118793,9.89490985,9e-08,0.0,0.0,0.0,9e-08,0.0,0.0,0.0,9e-08
1536681912616326016,2677,1536681912615985120,base_link,0.0233585890333,-0.068411982645,-0.708890488731,0.701604198916,1.0,0.0,0.0,0.0,1.0,0.0,0.0,0.0,1.0,0.0631327182055,-0.0220752432942,-0.0216089077294,1.21846967915e-07,0.0,0.0,0.0,1.21846967915e-07,0.0,0.0,0.0,1.21846967915e-07,0.40207265,0.5295591,9.93413645,9e-08,0.0,0.0,0.0,9e-08,0.0,0.0,0.0,9e-08
1536681913075809728,2678,1536681913075517216,base_link,0.0359170723681,-0.0903711165256,-0.721193918331,0.685873426641,1.0,0.0,0.0,0.0,1.0,0.0,0.0,0.0,1.0,0.165157034993,0.00706215342507,-0.111014716327,1.21846967915e-07,0.0,0.0,0.0,1.21846967915e-07,0.0,0.0,0.0,1.21846967915e-07,0.4903325,0.50013915,9.81645665,9e-08,0.0,0.0,0.0,9e-08,0.0,0.0,0.0,9e-08
1536681913355223296,2679,1536681913354952992,base_link,0.0542180217071,-0.101920490179,-0.729604530675,0.674054781618,1.0,0.0,0.0,0.0,1.0,0.0,0.0,0.0,1.0,0.133797451854,0.0437883362174,-0.108824469149,1.21846967915e-07,0.0,0.0,0.0,1.21846967915e-07,0.0,0.0,0.0,1.21846967915e-07,0.4314926,0.5687857,9.11037785,9e-08,0.0,0.0,0.0,9e-08,0.0,0.0,0.0,9e-08
1536681913693026016,2680,1536681913692380448,base_link,0.0704362304051,-0.0930837191507,-0.741154657939,0.661108108929,1.0,0.0,0.0,0.0,1.0,0.0,0.0,0.0,1.0,-0.0401691347361,0.0917502492666,-0.115870520473,1.21846967915e-07,0.0,0.0,0.0,1.21846967915e-07,0.0,0.0,0.0,1.21846967915e-07,0.3726527,0.392266,8.5710121,9e-08,0.0,0.0,0.0,9e-08,0.0,0.0,0.0,9e-08
1536681914003064224,2681,1536681914002401888,base_link,0.0800815704737,-0.0816523316218,-0.752887189434,0.648136342753,1.0,0.0,0.0,0.0,1.0,0.0,0.0,0.0,1.0,0.0930489972234,0.0282382704318,-0.153370007873,1.21846967915e-07,0.0,0.0,0.0,1.21846967915e-07,0.0,0.0,0.0,1.21846967915e-07,0.3138128,0.77472535,8.42391235,9e-08,0.0,0.0,0.0,9e-08,0.0,0.0,0.0,9e-08
1536681914549945216,2682,1536681914549475904,base_link,0.0927258048342,-0.0939304109845,-0.775001874627,0.618021923021,1.0,0.0,0.0,0.0,1.0,0.0,0.0,0.0,1.0,0.00244949222542,0.0305279735476,-0.114031687379,1.21846967915e-07,0.0,0.0,0.0,1.21846967915e-07,0.0,0.0,0.0,1.21846967915e-07,0.5295591,0.77472535,9.4536106,9e-08,0.0,0.0,0.0,9e-08,0.0,0.0,0.0,9e-08
1536681915063502592,2683,1536681915063336768,base_link,0.108625126645,-0.0888667282136,-0.785781670672,0.602370693605,1.0,0.0,0.0,0.0,1.0,0.0,0.0,0.0,1.0,0.133339270949,0.0507055595517,-0.0905291810632,1.21846967915e-07,0.0,0.0,0.0,1.21846967915e-07,0.0,0.0,0.0,1.21846967915e-07,0.55897905,1.01008495,9.97336305,9e-08,0.0,0.0,0.0,9e-08,0.0,0.0,0.0,9e-08
1536681915320475936,2684,1536681915320020672,base_link,0.110369460034,-0.110398666124,-0.796703337347,0.583861720847,1.0,0.0,0.0,0.0,1.0,0.0,0.0,0.0,1.0,0.148382291198,-0.231297031045,-0.16703940928,1.21846967915e-07,0.0,0.0,0.0,1.21846967915e-07,0.0,0.0,0.0,1.21846967915e-07,0.3726527,0.95124505,10.1400761,9e-08,0.0,0.0,0.0,9e-08,0.0,0.0,0.0,9e-08
1536681915673394848,2685,1536681915672886816,base_link,0.0891421889437,-0.15008883527,-0.819645813792,0.545626018084,1.0,0.0,0.0,0.0,1.0,0.0,0.0,0.0,1.0,0.154884979129,-0.208640232682,-0.235570281744,1.21846967915e-07,0.0,0.0,0.0,1.21846967915e-07,0.0,0.0,0.0,1.21846967915e-07,0.7649187,0.81395195,11.05209455,9e-08,0.0,0.0,0.0,9e-08,0.0,0.0,0.0,9e-08
1536681916073217536,2686,1536681916072937216,base_link,0.107776768461,-0.182825498529,-0.836093901543,0.505871518342,1.0,0.0,0.0,0.0,1.0,0.0,0.0,0.0,1.0,0.20842051506,0.0303710624576,-0.161476388574,1.21846967915e-07,0.0,0.0,0.0,1.21846967915e-07,0.0,0.0,0.0,1.21846967915e-07,0.50013915,0.89240515,10.11065615,9e-08,0.0,0.0,0.0,9e-08,0.0,0.0,0.0,9e-08
1536681916488384384,2687,1536681916487907680,base_link,0.107350096042,-0.242600398331,-0.856666082135,0.442429912336,1.0,0.0,0.0,0.0,1.0,0.0,0.0,0.0,1.0,0.309831440449,-0.431023597717,-0.392448306084,1.21846967915e-07,0.0,0.0,0.0,1.21846967915e-07,0.0,0.0,0.0,1.21846967915e-07,0.5687857,1.08853815,10.9246081,9e-08,0.0,0.0,0.0,9e-08,0.0,0.0,0.0,9e-08
1536681916897195520,2688,1536681916896736608,base_link,0.071548921551,-0.310368785718,-0.888031721346,0.331589551342,1.0,0.0,0.0,0.0,1.0,0.0,0.0,0.0,1.0,0.0412719510496,-0.349333465099,-0.48258921504,1.21846967915e-07,0.0,0.0,0.0,1.21846967915e-07,0.0,0.0,0.0,1.21846967915e-07,0.6668522,1.3337044,11.28745415,9e-08,0.0,0.0,0.0,9e-08,0.0,0.0,0.0,9e-08
1536681917397865024,2689,1536681917397590528,base_link,0.0650637087201,-0.32188151482,-0.921836177684,0.205856905974,1.0,0.0,0.0,0.0,1.0,0.0,0.0,0.0,1.0,-0.106895416975,-0.17387264967,-0.434975266457,1.21846967915e-07,0.0,0.0,0.0,1.21846967915e-07,0.0,0.0,0.0,1.21846967915e-07,0.57859235,1.0787315,9.9831697,9e-08,0.0,0.0,0.0,9e-08,0.0,0.0,0.0,9e-08
1536681917877366560,2690,1536681917876118336,base_link,0.0478920708852,-0.28055116199,-0.954512880528,0.0888963213983,1.0,0.0,0.0,0.0,1.0,0.0,0.0,0.0,1.0,-0.205996379256,-0.126148641109,-0.505222499371,1.21846967915e-07,0.0,0.0,0.0,1.21846967915e-07,0.0,0.0,0.0,1.21846967915e-07,0.6276256,0.7453054,10.395049,9e-08,0.0,0.0,0.0,9e-08,0.0,0.0,0.0,9e-08
1536681918289104736,2691,1536681918284694784,base_link,0.0256098295225,-0.261322108322,-0.964843822018,-0.011458248024,1.0,0.0,0.0,0.0,1.0,0.0,0.0,0.0,1.0,0.00178775284439,-0.333800077438,-0.311980932951,1.21846967915e-07,0.0,0.0,0.0,1.21846967915e-07,0.0,0.0,0.0,1.21846967915e-07,0.5687857,0.4314926,10.9442214,9e-08,0.0,0.0,0.0,9e-08,0.0,0.0,0.0,9e-08
1536681918735295424,2692,1536681918733190368,base_link,-0.0257522058876,-0.22237353724,-0.969665685987,-0.0981595193884,1.0,0.0,0.0,0.0,1.0,0.0,0.0,0.0,1.0,-0.336285442114,-0.189801797271,-0.291761487722,1.21846967915e-07,0.0,0.0,0.0,1.21846967915e-07,0.0,0.0,0.0,1.21846967915e-07,0.71588545,1.0395049,10.9442214,9e-08,0.0,0.0,0.0,9e-08,0.0,0.0,0.0,9e-08
1536681919302587424,2693,1536681919299629184,base_link,-0.00999515372297,-0.128225887782,-0.976531779947,-0.172753875088,1.0,0.0,0.0,0.0,1.0,0.0,0.0,0.0,1.0,-0.419698596001,-0.00728112692013,-0.180448934436,1.21846967915e-07,0.0,0.0,0.0,1.21846967915e-07,0.0,0.0,0.0,1.21846967915e-07,0.67665885,0.51975245,10.62060195,9e-08,0.0,0.0,0.0,9e-08,0.0,0.0,0.0,9e-08
1536681919644918016,2694,1536681919642833696,base_link,-0.00150895445465,-0.0764749507909,-0.977817157453,-0.194994644922,1.0,0.0,0.0,0.0,1.0,0.0,0.0,0.0,1.0,-0.204725578427,-0.0215122941881,-0.0584356971085,1.21846967915e-07,0.0,0.0,0.0,1.21846967915e-07,0.0,0.0,0.0,1.21846967915e-07,0.59820565,0.7256921,10.4538889,9e-08,0.0,0.0,0.0,9e-08,0.0,0.0,0.0,9e-08
1536681919993601568,2695,1536681919993401152,base_link,-0.00413657499474,-0.0552629338528,-0.978878093826,-0.196790686558,1.0,0.0,0.0,0.0,1.0,0.0,0.0,0.0,1.0,-0.160043671727,-0.0102357296273,0.0759600177407,1.21846967915e-07,0.0,0.0,0.0,1.21846967915e-07,0.0,0.0,0.0,1.21846967915e-07,0.5687857,0.3138128,10.5323421,9e-08,0.0,0.0,0.0,9e-08,0.0,0.0,0.0,9e-08
1536681920335141952,2696,1536681920334196832,base_link,-0.0243082767119,-0.0287002068021,-0.982583164745,-0.181977279273,1.0,0.0,0.0,0.0,1.0,0.0,0.0,0.0,1.0,-0.15901710093,-0.196117132902,0.100978963077,1.21846967915e-07,0.0,0.0,0.0,1.21846967915e-07,0.0,0.0,0.0,1.21846967915e-07,0.69627215,0.4707192,10.91480145,9e-08,0.0,0.0,0.0,9e-08,0.0,0.0,0.0,9e-08
1536681920588445216,2697,1536681920587943520,base_link,-0.0312815464325,-0.0041968408354,-0.984523408672,-0.172387671129,1.0,0.0,0.0,0.0,1.0,0.0,0.0,0.0,1.0,-0.21842482686,0.0381574593484,0.0395331941545,1.21846967915e-07,0.0,0.0,0.0,1.21846967915e-07,0.0,0.0,0.0,1.21846967915e-07,0.7453054,0.95124505,10.97364135,9e-08,0.0,0.0,0.0,9e-08,0.0,0.0,0.0,9e-08
1536681920969171552,2698,1536681920968881056,base_link,0.00456548940852,0.0233796528232,-0.98745742814,-0.156078107855,1.0,0.0,0.0,0.0,1.0,0.0,0.0,0.0,1.0,-0.103543691337,0.230855613947,0.138534188271,1.21846967915e-07,0.0,0.0,0.0,1.21846967915e-07,0.0,0.0,0.0,1.21846967915e-07,0.55897905,0.6668522,9.9831697,9e-08,0.0,0.0,0.0,9e-08,0.0,0.0,0.0,9e-08
1536681921506627296,2699,1536681921506197088,base_link,0.0119778749247,0.0220823043405,-0.99320453935,-0.113638221394,1.0,0.0,0.0,0.0,1.0,0.0,0.0,0.0,1.0,0.0325343422592,-0.1047674492,0.2006521523,1.21846967915e-07,0.0,0.0,0.0,1.21846967915e-07,0.0,0.0,0.0,1.21846967915e-07,0.57859235,0.6472389,10.3165958,9e-08,0.0,0.0,0.0,9e-08,0.0,0.0,0.0,9e-08
1536681921913370688,2700,1536681921912472640,base_link,0.00287130195566,0.0232474810346,-0.99690369494,-0.0750621959763,1.0,0.0,0.0,0.0,1.0,0.0,0.0,0.0,1.0,-0.0335756763816,0.00228352518752,0.165475308895,1.21846967915e-07,0.0,0.0,0.0,1.21846967915e-07,0.0,0.0,0.0,1.21846967915e-07,0.63743225,1.0198916,10.0223963,9e-08,0.0,0.0,0.0,9e-08,0.0,0.0,0.0,9e-08
1536681922240247968,2701,1536681922240002592,base_link,0.00131468641542,0.0315645180616,-0.998160444669,-0.0517462993508,1.0,0.0,0.0,0.0,1.0,0.0,0.0,0.0,1.0,0.0213906131685,-0.0216611754149,0.0965605080128,1.21846967915e-07,0.0,0.0,0.0,1.21846967915e-07,0.0,0.0,0.0,1.21846967915e-07,0.61781895,0.7256921,10.2969825,9e-08,0.0,0.0,0.0,9e-08,0.0,0.0,0.0,9e-08
1536681922647372320,2702,1536681922646827488,base_link,0.00968629045792,0.00451620913784,-0.999622777831,-0.0252998354302,1.0,0.0,0.0,0.0,1.0,0.0,0.0,0.0,1.0,0.194816350937,0.0692776292562,0.179264545441,1.21846967915e-07,0.0,0.0,0.0,1.21846967915e-07,0.0,0.0,0.0,1.21846967915e-07,0.4511059,0.6864655,9.44380395,9e-08,0.0,0.0,0.0,9e-08,0.0,0.0,0.0,9e-08
1536681923036037056,2703,1536681923035625568,base_link,-0.00186925669436,-0.0137438826334,-0.999903331058,-0.0009695922713,1.0,0.0,0.0,0.0,1.0,0.0,0.0,0.0,1.0,0.0589448735118,-0.154916912317,0.0459559075534,1.21846967915e-07,0.0,0.0,0.0,1.21846967915e-07,0.0,0.0,0.0,1.21846967915e-07,0.53936575,0.95124505,9.95374975,9e-08,0.0,0.0,0.0,9e-08,0.0,0.0,0.0,9e-08
