%time,field.header.seq,field.header.stamp,field.header.frame_id,field.orientation.x,field.orientation.y,field.orientation.z,field.orientation.w,field.orientation_covariance0,field.orientation_covariance1,field.orientation_covariance2,field.orientation_covariance3,field.orientation_covariance4,field.orientation_covariance5,field.orientation_covariance6,field.orientation_covariance7,field.orientation_covariance8,field.angular_velocity.x,field.angular_velocity.y,field.angular_velocity.z,field.angular_velocity_covariance0,field.angular_velocity_covariance1,field.angular_velocity_covariance2,field.angular_velocity_covariance3,field.angular_velocity_covariance4,field.angular_velocity_covariance5,field.angular_velocity_covariance6,field.angular_velocity_covariance7,field.angular_velocity_covariance8,field.linear_acceleration.x,field.linear_acceleration.y,field.linear_acceleration.z,field.linear_acceleration_covariance0,field.linear_acceleration_covariance1,field.linear_acceleration_covariance2,field.linear_acceleration_covariance3,field.linear_acceleration_covariance4,field.linear_acceleration_covariance5,field.linear_acceleration_covariance6,field.linear_acceleration_covariance7,field.linear_acceleration_covariance8
1538765738597962888,3974,1538765738597592936,base_link,0.0468789399755,-0.221182020917,-0.974085604495,0.00617363145987,1.0,0.0,0.0,0.0,1.0,0.0,0.0,0.0,1.0,0.537585377693,-0.114854209125,-0.119941055775,1.21846967915e-07,0.0,0.0,0.0,1.21846967915e-07,0.0,0.0,0.0,1.21846967915e-07,-0.44129925,0.71588545,11.6699135,9e-08,0.0,0.0,0.0,9e-08,0.0,0.0,0.0,9e-08
1538765738987159848,3975,1538765738978284232,base_link,0.0408540687977,-0.291319282444,-0.955086961199,-0.0356779663931,1.0,0.0,0.0,0.0,1.0,0.0,0.0,0.0,1.0,0.286486506462,-0.0168709121644,-0.229121685028,1.21846967915e-07,0.0,0.0,0.0,1.21846967915e-07,0.0,0.0,0.0,1.21846967915e-07,-0.5295591,0.8041453,10.24794925,9e-08,0.0,0.0,0.0,9e-08,0.0,0.0,0.0,9e-08
1538765739326457256,3976,1538765739323870056,base_link,0.0558085508206,-0.320180321844,-0.940558215879,-0.0985911238454,1.0,0.0,0.0,0.0,1.0,0.0,0.0,0.0,1.0,0.0600008219481,-0.014059048146,-0.378124535084,1.21846967915e-07,0.0,0.0,0.0,1.21846967915e-07,0.0,0.0,0.0,1.21846967915e-07,-0.8825985,0.7256921,7.649187,9e-08,0.0,0.0,0.0,9e-08,0.0,0.0,0.0,9e-08
1538765739754929768,3977,1538765739753979048,base_link,0.072211186016,-0.31088779292,-0.933028509192,-0.166108777198,1.0,0.0,0.0,0.0,1.0,0.0,0.0,0.0,1.0,-0.0874442458153,-0.0178725756705,-0.223300337791,1.21846967915e-07,0.0,0.0,0.0,1.21846967915e-07,0.0,0.0,0.0,1.21846967915e-07,-0.97085835,0.2941995,8.58081875,9e-08,0.0,0.0,0.0,9e-08,0.0,0.0,0.0,9e-08
1538765740206304648,3978,1538765740205945992,base_link,0.0818103549649,-0.294071538005,-0.929601436339,-0.20656758195,1.0,0.0,0.0,0.0,1.0,0.0,0.0,0.0,1.0,-0.0971840694547,-0.0235815383494,-0.18300203979,1.21846967915e-07,0.0,0.0,0.0,1.21846967915e-07,0.0,0.0,0.0,1.21846967915e-07,-1.2552512,0.81395195,9.36535075,9e-08,0.0,0.0,0.0,9e-08,0.0,0.0,0.0,9e-08
1538765740736545160,3979,1538765740732165192,base_link,0.109025642922,-0.246216772208,-0.927332059119,-0.259896060761,1.0,0.0,0.0,0.0,1.0,0.0,0.0,0.0,1.0,-0.173263683915,0.0214391127229,-0.208614349365,1.21846967915e-07,0.0,0.0,0.0,1.21846967915e-07,0.0,0.0,0.0,1.21846967915e-07,-1.42196425,0.65704555,8.2768126,9e-08,0.0,0.0,0.0,9e-08,0.0,0.0,0.0,9e-08
1538765741050250824,3980,1538765741049939528,base_link,0.128153800092,-0.205048874484,-0.927366260508,-0.285522996386,1.0,0.0,0.0,0.0,1.0,0.0,0.0,0.0,1.0,-0.201450616121,0.00629921769723,-0.196883454919,1.21846967915e-07,0.0,0.0,0.0,1.21846967915e-07,0.0,0.0,0.0,1.21846967915e-07,-1.59848395,0.69627215,9.30651085,9e-08,0.0,0.0,0.0,9e-08,0.0,0.0,0.0,9e-08
1538765741417739624,3981,1538765741417309384,base_link,0.145514960035,-0.166987413898,-0.925119050932,-0.308375325875,1.0,0.0,0.0,0.0,1.0,0.0,0.0,0.0,1.0,-0.166514113545,0.0121833831072,-0.143253281713,1.21846967915e-07,0.0,0.0,0.0,1.21846967915e-07,0.0,0.0,0.0,1.21846967915e-07,-1.67693715,0.3530394,8.8455983,9e-08,0.0,0.0,0.0,9e-08,0.0,0.0,0.0,9e-08
1538765741773371560,3982,1538765741772863016,base_link,0.153521319443,-0.145925621285,-0.924585318619,-0.316668448258,1.0,0.0,0.0,0.0,1.0,0.0,0.0,0.0,1.0,-0.125096678734,-0.0111982068047,-0.0103323124349,1.21846967915e-07,0.0,0.0,0.0,1.21846967915e-07,0.0,0.0,0.0,1.21846967915e-07,-1.9024901,0.2157463,9.2574776,9e-08,0.0,0.0,0.0,9e-08,0.0,0.0,0.0,9e-08
1538765742203121160,3983,1538765742202879272,base_link,0.1617666062,-0.118069705869,-0.926837607235,-0.317589608598,1.0,0.0,0.0,0.0,1.0,0.0,0.0,0.0,1.0,-0.0606524832547,-0.00821937527508,-0.0620673969388,1.21846967915e-07,0.0,0.0,0.0,1.21846967915e-07,0.0,0.0,0.0,1.21846967915e-07,-1.8632635,0.65704555,9.9439431,9e-08,0.0,0.0,0.0,9e-08,0.0,0.0,0.0,9e-08
1538765742580128520,3984,1538765742579261896,base_link,0.15687022134,-0.126278445611,-0.923064452799,-0.327715583716,1.0,0.0,0.0,0.0,1.0,0.0,0.0,0.0,1.0,0.10501305759,-0.0101164001971,-0.00284623680636,1.21846967915e-07,0.0,0.0,0.0,1.21846967915e-07,0.0,0.0,0.0,1.21846967915e-07,-1.97113665,0.02941995,10.95402805,9e-08,0.0,0.0,0.0,9e-08,0.0,0.0,0.0,9e-08
1538765743035269544,3985,1538765743034934024,base_link,0.149678807498,-0.137877809216,-0.916030095504,-0.345651310489,1.0,0.0,0.0,0.0,1.0,0.0,0.0,0.0,1.0,0.0194465164095,-0.00430033076555,-0.115652903914,1.21846967915e-07,0.0,0.0,0.0,1.21846967915e-07,0.0,0.0,0.0,1.21846967915e-07,-2.2163029,0.28439285,9.87529655,9e-08,0.0,0.0,0.0,9e-08,0.0,0.0,0.0,9e-08
1538765743423142440,3986,1538765743422695336,base_link,0.124777416136,-0.195496534787,-0.902335675821,-0.36332083542,1.0,0.0,0.0,0.0,1.0,0.0,0.0,0.0,1.0,0.156191140413,-0.0416076779366,-0.00250614760444,1.21846967915e-07,0.0,0.0,0.0,1.21846967915e-07,0.0,0.0,0.0,1.21846967915e-07,-2.1966896,0.36284605,10.11065615,9e-08,0.0,0.0,0.0,9e-08,0.0,0.0,0.0,9e-08
1538765743747098568,3987,1538765743744449608,base_link,0.110956473085,-0.214961362212,-0.891728222872,-0.382493203039,1.0,0.0,0.0,0.0,1.0,0.0,0.0,0.0,1.0,0.525419414043,-0.00325202662498,-0.176770329475,1.21846967915e-07,0.0,0.0,0.0,1.21846967915e-07,0.0,0.0,0.0,1.21846967915e-07,-1.97113665,0.5099458,13.20955755,9e-08,0.0,0.0,0.0,9e-08,0.0,0.0,0.0,9e-08
1538765744184597704,3988,1538765744184049448,base_link,0.0694159569269,-0.310337683195,-0.848019774164,-0.423950952281,1.0,0.0,0.0,0.0,1.0,0.0,0.0,0.0,1.0,0.205771550536,-0.0787184461951,-0.244798123837,1.21846967915e-07,0.0,0.0,0.0,1.21846967915e-07,0.0,0.0,0.0,1.21846967915e-07,-2.0790098,1.08853815,6.8058151,9e-08,0.0,0.0,0.0,9e-08,0.0,0.0,0.0,9e-08
1538765744597061384,3989,1538765744596709608,base_link,0.0320636474873,-0.314993990667,-0.814742569425,-0.48574196228,1.0,0.0,0.0,0.0,1.0,0.0,0.0,0.0,1.0,0.368717730045,-0.274981230497,-0.195875838399,1.21846967915e-07,0.0,0.0,0.0,1.21846967915e-07,0.0,0.0,0.0,1.21846967915e-07,-2.04958985,0.44129925,15.5925735,9e-08,0.0,0.0,0.0,9e-08,0.0,0.0,0.0,9e-08
1538765744967393160,3990,1538765744965457672,base_link,-0.0309537248407,-0.321526207952,-0.782157151087,-0.532816061622,1.0,0.0,0.0,0.0,1.0,0.0,0.0,0.0,1.0,0.339476525784,-0.37924259901,-0.181779682636,1.21846967915e-07,0.0,0.0,0.0,1.21846967915e-07,0.0,0.0,0.0,1.21846967915e-07,-1.59848395,0.44129925,16.3378789,9e-08,0.0,0.0,0.0,9e-08,0.0,0.0,0.0,9e-08
1538765745424380936,3991,1538765745423911560,base_link,-0.111155028671,-0.292188333865,-0.736904472187,-0.599368280796,1.0,0.0,0.0,0.0,1.0,0.0,0.0,0.0,1.0,-0.0117020215839,-0.440781116486,-0.219204604626,1.21846967915e-07,0.0,0.0,0.0,1.21846967915e-07,0.0,0.0,0.0,1.21846967915e-07,-0.99047165,0.55897905,17.42641705,9e-08,0.0,0.0,0.0,9e-08,0.0,0.0,0.0,9e-08
1538765745756953864,3992,1538765745756093288,base_link,-0.158820664445,-0.253963241479,-0.707554958542,-0.640034881209,1.0,0.0,0.0,0.0,1.0,0.0,0.0,0.0,1.0,0.0729303881526,-0.418833136559,-0.159975245595,1.21846967915e-07,0.0,0.0,0.0,1.21846967915e-07,0.0,0.0,0.0,1.21846967915e-07,-0.73549875,0.5099458,17.23028405,9e-08,0.0,0.0,0.0,9e-08,0.0,0.0,0.0,9e-08
1538765746148357224,3993,1538765746147647368,base_link,-0.226123138852,-0.224650272542,-0.673028818048,-0.66740751509,1.0,0.0,0.0,0.0,1.0,0.0,0.0,0.0,1.0,0.0643843859434,-0.339364260435,-0.0878711715341,1.21846967915e-07,0.0,0.0,0.0,1.21846967915e-07,0.0,0.0,0.0,1.21846967915e-07,-0.3334261,0.85317855,15.1414676,9e-08,0.0,0.0,0.0,9e-08,0.0,0.0,0.0,9e-08
1538765746430643880,3994,1538765746430405736,base_link,-0.250767360948,-0.205039035658,-0.647306270894,-0.689977765005,1.0,0.0,0.0,0.0,1.0,0.0,0.0,0.0,1.0,-0.0319695398211,-0.243948757648,-0.248880118132,1.21846967915e-07,0.0,0.0,0.0,1.21846967915e-07,0.0,0.0,0.0,1.21846967915e-07,0.0980665,0.9414384,13.36646395,9e-08,0.0,0.0,0.0,9e-08,0.0,0.0,0.0,9e-08
1538765746803797864,3995,1538765746803217160,base_link,-0.278667725099,-0.193213687931,-0.595102944417,-0.728605006386,1.0,0.0,0.0,0.0,1.0,0.0,0.0,0.0,1.0,0.0282520875335,-0.227931454778,-0.296489179134,1.21846967915e-07,0.0,0.0,0.0,1.21846967915e-07,0.0,0.0,0.0,1.21846967915e-07,0.00980665,0.6472389,11.5130071,9e-08,0.0,0.0,0.0,9e-08,0.0,0.0,0.0,9e-08
1538765747258099816,3996,1538765747257712488,base_link,-0.337417304704,-0.191806958502,-0.522147519028,-0.759421899559,1.0,0.0,0.0,0.0,1.0,0.0,0.0,0.0,1.0,0.0711347088218,-0.318630427122,-0.188342601061,1.21846967915e-07,0.0,0.0,0.0,1.21846967915e-07,0.0,0.0,0.0,1.21846967915e-07,0.36284605,0.8629852,12.9643913,9e-08,0.0,0.0,0.0,9e-08,0.0,0.0,0.0,9e-08
1538765747565772808,3997,1538765747565354120,base_link,-0.346539216372,-0.172334938376,-0.47605783868,-0.789670928148,1.0,0.0,0.0,0.0,1.0,0.0,0.0,0.0,1.0,-0.160305172205,-0.27316686511,-0.340275168419,1.21846967915e-07,0.0,0.0,0.0,1.21846967915e-07,0.0,0.0,0.0,1.21846967915e-07,0.4118793,1.3140911,12.3759923,9e-08,0.0,0.0,0.0,9e-08,0.0,0.0,0.0,9e-08
1538765748000449352,3998,1538765747999938344,base_link,-0.349840831617,-0.142245956997,-0.391144783584,-0.839275424713,1.0,0.0,0.0,0.0,1.0,0.0,0.0,0.0,1.0,-0.0700120925903,-0.29018291831,-0.262315630913,1.21846967915e-07,0.0,0.0,0.0,1.21846967915e-07,0.0,0.0,0.0,1.21846967915e-07,0.3138128,0.24516625,11.8268199,9e-08,0.0,0.0,0.0,9e-08,0.0,0.0,0.0,9e-08
1538765748370992616,3999,1538765748370577896,base_link,-0.389454133571,-0.117179889007,-0.323794151489,-0.854255054956,1.0,0.0,0.0,0.0,1.0,0.0,0.0,0.0,1.0,-0.199787542224,-0.375986278057,-0.334647268057,1.21846967915e-07,0.0,0.0,0.0,1.21846967915e-07,0.0,0.0,0.0,1.21846967915e-07,0.42168595,2.08881645,14.1411893,9e-08,0.0,0.0,0.0,9e-08,0.0,0.0,0.0,9e-08
1538765748812473704,4000,1538765748811580872,base_link,-0.372292817946,-0.0963336524784,-0.225016036145,-0.89525731976,1.0,0.0,0.0,0.0,1.0,0.0,0.0,0.0,1.0,0.079755820334,-0.276736736298,-0.375353246927,1.21846967915e-07,0.0,0.0,0.0,1.21846967915e-07,0.0,0.0,0.0,1.21846967915e-07,0.34323275,0.4314926,12.160246,9e-08,0.0,0.0,0.0,9e-08,0.0,0.0,0.0,9e-08
1538765749307734408,4001,1538765749305617448,base_link,-0.388478726659,-0.0454869972645,-0.131948362853,-0.910826460723,1.0,0.0,0.0,0.0,1.0,0.0,0.0,0.0,1.0,-0.036314599216,-0.323631435633,-0.262902826071,1.21846967915e-07,0.0,0.0,0.0,1.21846967915e-07,0.0,0.0,0.0,1.21846967915e-07,0.30400615,0.89240515,12.91535805,9e-08,0.0,0.0,0.0,9e-08,0.0,0.0,0.0,9e-08
1538765749713742312,4002,1538765749713430696,base_link,-0.359636081538,-0.0144091974524,-0.0508290841664,-0.931595764314,1.0,0.0,0.0,0.0,1.0,0.0,0.0,0.0,1.0,-0.0830383449793,-0.270513534546,-0.362661242485,1.21846967915e-07,0.0,0.0,0.0,1.21846967915e-07,0.0,0.0,0.0,1.21846967915e-07,0.20593965,0.93163175,11.64049355,9e-08,0.0,0.0,0.0,9e-08,0.0,0.0,0.0,9e-08
1538765750062270632,4003,1538765750061285448,base_link,-0.36348810885,0.00333602077706,0.0254493168001,-0.931245186814,1.0,0.0,0.0,0.0,1.0,0.0,0.0,0.0,1.0,-0.0379986427724,-0.294581413269,-0.342982321978,1.21846967915e-07,0.0,0.0,0.0,1.21846967915e-07,0.0,0.0,0.0,1.21846967915e-07,0.12748645,0.6276256,10.591182,9e-08,0.0,0.0,0.0,9e-08,0.0,0.0,0.0,9e-08
1538765750515997512,4004,1538765750515662248,base_link,-0.321363937728,0.0436767518354,0.0909550625564,-0.941565046862,1.0,0.0,0.0,0.0,1.0,0.0,0.0,0.0,1.0,-0.0982068404555,-0.168496489525,-0.195582479239,1.21846967915e-07,0.0,0.0,0.0,1.21846967915e-07,0.0,0.0,0.0,1.21846967915e-07,0.1176798,1.26505785,12.6898051,9e-08,0.0,0.0,0.0,9e-08,0.0,0.0,0.0,9e-08
1538765750952054120,4005,1538765750951474600,base_link,-0.340725562227,0.0499269085482,0.174018215672,-0.922567642865,1.0,0.0,0.0,0.0,1.0,0.0,0.0,0.0,1.0,0.0304062161595,-0.159697368741,-0.428202003241,1.21846967915e-07,0.0,0.0,0.0,1.21846967915e-07,0.0,0.0,0.0,1.21846967915e-07,-0.02941995,1.06892485,12.1798593,9e-08,0.0,0.0,0.0,9e-08,0.0,0.0,0.0,9e-08
1538765751451536168,4006,1538765751451285512,base_link,-0.344693496753,0.060076764455,0.276725939176,-0.894985994447,1.0,0.0,0.0,0.0,1.0,0.0,0.0,0.0,1.0,-0.036291398108,-0.226938277483,-0.412475407124,1.21846967915e-07,0.0,0.0,0.0,1.21846967915e-07,0.0,0.0,0.0,1.21846967915e-07,-0.42168595,0.8433719,9.75761675,9e-08,0.0,0.0,0.0,9e-08,0.0,0.0,0.0,9e-08
1538765751800419784,4007,1538765751799953800,base_link,-0.357593692321,0.0871646003084,0.346359865379,-0.862881177984,1.0,0.0,0.0,0.0,1.0,0.0,0.0,0.0,1.0,0.147210478783,-0.319151461124,-0.307522892952,1.21846967915e-07,0.0,0.0,0.0,1.21846967915e-07,0.0,0.0,0.0,1.21846967915e-07,-0.4511059,0.24516625,12.95458465,9e-08,0.0,0.0,0.0,9e-08,0.0,0.0,0.0,9e-08
1538765752067890984,4008,1538765752067492392,base_link,-0.321844468767,0.112539324451,0.387995423534,-0.856277168733,1.0,0.0,0.0,0.0,1.0,0.0,0.0,0.0,1.0,-0.165344387293,-0.345317929983,-0.215982735157,1.21846967915e-07,0.0,0.0,0.0,1.21846967915e-07,0.0,0.0,0.0,1.21846967915e-07,-0.20593965,1.1375714,15.15127425,9e-08,0.0,0.0,0.0,9e-08,0.0,0.0,0.0,9e-08
1538765752488778728,4009,1538765752488423496,base_link,-0.291538908677,0.14430330153,0.457983880583,-0.827304289256,1.0,0.0,0.0,0.0,1.0,0.0,0.0,0.0,1.0,0.044332485646,-0.318721860647,-0.303736805916,1.21846967915e-07,0.0,0.0,0.0,1.21846967915e-07,0.0,0.0,0.0,1.21846967915e-07,-0.34323275,0.67665885,14.8668814,9e-08,0.0,0.0,0.0,9e-08,0.0,0.0,0.0,9e-08
1538765753019322632,4010,1538765753018819272,base_link,-0.247404357662,0.176083216139,0.522808677399,-0.796528010581,1.0,0.0,0.0,0.0,1.0,0.0,0.0,0.0,1.0,-0.451071709394,-0.288393676281,-0.137229427695,1.21846967915e-07,0.0,0.0,0.0,1.21846967915e-07,0.0,0.0,0.0,1.21846967915e-07,-0.16671305,1.28467115,11.9444997,9e-08,0.0,0.0,0.0,9e-08,0.0,0.0,0.0,9e-08
1538765753455713256,4011,1538765753455033096,base_link,-0.198800444224,0.155849734943,0.592883642579,-0.764642550383,1.0,0.0,0.0,0.0,1.0,0.0,0.0,0.0,1.0,-0.330949693918,-0.187014549971,-0.354579716921,1.21846967915e-07,0.0,0.0,0.0,1.21846967915e-07,0.0,0.0,0.0,1.21846967915e-07,-0.6080123,0.71588545,12.4348322,9e-08,0.0,0.0,0.0,9e-08,0.0,0.0,0.0,9e-08
1538765753807749256,4012,1538765753806546728,base_link,-0.149757793757,0.141466033815,0.63243866424,-0.746713666983,1.0,0.0,0.0,0.0,1.0,0.0,0.0,0.0,1.0,-0.691689550877,-0.184210643172,-0.101886361837,1.21846967915e-07,0.0,0.0,0.0,1.21846967915e-07,0.0,0.0,0.0,1.21846967915e-07,-0.3726527,0.392266,14.20983585,9e-08,0.0,0.0,0.0,9e-08,0.0,0.0,0.0,9e-08
1538765754081477224,4013,1538765754081174216,base_link,-0.108044666613,0.127474559025,0.641444870022,-0.74874900036,1.0,0.0,0.0,0.0,1.0,0.0,0.0,0.0,1.0,-0.250204890966,-0.0859027430415,-0.00333131058142,1.21846967915e-07,0.0,0.0,0.0,1.21846967915e-07,0.0,0.0,0.0,1.21846967915e-07,-0.16671305,0.40207265,13.58221025,9e-08,0.0,0.0,0.0,9e-08,0.0,0.0,0.0,9e-08
1538765754563075400,4014,1538765754562632328,base_link,-0.0487708639136,0.067496411788,0.666025561855,-0.741266206018,1.0,0.0,0.0,0.0,1.0,0.0,0.0,0.0,1.0,-0.494318604469,0.0583851672709,-0.179375320673,1.21846967915e-07,0.0,0.0,0.0,1.21846967915e-07,0.0,0.0,0.0,1.21846967915e-07,-0.44129925,0.7060788,9.62032365,9e-08,0.0,0.0,0.0,9e-08,0.0,0.0,0.0,9e-08
1538765754903570856,4015,1538765754903180232,base_link,-0.00404548755315,0.0113845792387,0.681845890004,-0.731396067579,1.0,0.0,0.0,0.0,1.0,0.0,0.0,0.0,1.0,-0.228232473135,0.0663644894958,-0.10433562845,1.21846967915e-07,0.0,0.0,0.0,1.21846967915e-07,0.0,0.0,0.0,1.21846967915e-07,-0.4707192,0.42168595,8.71811185,9e-08,0.0,0.0,0.0,9e-08,0.0,0.0,0.0,9e-08
1538765755359183464,4016,1538765755358788648,base_link,0.0225585286049,-0.0260599105788,0.685166900296,-0.727570142726,1.0,0.0,0.0,0.0,1.0,0.0,0.0,0.0,1.0,-0.183037891984,0.00831677392125,0.039200656116,1.21846967915e-07,0.0,0.0,0.0,1.21846967915e-07,0.0,0.0,0.0,1.21846967915e-07,-0.67665885,0.3334261,10.1008495,9e-08,0.0,0.0,0.0,9e-08,0.0,0.0,0.0,9e-08
1538765755790757736,4017,1538765755790238952,base_link,0.0126640257511,-0.0225052524771,0.670349785041,-0.741595780569,1.0,0.0,0.0,0.0,1.0,0.0,0.0,0.0,1.0,0.0674213841558,0.0430285185575,0.113311432302,1.21846967915e-07,0.0,0.0,0.0,1.21846967915e-07,0.0,0.0,0.0,1.21846967915e-07,-0.7256921,0.5491724,9.414384,9e-08,0.0,0.0,0.0,9e-08,0.0,0.0,0.0,9e-08
1538765756059762600,4018,1538765756059375432,base_link,0.00555598268032,-0.0262256044938,0.661386785947,-0.749565786372,1.0,0.0,0.0,0.0,1.0,0.0,0.0,0.0,1.0,0.148850083351,0.0492275953293,0.0394431911409,1.21846967915e-07,0.0,0.0,0.0,1.21846967915e-07,0.0,0.0,0.0,1.21846967915e-07,-0.7256921,0.6080123,8.1199062,9e-08,0.0,0.0,0.0,9e-08,0.0,0.0,0.0,9e-08
1538765756541646280,4019,1538765756541308776,base_link,0.00446324118124,-0.0371114018354,0.655250008162,-0.754486746163,1.0,0.0,0.0,0.0,1.0,0.0,0.0,0.0,1.0,-0.116872683167,0.0678150206804,0.000976207200438,1.21846967915e-07,0.0,0.0,0.0,1.21846967915e-07,0.0,0.0,0.0,1.21846967915e-07,-0.69627215,0.59820565,9.3947707,9e-08,0.0,0.0,0.0,9e-08,0.0,0.0,0.0,9e-08
1538765756846177064,4020,1538765756843824936,base_link,0.00360012119328,-0.0519048590733,0.657524513006,-0.751634511933,1.0,0.0,0.0,0.0,1.0,0.0,0.0,0.0,1.0,-0.0103606367484,0.11967035383,-0.0264801979065,1.21846967915e-07,0.0,0.0,0.0,1.21846967915e-07,0.0,0.0,0.0,1.21846967915e-07,-0.6276256,0.0392266,7.5707338,9e-08,0.0,0.0,0.0,9e-08,0.0,0.0,0.0,9e-08
1538765757235546120,4021,1538765757233757736,base_link,0.00272023067462,-0.0670577157527,0.645490558787,-0.760813907352,1.0,0.0,0.0,0.0,1.0,0.0,0.0,0.0,1.0,-0.0853957980871,-0.00519453408197,0.104643166065,1.21846967915e-07,0.0,0.0,0.0,1.21846967915e-07,0.0,0.0,0.0,1.21846967915e-07,-0.59820565,0.10787315,7.54131385,9e-08,0.0,0.0,0.0,9e-08,0.0,0.0,0.0,9e-08
1538765757704379080,4022,1538765757703986184,base_link,-0.00199368109102,-0.0609455558526,0.626727064282,-0.776849310583,1.0,0.0,0.0,0.0,1.0,0.0,0.0,0.0,1.0,-0.210119381547,-0.0313696786761,0.0583518370986,1.21846967915e-07,0.0,0.0,0.0,1.21846967915e-07,0.0,0.0,0.0,1.21846967915e-07,-0.38245935,0.4903325,10.87557485,9e-08,0.0,0.0,0.0,9e-08,0.0,0.0,0.0,9e-08
1538765758041310536,4023,1538765758040827944,base_link,0.000212480106357,-0.0529199047053,0.618729329703,-0.783819784838,1.0,0.0,0.0,0.0,1.0,0.0,0.0,0.0,1.0,-0.177182108164,-0.0782935321331,0.0586703158915,1.21846967915e-07,0.0,0.0,0.0,1.21846967915e-07,0.0,0.0,0.0,1.21846967915e-07,-0.30400615,0.8433719,10.73828175,9e-08,0.0,0.0,0.0,9e-08,0.0,0.0,0.0,9e-08
1538765758493445832,4024,1538765758492976840,base_link,0.0754907953307,-0.103795813225,0.597874148735,-0.79124842575,1.0,0.0,0.0,0.0,1.0,0.0,0.0,0.0,1.0,-0.445608973503,-0.0386143326759,0.10526946187,1.21846967915e-07,0.0,0.0,0.0,1.21846967915e-07,0.0,0.0,0.0,1.21846967915e-07,-0.3530394,0.36284605,9.71839015,9e-08,0.0,0.0,0.0,9e-08,0.0,0.0,0.0,9e-08
1538765758868718952,4025,1538765758868325544,base_link,0.00748077325343,-0.0480110487963,0.605649741169,-0.794246415319,1.0,0.0,0.0,0.0,1.0,0.0,0.0,0.0,1.0,1.24102473259,-0.0228204615414,-0.106989994645,1.21846967915e-07,0.0,0.0,0.0,1.21846967915e-07,0.0,0.0,0.0,1.21846967915e-07,-0.36284605,0.196133,9.83606995,9e-08,0.0,0.0,0.0,9e-08,0.0,0.0,0.0,9e-08
1538765759163705608,4026,1538765759163372264,base_link,-0.133276110274,0.0702665642981,0.604798296234,-0.781996872912,1.0,0.0,0.0,0.0,1.0,0.0,0.0,0.0,1.0,0.868920266628,-0.0838892012835,0.0365887209773,1.21846967915e-07,0.0,0.0,0.0,1.21846967915e-07,0.0,0.0,0.0,1.21846967915e-07,-0.28439285,0.5491724,13.5135637,9e-08,0.0,0.0,0.0,9e-08,0.0,0.0,0.0,9e-08
1538765759609856392,4027,1538765759609559400,base_link,-0.21566577429,0.141388898948,0.618741869671,-0.742061959522,1.0,0.0,0.0,0.0,1.0,0.0,0.0,0.0,1.0,0.294963657856,-0.0916091799736,-0.305746734142,1.21846967915e-07,0.0,0.0,0.0,1.21846967915e-07,0.0,0.0,0.0,1.21846967915e-07,-0.34323275,0.980665,8.9436648,9e-08,0.0,0.0,0.0,9e-08,0.0,0.0,0.0,9e-08
1538765759947780264,4028,1538765759946600488,base_link,-0.235360232134,0.167655935463,0.654337547896,-0.698812866115,1.0,0.0,0.0,0.0,1.0,0.0,0.0,0.0,1.0,0.254822582006,-0.191511124372,-0.247814372182,1.21846967915e-07,0.0,0.0,0.0,1.21846967915e-07,0.0,0.0,0.0,1.21846967915e-07,-0.1765197,0.42168595,10.26756255,9e-08,0.0,0.0,0.0,9e-08,0.0,0.0,0.0,9e-08
1538765760413394728,4029,1538765760413100584,base_link,0.236869239363,-0.219948042144,-0.687565718348,0.650207047911,1.0,0.0,0.0,0.0,1.0,0.0,0.0,0.0,1.0,0.051829803735,-0.25670415163,-0.178914934397,1.21846967915e-07,0.0,0.0,0.0,1.21846967915e-07,0.0,0.0,0.0,1.21846967915e-07,0.1765197,0.87279185,12.52309205,9e-08,0.0,0.0,0.0,9e-08,0.0,0.0,0.0,9e-08
1538765760799361512,4030,1538765760793391624,base_link,0.221910757585,-0.248090075019,-0.723655704198,0.604590234892,1.0,0.0,0.0,0.0,1.0,0.0,0.0,0.0,1.0,0.0930310189724,-0.283157914877,-0.266331195831,1.21846967915e-07,0.0,0.0,0.0,1.21846967915e-07,0.0,0.0,0.0,1.21846967915e-07,0.20593965,0.7649187,12.34657235,9e-08,0.0,0.0,0.0,9e-08,0.0,0.0,0.0,9e-08
1538765761194941896,4031,1538765761194537544,base_link,0.204132193994,-0.29091139866,-0.755025952787,0.551032137105,1.0,0.0,0.0,0.0,1.0,0.0,0.0,0.0,1.0,0.121488131583,-0.304973810911,-0.244894117117,1.21846967915e-07,0.0,0.0,0.0,1.21846967915e-07,0.0,0.0,0.0,1.21846967915e-07,0.2941995,1.01008495,15.19050085,9e-08,0.0,0.0,0.0,9e-08,0.0,0.0,0.0,9e-08
1538765761541344680,4032,1538765761541047432,base_link,0.180345919734,-0.317496694147,-0.786964045508,0.497351776431,1.0,0.0,0.0,0.0,1.0,0.0,0.0,0.0,1.0,0.0736491307616,-0.313521951437,-0.262727618217,1.21846967915e-07,0.0,0.0,0.0,1.21846967915e-07,0.0,0.0,0.0,1.21846967915e-07,0.6080123,0.9022118,14.34712895,9e-08,0.0,0.0,0.0,9e-08,0.0,0.0,0.0,9e-08
1538765762039333032,4033,1538765762038928616,base_link,0.1405929965,-0.339511498946,-0.826779752803,0.425911718286,1.0,0.0,0.0,0.0,1.0,0.0,0.0,0.0,1.0,-0.00546025065705,-0.307110965252,-0.262269467115,1.21846967915e-07,0.0,0.0,0.0,1.21846967915e-07,0.0,0.0,0.0,1.21846967915e-07,0.59820565,1.0787315,13.925443,9e-08,0.0,0.0,0.0,9e-08,0.0,0.0,0.0,9e-08
1538765762480874376,4034,1538765762480635944,base_link,0.10280421266,-0.35545193147,-0.859349818937,0.352991652828,1.0,0.0,0.0,0.0,1.0,0.0,0.0,0.0,1.0,0.0316754803061,-0.308706462383,-0.277653068304,1.21846967915e-07,0.0,0.0,0.0,1.21846967915e-07,0.0,0.0,0.0,1.21846967915e-07,0.8237586,0.89240515,14.0823494,9e-08,0.0,0.0,0.0,9e-08,0.0,0.0,0.0,9e-08
1538765762963501992,4035,1538765762957940584,base_link,0.061039933415,-0.369848262698,-0.887206063641,0.268982880024,1.0,0.0,0.0,0.0,1.0,0.0,0.0,0.0,1.0,-0.0396835841238,-0.294080138206,-0.297980964184,1.21846967915e-07,0.0,0.0,0.0,1.21846967915e-07,0.0,0.0,0.0,1.21846967915e-07,0.8433719,1.1571847,13.4939504,9e-08,0.0,0.0,0.0,9e-08,0.0,0.0,0.0,9e-08
1538765763354849192,4036,1538765763354502472,base_link,0.0270185169967,-0.370387988289,-0.9081864179,0.193080729779,1.0,0.0,0.0,0.0,1.0,0.0,0.0,0.0,1.0,-0.0934101566672,-0.268552601337,-0.282451659441,1.21846967915e-07,0.0,0.0,0.0,1.21846967915e-07,0.0,0.0,0.0,1.21846967915e-07,0.8629852,0.97085835,13.6508568,9e-08,0.0,0.0,0.0,9e-08,0.0,0.0,0.0,9e-08
1538765763704592168,4037,1538765763704042952,base_link,0.00105406757624,-0.361586529116,-0.923247069057,0.129880408,1.0,0.0,0.0,0.0,1.0,0.0,0.0,0.0,1.0,-0.155836924911,-0.235242396593,-0.269003123045,1.21846967915e-07,0.0,0.0,0.0,1.21846967915e-07,0.0,0.0,0.0,1.21846967915e-07,0.8433719,1.18660465,12.8859381,9e-08,0.0,0.0,0.0,9e-08,0.0,0.0,0.0,9e-08
1538765764073097128,4038,1538765764072679304,base_link,-0.0152626063558,-0.356435266143,-0.932502838052,0.056208637436,1.0,0.0,0.0,0.0,1.0,0.0,0.0,0.0,1.0,-0.0387025363743,-0.22416909039,-0.358317911625,1.21846967915e-07,0.0,0.0,0.0,1.21846967915e-07,0.0,0.0,0.0,1.21846967915e-07,0.63743225,0.9022118,11.54242705,9e-08,0.0,0.0,0.0,9e-08,0.0,0.0,0.0,9e-08
1538765764562186216,4039,1538765764561863368,base_link,-0.0415767041856,-0.362304990998,-0.930261092441,-0.0402588009885,1.0,0.0,0.0,0.0,1.0,0.0,0.0,0.0,1.0,0.0013390625827,-0.256730109453,-0.331173837185,1.21846967915e-07,0.0,0.0,0.0,1.21846967915e-07,0.0,0.0,0.0,1.21846967915e-07,0.2941995,1.01008495,11.46397385,9e-08,0.0,0.0,0.0,9e-08,0.0,0.0,0.0,9e-08
1538765765007336712,4040,1538765765006887048,base_link,-0.0687275281809,-0.368862189483,-0.91719017817,-0.134087244389,1.0,0.0,0.0,0.0,1.0,0.0,0.0,0.0,1.0,-0.0420358218253,-0.275627464056,-0.333258241415,1.21846967915e-07,0.0,0.0,0.0,1.21846967915e-07,0.0,0.0,0.0,1.21846967915e-07,0.40207265,0.95124505,12.0033396,9e-08,0.0,0.0,0.0,9e-08,0.0,0.0,0.0,9e-08
1538765765409054440,4041,1538765765407707528,base_link,-0.086805553469,-0.364790387712,-0.900611342266,-0.219754360826,1.0,0.0,0.0,0.0,1.0,0.0,0.0,0.0,1.0,-0.0668108537793,-0.262336999178,-0.321211993694,1.21846967915e-07,0.0,0.0,0.0,1.21846967915e-07,0.0,0.0,0.0,1.21846967915e-07,0.46091255,0.8629852,12.79767825,9e-08,0.0,0.0,0.0,9e-08,0.0,0.0,0.0,9e-08
1538765765845109928,4042,1538765765844628904,base_link,-0.112484742239,-0.348950699038,-0.879329669827,-0.303907756014,1.0,0.0,0.0,0.0,1.0,0.0,0.0,0.0,1.0,-0.061279527843,-0.231467649341,-0.291301369667,1.21846967915e-07,0.0,0.0,0.0,1.21846967915e-07,0.0,0.0,0.0,1.21846967915e-07,0.24516625,1.2160246,11.5326204,9e-08,0.0,0.0,0.0,9e-08,0.0,0.0,0.0,9e-08
1538765766218853000,4043,1538765766218448072,base_link,-0.130034616651,-0.353261499808,-0.845605458894,-0.378482125225,1.0,0.0,0.0,0.0,1.0,0.0,0.0,0.0,1.0,0.0887073352933,-0.277716398239,-0.396418422461,1.21846967915e-07,0.0,0.0,0.0,1.21846967915e-07,0.0,0.0,0.0,1.21846967915e-07,0.14709975,0.79433865,9.8851032,9e-08,0.0,0.0,0.0,9e-08,0.0,0.0,0.0,9e-08
1538765766594811656,4044,1538765766594361800,base_link,-0.170034184407,-0.361479216236,-0.797051822704,-0.452912292046,1.0,0.0,0.0,0.0,1.0,0.0,0.0,0.0,1.0,-0.0164485890418,-0.36360040307,-0.296735286713,1.21846967915e-07,0.0,0.0,0.0,1.21846967915e-07,0.0,0.0,0.0,1.21846967915e-07,0.196133,1.08853815,12.38579895,9e-08,0.0,0.0,0.0,9e-08,0.0,0.0,0.0,9e-08
1538765767038629416,4045,1538765767038155336,base_link,-0.211846517833,-0.336159081828,-0.741092689895,-0.541202133746,1.0,0.0,0.0,0.0,1.0,0.0,0.0,0.0,1.0,-0.0624155476689,-0.364833027124,-0.36012879014,1.21846967915e-07,0.0,0.0,0.0,1.21846967915e-07,0.0,0.0,0.0,1.21846967915e-07,0.73549875,1.04931155,14.32751565,9e-08,0.0,0.0,0.0,9e-08,0.0,0.0,0.0,9e-08
1538765767327432264,4046,1538765767326299496,base_link,-0.230034075816,-0.318225133162,-0.701206728411,-0.595085046543,1.0,0.0,0.0,0.0,1.0,0.0,0.0,0.0,1.0,-0.0353958681226,-0.362312138081,-0.36641305685,1.21846967915e-07,0.0,0.0,0.0,1.21846967915e-07,0.0,0.0,0.0,1.21846967915e-07,0.44129925,0.9610517,11.8660465,9e-08,0.0,0.0,0.0,9e-08,0.0,0.0,0.0,9e-08
1538765767679724520,4047,1538765767679399112,base_link,-0.251906086794,-0.278545141752,-0.647951950923,-0.66265692235,1.0,0.0,0.0,0.0,1.0,0.0,0.0,0.0,1.0,-0.201529756188,-0.433347046375,-0.248062223196,1.21846967915e-07,0.0,0.0,0.0,1.21846967915e-07,0.0,0.0,0.0,1.21846967915e-07,0.57859235,0.4314926,14.22944915,9e-08,0.0,0.0,0.0,9e-08,0.0,0.0,0.0,9e-08
1538765768148975944,4048,1538765768148559048,base_link,-0.238759052902,-0.176083060075,-0.602573061919,-0.74087419692,1.0,0.0,0.0,0.0,1.0,0.0,0.0,0.0,1.0,-0.537728905678,-0.270018339157,-0.253226220608,1.21846967915e-07,0.0,0.0,0.0,1.21846967915e-07,0.0,0.0,0.0,1.21846967915e-07,0.4707192,1.22583125,14.8276548,9e-08,0.0,0.0,0.0,9e-08,0.0,0.0,0.0,9e-08
1538765768608443784,4049,1538765768607985768,base_link,-0.143061734685,-0.0738040196775,-0.560765105101,-0.812175352771,1.0,0.0,0.0,0.0,1.0,0.0,0.0,0.0,1.0,-0.639044046402,-0.11682074517,-0.253013312817,1.21846967915e-07,0.0,0.0,0.0,1.21846967915e-07,0.0,0.0,0.0,1.21846967915e-07,0.06864655,0.57859235,12.6898051,9e-08,0.0,0.0,0.0,9e-08,0.0,0.0,0.0,9e-08
1538765768990322120,4050,1538765768990003208,base_link,-0.0796109437836,-0.0174556828422,-0.542689069298,-0.835970077713,1.0,0.0,0.0,0.0,1.0,0.0,0.0,0.0,1.0,-0.429974019527,-0.0592645928264,-0.0448260270059,1.21846967915e-07,0.0,0.0,0.0,1.21846967915e-07,0.0,0.0,0.0,1.21846967915e-07,-0.02941995,0.588399,10.983448,9e-08,0.0,0.0,0.0,9e-08,0.0,0.0,0.0,9e-08
1538765769345116328,4051,1538765769344766504,base_link,0.0709696979673,0.0809997282295,-0.541662502255,-0.833669046833,1.0,0.0,0.0,0.0,1.0,0.0,0.0,0.0,1.0,-1.11784338951,0.0427641570568,0.0209764968604,1.21846967915e-07,0.0,0.0,0.0,1.21846967915e-07,0.0,0.0,0.0,1.21846967915e-07,0.00980665,0.9414384,11.2972608,9e-08,0.0,0.0,0.0,9e-08,0.0,0.0,0.0,9e-08
1538765769846047304,4052,1538765769845833384,base_link,0.224710055974,0.171898327767,-0.536514089784,-0.795052820332,1.0,0.0,0.0,0.0,1.0,0.0,0.0,0.0,1.0,-0.45871463418,-0.0385505370796,0.229871913791,1.21846967915e-07,0.0,0.0,0.0,1.21846967915e-07,0.0,0.0,0.0,1.21846967915e-07,-0.10787315,-0.1569064,9.03192465,9e-08,0.0,0.0,0.0,9e-08,0.0,0.0,0.0,9e-08
1538765770150350536,4053,1538765770150091976,base_link,0.267313587794,0.202751606715,-0.569819944991,-0.750160290902,1.0,0.0,0.0,0.0,1.0,0.0,0.0,0.0,1.0,-0.315833419561,-0.155484557152,0.385955482721,1.21846967915e-07,0.0,0.0,0.0,1.21846967915e-07,0.0,0.0,0.0,1.21846967915e-07,0.00980665,-0.1176798,9.1201845,9e-08,0.0,0.0,0.0,9e-08,0.0,0.0,0.0,9e-08
1538765770593137704,4054,1538765770592923112,base_link,0.291311852624,0.243015709879,-0.642039210062,-0.666233008801,1.0,0.0,0.0,0.0,1.0,0.0,0.0,0.0,1.0,-0.123117677867,-0.294939398766,0.435391634703,1.21846967915e-07,0.0,0.0,0.0,1.21846967915e-07,0.0,0.0,0.0,1.21846967915e-07,0.20593965,-0.04903325,11.22861425,9e-08,0.0,0.0,0.0,9e-08,0.0,0.0,0.0,9e-08
1538765770977967048,4055,1538765770977748232,base_link,0.278819504654,0.279304981054,-0.70952797921,-0.583796589662,1.0,0.0,0.0,0.0,1.0,0.0,0.0,0.0,1.0,-0.0612577311695,-0.408769577742,0.383574187756,1.21846967915e-07,0.0,0.0,0.0,1.21846967915e-07,0.0,0.0,0.0,1.21846967915e-07,0.46091255,0.20593965,12.4544455,9e-08,0.0,0.0,0.0,9e-08,0.0,0.0,0.0,9e-08
1538765771308445064,4056,1538765771308101064,base_link,0.245451968918,0.304542227654,-0.767643376747,-0.507672146829,1.0,0.0,0.0,0.0,1.0,0.0,0.0,0.0,1.0,0.0236939806491,-0.402798652649,0.435882657766,1.21846967915e-07,0.0,0.0,0.0,1.21846967915e-07,0.0,0.0,0.0,1.21846967915e-07,0.50013915,-0.28439285,12.8074849,9e-08,0.0,0.0,0.0,9e-08,0.0,0.0,0.0,9e-08
1538765771610768936,4057,1538765771610408168,base_link,0.225187581222,0.348745118004,-0.809856993598,-0.414486484524,1.0,0.0,0.0,0.0,1.0,0.0,0.0,0.0,1.0,-0.18454092741,-0.546656847,0.474585711956,1.21846967915e-07,0.0,0.0,0.0,1.21846967915e-07,0.0,0.0,0.0,1.21846967915e-07,1.01008495,-0.196133,16.66149835,9e-08,0.0,0.0,0.0,9e-08,0.0,0.0,0.0,9e-08
1538765771895110024,4058,1538765771894888008,base_link,0.191050555191,0.374191344759,-0.848814304899,-0.320928027238,1.0,0.0,0.0,0.0,1.0,0.0,0.0,0.0,1.0,-0.107187896967,-0.54964017868,0.4782345891,1.21846967915e-07,0.0,0.0,0.0,1.21846967915e-07,0.0,0.0,0.0,1.21846967915e-07,1.0395049,0.38245935,15.32779395,9e-08,0.0,0.0,0.0,9e-08,0.0,0.0,0.0,9e-08
1538765772361971624,4059,1538765772361731784,base_link,0.109840316937,0.382001945482,-0.89702995881,-0.193253386571,1.0,0.0,0.0,0.0,1.0,0.0,0.0,0.0,1.0,0.072210252285,-0.521371126175,0.356821388006,1.21846967915e-07,0.0,0.0,0.0,1.21846967915e-07,0.0,0.0,0.0,1.21846967915e-07,1.0787315,-0.0980665,14.7688149,9e-08,0.0,0.0,0.0,9e-08,0.0,0.0,0.0,9e-08
1538765772689193672,4060,1538765772688686280,base_link,0.0520437191284,0.391696455978,-0.915127574574,-0.0800428630621,1.0,0.0,0.0,0.0,1.0,0.0,0.0,0.0,1.0,0.0255638230592,-0.538652837276,0.501890301704,1.21846967915e-07,0.0,0.0,0.0,1.21846967915e-07,0.0,0.0,0.0,1.21846967915e-07,1.176798,0.1569064,17.7304232,9e-08,0.0,0.0,0.0,9e-08,0.0,0.0,0.0,9e-08
1538765773047700424,4061,1538765773047401064,base_link,-0.00846706752819,0.402298156612,-0.914597277528,0.0399539972035,1.0,0.0,0.0,0.0,1.0,0.0,0.0,0.0,1.0,-0.0700469389558,-0.551111936569,0.408822536469,1.21846967915e-07,0.0,0.0,0.0,1.21846967915e-07,0.0,0.0,0.0,1.21846967915e-07,1.14737805,0.12748645,16.6909183,9e-08,0.0,0.0,0.0,9e-08,0.0,0.0,0.0,9e-08
1538765773552363656,4062,1538765773551595144,base_link,-0.0994386353303,0.416577668814,-0.882045044485,0.196396392912,1.0,0.0,0.0,0.0,1.0,0.0,0.0,0.0,1.0,-0.147281825542,-0.530707120895,0.366399228573,1.21846967915e-07,0.0,0.0,0.0,1.21846967915e-07,0.0,0.0,0.0,1.21846967915e-07,1.75539035,0.5491724,17.455837,9e-08,0.0,0.0,0.0,9e-08,0.0,0.0,0.0,9e-08
1538765773874610472,4063,1538765773874347592,base_link,-0.150852239498,0.415806728715,-0.84892543674,0.289264531269,1.0,0.0,0.0,0.0,1.0,0.0,0.0,0.0,1.0,0.0249231234193,-0.535950779915,0.376280456781,1.21846967915e-07,0.0,0.0,0.0,1.21846967915e-07,0.0,0.0,0.0,1.21846967915e-07,1.8828768,0.2941995,16.85763135,9e-08,0.0,0.0,0.0,9e-08,0.0,0.0,0.0,9e-08
1538765774298328456,4064,1538765774297268392,base_link,-0.20465426036,0.36784537062,-0.806264614315,0.415624576671,1.0,0.0,0.0,0.0,1.0,0.0,0.0,0.0,1.0,0.422711640596,-0.542741477489,0.457929223776,1.21846967915e-07,0.0,0.0,0.0,1.21846967915e-07,0.0,0.0,0.0,1.21846967915e-07,1.85345685,0.10787315,17.0439577,9e-08,0.0,0.0,0.0,9e-08,0.0,0.0,0.0,9e-08
1538765774743958600,4065,1538765774743764296,base_link,-0.207146150274,0.232939130804,-0.7728184884,0.552794191136,1.0,0.0,0.0,0.0,1.0,0.0,0.0,0.0,1.0,0.690922617912,-0.444187045097,0.247082144022,1.21846967915e-07,0.0,0.0,0.0,1.21846967915e-07,0.0,0.0,0.0,1.21846967915e-07,1.0787315,1.0198916,17.1812508,9e-08,0.0,0.0,0.0,9e-08,0.0,0.0,0.0,9e-08
1538765775029347816,4066,1538765775028898216,base_link,-0.165629025015,0.105894902222,-0.770657106168,0.606169052714,1.0,0.0,0.0,0.0,1.0,0.0,0.0,0.0,1.0,1.03308176994,-0.285630106926,0.15838713944,1.21846967915e-07,0.0,0.0,0.0,1.21846967915e-07,0.0,0.0,0.0,1.21846967915e-07,0.46091255,0.44129925,15.8083198,9e-08,0.0,0.0,0.0,9e-08,0.0,0.0,0.0,9e-08
1538765775468560968,4067,1538765775466076104,base_link,-0.0544614942468,-0.0822492010005,-0.758380864185,0.644303871955,1.0,0.0,0.0,0.0,1.0,0.0,0.0,0.0,1.0,0.91180485487,-0.0771548822522,-0.0302108190954,1.21846967915e-07,0.0,0.0,0.0,1.21846967915e-07,0.0,0.0,0.0,1.21846967915e-07,-0.0784532,0.5295591,10.9246081,9e-08,0.0,0.0,0.0,9e-08,0.0,0.0,0.0,9e-08
1538765775917660904,4068,1538765775917426888,base_link,0.0388082450072,-0.197698879135,-0.74358592202,0.637564937776,1.0,0.0,0.0,0.0,1.0,0.0,0.0,0.0,1.0,0.328887730837,0.00080823758617,-0.0822050496936,1.21846967915e-07,0.0,0.0,0.0,1.21846967915e-07,0.0,0.0,0.0,1.21846967915e-07,-0.22555295,0.9610517,10.7677017,9e-08,0.0,0.0,0.0,9e-08,0.0,0.0,0.0,9e-08
1538765776306538216,4069,1538765776306259176,base_link,0.0822251798357,-0.22737596242,-0.75711046326,0.606896150867,1.0,0.0,0.0,0.0,1.0,0.0,0.0,0.0,1.0,0.123922616243,0.045380115509,-0.271766334772,1.21846967915e-07,0.0,0.0,0.0,1.21846967915e-07,0.0,0.0,0.0,1.21846967915e-07,-0.36284605,0.65704555,6.73716855,9e-08,0.0,0.0,0.0,9e-08,0.0,0.0,0.0,9e-08
1538765776752028584,4070,1538765776751824712,base_link,0.133292451911,-0.258482646107,-0.780820053007,0.552937508899,1.0,0.0,0.0,0.0,1.0,0.0,0.0,0.0,1.0,0.275037705898,0.0186091642827,-0.247743889689,1.21846967915e-07,0.0,0.0,0.0,1.21846967915e-07,0.0,0.0,0.0,1.21846967915e-07,-0.36284605,0.63743225,7.453054,9e-08,0.0,0.0,0.0,9e-08,0.0,0.0,0.0,9e-08
1538765777206207880,4071,1538765777199780072,base_link,0.15724568175,-0.283539398902,-0.797539560546,0.508733578807,1.0,0.0,0.0,0.0,1.0,0.0,0.0,0.0,1.0,-0.239237084985,-0.0604124739766,-0.165922552347,1.21846967915e-07,0.0,0.0,0.0,1.21846967915e-07,0.0,0.0,0.0,1.21846967915e-07,-0.24516625,0.6668522,8.629852,9e-08,0.0,0.0,0.0,9e-08,0.0,0.0,0.0,9e-08
1538765777505269288,4072,1538765777504564552,base_link,0.144779700535,-0.252924436162,-0.82607119197,0.482363404191,1.0,0.0,0.0,0.0,1.0,0.0,0.0,0.0,1.0,-0.382870405912,-0.0492826364934,-0.280974388123,1.21846967915e-07,0.0,0.0,0.0,1.21846967915e-07,0.0,0.0,0.0,1.21846967915e-07,-0.12748645,1.01008495,8.97308475,9e-08,0.0,0.0,0.0,9e-08,0.0,0.0,0.0,9e-08
1538765777878632904,4073,1538765777878279560,base_link,0.115479379532,-0.188001815393,-0.864787694123,0.451067704902,1.0,0.0,0.0,0.0,1.0,0.0,0.0,0.0,1.0,-0.398481488228,-0.0308810863644,-0.206242948771,1.21846967915e-07,0.0,0.0,0.0,1.21846967915e-07,0.0,0.0,0.0,1.21846967915e-07,-0.18632635,0.59820565,9.7674234,9e-08,0.0,0.0,0.0,9e-08,0.0,0.0,0.0,9e-08
1538765778323100424,4074,1538765778322529704,base_link,0.0880622600108,-0.143256976059,-0.888623682026,0.426697116131,1.0,0.0,0.0,0.0,1.0,0.0,0.0,0.0,1.0,-0.135468691587,-0.0726893618703,-0.0745276361704,1.21846967915e-07,0.0,0.0,0.0,1.21846967915e-07,0.0,0.0,0.0,1.21846967915e-07,-0.16671305,0.51975245,10.7677017,9e-08,0.0,0.0,0.0,9e-08,0.0,0.0,0.0,9e-08
1538765778626329512,4075,1538765778625997256,base_link,0.0641412782694,-0.115957313534,-0.898332260999,0.418854326357,1.0,0.0,0.0,0.0,1.0,0.0,0.0,0.0,1.0,-0.278251886368,-0.055441070348,-0.0523450896144,1.21846967915e-07,0.0,0.0,0.0,1.21846967915e-07,0.0,0.0,0.0,1.21846967915e-07,0.08825985,0.5099458,12.11121275,9e-08,0.0,0.0,0.0,9e-08,0.0,0.0,0.0,9e-08
1538765778902195944,4076,1538765778901951880,base_link,0.0453483195263,-0.0924956764887,-0.90520551389,0.412299717888,1.0,0.0,0.0,0.0,1.0,0.0,0.0,0.0,1.0,-0.192620933056,-0.0721965283155,-0.0701394304633,1.21846967915e-07,0.0,0.0,0.0,1.21846967915e-07,0.0,0.0,0.0,1.21846967915e-07,0.02941995,0.59820565,11.20900095,9e-08,0.0,0.0,0.0,9e-08,0.0,0.0,0.0,9e-08
1538765779248178056,4077,1538765779246120392,base_link,0.0304754761214,-0.0837434498837,-0.912098004095,0.400169352752,1.0,0.0,0.0,0.0,1.0,0.0,0.0,0.0,1.0,0.0869290158153,-0.0709193497896,-0.0776357725263,1.21846967915e-07,0.0,0.0,0.0,1.21846967915e-07,0.0,0.0,0.0,1.21846967915e-07,0.0,0.5295591,11.6306869,9e-08,0.0,0.0,0.0,9e-08,0.0,0.0,0.0,9e-08
1538765779562157416,4078,1538765779561786376,base_link,0.0240862538427,-0.0912677463872,-0.913692711569,0.395291891734,1.0,0.0,0.0,0.0,1.0,0.0,0.0,0.0,1.0,-0.0388954654336,-0.0518184676766,0.0194694884121,1.21846967915e-07,0.0,0.0,0.0,1.21846967915e-07,0.0,0.0,0.0,1.21846967915e-07,0.16671305,0.42168595,11.95430635,9e-08,0.0,0.0,0.0,9e-08,0.0,0.0,0.0,9e-08
1538765779933372392,4079,1538765779925537128,base_link,0.00720374791385,-0.0601675261596,-0.915336795225,0.398103662529,1.0,0.0,0.0,0.0,1.0,0.0,0.0,0.0,1.0,-0.1882455796,0.000188587233424,-0.0169905312359,1.21846967915e-07,0.0,0.0,0.0,1.21846967915e-07,0.0,0.0,0.0,1.21846967915e-07,0.04903325,0.79433865,10.0812362,9e-08,0.0,0.0,0.0,9e-08,0.0,0.0,0.0,9e-08
1538765780401775048,4080,1538765780401506664,base_link,0.00305741910407,-0.0326221041281,-0.92051797378,0.389323914572,1.0,0.0,0.0,0.0,1.0,0.0,0.0,0.0,1.0,-0.077334843576,0.0380831919611,-0.021152028814,1.21846967915e-07,0.0,0.0,0.0,1.21846967915e-07,0.0,0.0,0.0,1.21846967915e-07,0.0784532,0.48052585,9.4732239,9e-08,0.0,0.0,0.0,9e-08,0.0,0.0,0.0,9e-08
1538765780910798696,4081,1538765780910537000,base_link,0.00775130859209,-0.0218282827828,-0.920094115084,0.391011844671,1.0,0.0,0.0,0.0,1.0,0.0,0.0,0.0,1.0,0.0440096184611,0.0352779626846,0.0207338295877,1.21846967915e-07,0.0,0.0,0.0,1.21846967915e-07,0.0,0.0,0.0,1.21846967915e-07,0.2353596,0.59820565,10.2381426,9e-08,0.0,0.0,0.0,9e-08,0.0,0.0,0.0,9e-08
1538765781362566792,4082,1538765781357787720,base_link,0.0208874546583,-0.0343465491022,-0.921057872179,0.387345356109,1.0,0.0,0.0,0.0,1.0,0.0,0.0,0.0,1.0,0.146943718195,0.0257483124733,-0.0423865988851,1.21846967915e-07,0.0,0.0,0.0,1.21846967915e-07,0.0,0.0,0.0,1.21846967915e-07,0.1569064,0.4707192,9.48303055,9e-08,0.0,0.0,0.0,9e-08,0.0,0.0,0.0,9e-08
1538765781678928072,4083,1538765781678602088,base_link,0.0238629554745,-0.0402358925112,-0.92218987071,0.383897739861,1.0,0.0,0.0,0.0,1.0,0.0,0.0,0.0,1.0,0.0333028621972,-0.0136071685702,-0.0101734185591,1.21846967915e-07,0.0,0.0,0.0,1.21846967915e-07,0.0,0.0,0.0,1.21846967915e-07,0.2941995,0.65704555,10.591182,9e-08,0.0,0.0,0.0,9e-08,0.0,0.0,0.0,9e-08
1538765782182054248,4084,1538765782181800328,base_link,0.0222387623282,-0.0456324939554,-0.924148232047,0.37864648176,1.0,0.0,0.0,0.0,1.0,0.0,0.0,0.0,1.0,0.0884033888578,-0.00461045093834,-0.0199018679559,1.21846967915e-07,0.0,0.0,0.0,1.21846967915e-07,0.0,0.0,0.0,1.21846967915e-07,0.3334261,0.6864655,11.50320045,9e-08,0.0,0.0,0.0,9e-08,0.0,0.0,0.0,9e-08
1538765782453912136,4085,1538765782453373288,base_link,0.0178150679477,-0.0388141281588,-0.927626904111,0.371058504254,1.0,0.0,0.0,0.0,1.0,0.0,0.0,0.0,1.0,-0.201206371188,-0.0217384956777,-0.0597695037723,1.21846967915e-07,0.0,0.0,0.0,1.21846967915e-07,0.0,0.0,0.0,1.21846967915e-07,0.2941995,0.65704555,10.7677017,9e-08,0.0,0.0,0.0,9e-08,0.0,0.0,0.0,9e-08
1538765782912379112,4086,1538765782912088904,base_link,0.0347773385711,-0.0899307390751,-0.927044252649,0.36234231401,1.0,0.0,0.0,0.0,1.0,0.0,0.0,0.0,1.0,0.418580055237,0.0174779370427,0.0132118798792,1.21846967915e-07,0.0,0.0,0.0,1.21846967915e-07,0.0,0.0,0.0,1.21846967915e-07,0.36284605,0.97085835,11.1403544,9e-08,0.0,0.0,0.0,9e-08,0.0,0.0,0.0,9e-08
1538765783338317352,4087,1538765783338007368,base_link,0.034903555302,-0.0938094392026,-0.927737227959,0.359562465786,1.0,0.0,0.0,0.0,1.0,0.0,0.0,0.0,1.0,-0.0438928157091,0.00798940379173,0.0158888362348,1.21846967915e-07,0.0,0.0,0.0,1.21846967915e-07,0.0,0.0,0.0,1.21846967915e-07,0.14709975,0.46091255,9.73800345,9e-08,0.0,0.0,0.0,9e-08,0.0,0.0,0.0,9e-08
1538765783648563304,4088,1538765783647543464,base_link,0.0376303535937,-0.0968998945867,-0.929124842823,0.35485404516,1.0,0.0,0.0,0.0,1.0,0.0,0.0,0.0,1.0,-0.00871243141592,0.0129904169589,-0.0609561353922,1.21846967915e-07,0.0,0.0,0.0,1.21846967915e-07,0.0,0.0,0.0,1.21846967915e-07,0.18632635,0.55897905,11.13054775,9e-08,0.0,0.0,0.0,9e-08,0.0,0.0,0.0,9e-08
1538765784055591592,4089,1538765784055209896,base_link,0.0399382314671,-0.097108864473,-0.930333452989,0.351360886209,1.0,0.0,0.0,0.0,1.0,0.0,0.0,0.0,1.0,-0.108393408358,0.0385804660618,0.0200286675245,1.21846967915e-07,0.0,0.0,0.0,1.21846967915e-07,0.0,0.0,0.0,1.21846967915e-07,0.16671305,0.6276256,10.71866845,9e-08,0.0,0.0,0.0,9e-08,0.0,0.0,0.0,9e-08
1538765784515092616,4090,1538765784514802664,base_link,0.0391385445645,-0.0630436907696,-0.931624748604,0.355765365335,1.0,0.0,0.0,0.0,1.0,0.0,0.0,0.0,1.0,-0.0832181200385,0.0435170717537,0.0492568835616,1.21846967915e-07,0.0,0.0,0.0,1.21846967915e-07,0.0,0.0,0.0,1.21846967915e-07,-0.08825985,0.42168595,9.7674234,9e-08,0.0,0.0,0.0,9e-08,0.0,0.0,0.0,9e-08
1538765784883549352,4091,1538765784883233928,base_link,0.0421969411511,-0.0295149799398,-0.93083428083,0.361795281545,1.0,0.0,0.0,0.0,1.0,0.0,0.0,0.0,1.0,-0.229238167405,0.100456468761,0.0204282645136,1.21846967915e-07,0.0,0.0,0.0,1.21846967915e-07,0.0,0.0,0.0,1.21846967915e-07,-0.24516625,0.36284605,7.060788,9e-08,0.0,0.0,0.0,9e-08,0.0,0.0,0.0,9e-08
1538765785197268008,4092,1538765785197024008,base_link,0.0504614087847,-0.0115346589979,-0.931225663601,0.360748335153,1.0,0.0,0.0,0.0,1.0,0.0,0.0,0.0,1.0,-0.0327017270029,0.0895403921604,-0.0423451662064,1.21846967915e-07,0.0,0.0,0.0,1.21846967915e-07,0.0,0.0,0.0,1.21846967915e-07,-0.38245935,0.50013915,9.1594111,9e-08,0.0,0.0,0.0,9e-08,0.0,0.0,0.0,9e-08
1538765785699633608,4093,1538765785699114472,base_link,0.0657434585349,-0.0172785314212,-0.932899086896,0.353664450687,1.0,0.0,0.0,0.0,1.0,0.0,0.0,0.0,1.0,0.131616219878,-0.0125091858208,0.00211380282417,1.21846967915e-07,0.0,0.0,0.0,1.21846967915e-07,0.0,0.0,0.0,1.21846967915e-07,-0.38245935,0.196133,9.9439431,9e-08,0.0,0.0,0.0,9e-08,0.0,0.0,0.0,9e-08
1538765786118571400,4094,1538765786116850216,base_link,0.065725776747,-0.0166544049778,-0.92843689028,0.365250179784,1.0,0.0,0.0,0.0,1.0,0.0,0.0,0.0,1.0,-0.0373107157648,0.00422048848122,0.0618463605642,1.21846967915e-07,0.0,0.0,0.0,1.21846967915e-07,0.0,0.0,0.0,1.21846967915e-07,-0.6472389,0.73549875,7.5707338,9e-08,0.0,0.0,0.0,9e-08,0.0,0.0,0.0,9e-08
1538765786643038344,4095,1538765786642247112,base_link,0.0603880625957,-0.0117065381388,-0.935964867002,0.346678534955,1.0,0.0,0.0,0.0,1.0,0.0,0.0,0.0,1.0,0.0348649583757,-0.0622974224389,-0.064283721149,1.21846967915e-07,0.0,0.0,0.0,1.21846967915e-07,0.0,0.0,0.0,1.21846967915e-07,-0.42168595,0.22555295,9.6889702,9e-08,0.0,0.0,0.0,9e-08,0.0,0.0,0.0,9e-08
1538765787019699496,4096,1538765787019392648,base_link,0.0501135651177,-0.0395981457946,-0.932618503193,0.355166643906,1.0,0.0,0.0,0.0,1.0,0.0,0.0,0.0,1.0,-0.0908218845725,-0.0968075171113,0.100653454661,1.21846967915e-07,0.0,0.0,0.0,1.21846967915e-07,0.0,0.0,0.0,1.21846967915e-07,-0.04903325,0.7060788,13.44491715,9e-08,0.0,0.0,0.0,9e-08,0.0,0.0,0.0,9e-08
1538765787528288776,4097,1538765787528008552,base_link,0.0232344301492,-0.0148900068357,-0.934026909524,0.356135060387,1.0,0.0,0.0,0.0,1.0,0.0,0.0,0.0,1.0,-0.00780803756788,-0.0560850575566,-0.0274332035333,1.21846967915e-07,0.0,0.0,0.0,1.21846967915e-07,0.0,0.0,0.0,1.21846967915e-07,-0.3138128,0.30400615,9.6889702,9e-08,0.0,0.0,0.0,9e-08,0.0,0.0,0.0,9e-08
1538765787926979784,4098,1538765787926653160,base_link,0.0157198109134,-0.0434694992998,-0.932908200567,0.357135239777,1.0,0.0,0.0,0.0,1.0,0.0,0.0,0.0,1.0,0.0922216102481,-0.0814992412925,0.032554499805,1.21846967915e-07,0.0,0.0,0.0,1.21846967915e-07,0.0,0.0,0.0,1.21846967915e-07,-0.1569064,0.73549875,12.5132854,9e-08,0.0,0.0,0.0,9e-08,0.0,0.0,0.0,9e-08
1538765788334596744,4099,1538765788334376488,base_link,0.00959562868855,-0.0571222360522,-0.934118628955,0.352231970578,1.0,0.0,0.0,0.0,1.0,0.0,0.0,0.0,1.0,0.0554225556552,-0.0407426171005,-0.013649282977,1.21846967915e-07,0.0,0.0,0.0,1.21846967915e-07,0.0,0.0,0.0,1.21846967915e-07,-0.0392266,0.40207265,11.8660465,9e-08,0.0,0.0,0.0,9e-08,0.0,0.0,0.0,9e-08
1538765788767505480,4100,1538765788757061608,base_link,0.00425970011654,-0.0509975813601,-0.933280596449,0.355483375056,1.0,0.0,0.0,0.0,1.0,0.0,0.0,0.0,1.0,-0.0183812193573,0.0243644490838,-0.0111591489986,1.21846967915e-07,0.0,0.0,0.0,1.21846967915e-07,0.0,0.0,0.0,1.21846967915e-07,-0.10787315,0.7060788,9.14960445,9e-08,0.0,0.0,0.0,9e-08,0.0,0.0,0.0,9e-08
1538765789121303368,4101,1538765789121035176,base_link,0.00654367905962,-0.0492401251363,-0.937044835497,0.345658164389,1.0,0.0,0.0,0.0,1.0,0.0,0.0,0.0,1.0,0.0496122166514,-0.00644559506327,-0.0653418675065,1.21846967915e-07,0.0,0.0,0.0,1.21846967915e-07,0.0,0.0,0.0,1.21846967915e-07,-0.0588399,0.61781895,10.2577559,9e-08,0.0,0.0,0.0,9e-08,0.0,0.0,0.0,9e-08
1538765789564418440,4102,1538765789563960840,base_link,0.00672098832168,-0.0472937118701,-0.939906661173,0.338073366913,1.0,0.0,0.0,0.0,1.0,0.0,0.0,0.0,1.0,0.00554931350052,-0.00406545121223,-0.00610791239887,1.21846967915e-07,0.0,0.0,0.0,1.21846967915e-07,0.0,0.0,0.0,1.21846967915e-07,-0.0980665,0.4707192,10.7088618,9e-08,0.0,0.0,0.0,9e-08,0.0,0.0,0.0,9e-08
1538765789849796776,4103,1538765789849467784,base_link,0.00441659518538,-0.0421659577793,-0.940055382275,0.338376127922,1.0,0.0,0.0,0.0,1.0,0.0,0.0,0.0,1.0,-0.0936065018177,-0.0510606020689,0.0197659377009,1.21846967915e-07,0.0,0.0,0.0,1.21846967915e-07,0.0,0.0,0.0,1.21846967915e-07,-0.0980665,0.5687857,10.3754357,9e-08,0.0,0.0,0.0,9e-08,0.0,0.0,0.0,9e-08
1538765790242058760,4104,1538765790240791880,base_link,0.00209736633018,-0.0385055450435,-0.939268156254,0.341010637228,1.0,0.0,0.0,0.0,1.0,0.0,0.0,0.0,1.0,-0.0785618424416,-0.00755627406761,0.0086653996259,1.21846967915e-07,0.0,0.0,0.0,1.21846967915e-07,0.0,0.0,0.0,1.21846967915e-07,-0.2157463,0.40207265,9.1005712,9e-08,0.0,0.0,0.0,9e-08,0.0,0.0,0.0,9e-08
1538765790569295336,4105,1538765790569088072,base_link,-0.00233092653834,-0.031393248195,-0.938381042481,0.344165730224,1.0,0.0,0.0,0.0,1.0,0.0,0.0,0.0,1.0,-0.147518217564,-0.0180392190814,0.0510166957974,1.21846967915e-07,0.0,0.0,0.0,1.21846967915e-07,0.0,0.0,0.0,1.21846967915e-07,-0.02941995,0.28439285,9.46341725,9e-08,0.0,0.0,0.0,9e-08,0.0,0.0,0.0,9e-08
1538765790899048328,4106,1538765790894684296,base_link,-0.00919506070119,-0.0139782184225,-0.936398717672,0.350538873465,1.0,0.0,0.0,0.0,1.0,0.0,0.0,0.0,1.0,0.0832491964102,0.0166115388274,0.0117839965969,1.21846967915e-07,0.0,0.0,0.0,1.21846967915e-07,0.0,0.0,0.0,1.21846967915e-07,-0.04903325,0.34323275,9.81645665,9e-08,0.0,0.0,0.0,9e-08,0.0,0.0,0.0,9e-08
1538765791310022088,4107,1538765791308419464,base_link,0.00946098589869,-0.0524240193024,-0.93560905368,0.348995573924,1.0,0.0,0.0,0.0,1.0,0.0,0.0,0.0,1.0,0.244101643562,0.0140975778922,-0.0264799278229,1.21846967915e-07,0.0,0.0,0.0,1.21846967915e-07,0.0,0.0,0.0,1.21846967915e-07,0.02941995,0.44129925,9.1397978,9e-08,0.0,0.0,0.0,9e-08,0.0,0.0,0.0,9e-08
1538765791801125512,4108,1538765791800785672,base_link,0.0308417314452,-0.105738244204,-0.935395451357,0.336011251144,1.0,0.0,0.0,0.0,1.0,0.0,0.0,0.0,1.0,0.405062317848,-0.0189378261566,-0.0912781134248,1.21846967915e-07,0.0,0.0,0.0,1.21846967915e-07,0.0,0.0,0.0,1.21846967915e-07,0.0,0.40207265,9.8262633,9e-08,0.0,0.0,0.0,9e-08,0.0,0.0,0.0,9e-08
1538765792106216232,4109,1538765792105902920,base_link,0.0382500571277,-0.154329149423,-0.933228430599,0.32218650358,1.0,0.0,0.0,0.0,1.0,0.0,0.0,0.0,1.0,0.12387842685,-0.035675406456,-0.142179280519,1.21846967915e-07,0.0,0.0,0.0,1.21846967915e-07,0.0,0.0,0.0,1.21846967915e-07,0.4314926,1.372931,11.54242705,9e-08,0.0,0.0,0.0,9e-08,0.0,0.0,0.0,9e-08
1538765792607355688,4110,1538765792607048456,base_link,0.0482383312627,-0.184569304226,-0.946104888355,0.261711244629,1.0,0.0,0.0,0.0,1.0,0.0,0.0,0.0,1.0,0.0470932424068,-0.0602161288261,-0.173330441117,1.21846967915e-07,0.0,0.0,0.0,1.21846967915e-07,0.0,0.0,0.0,1.21846967915e-07,0.4707192,0.2549729,10.03220295,9e-08,0.0,0.0,0.0,9e-08,0.0,0.0,0.0,9e-08
1538765793071621224,4111,1538765793071274216,base_link,0.036126119424,-0.224454342039,-0.942135997694,0.24636337732,1.0,0.0,0.0,0.0,1.0,0.0,0.0,0.0,1.0,0.0761743709445,-0.16440820694,-0.00419422378764,1.21846967915e-07,0.0,0.0,0.0,1.21846967915e-07,0.0,0.0,0.0,1.21846967915e-07,0.63743225,0.71588545,11.40513395,9e-08,0.0,0.0,0.0,9e-08,0.0,0.0,0.0,9e-08
1538765793387702824,4112,1538765793387311656,base_link,0.0191952351599,-0.218829064509,-0.947683244753,0.231607105001,1.0,0.0,0.0,0.0,1.0,0.0,0.0,0.0,1.0,0.134232640266,-0.0649912059307,-0.126734480262,1.21846967915e-07,0.0,0.0,0.0,1.21846967915e-07,0.0,0.0,0.0,1.21846967915e-07,0.73549875,1.24544455,10.34601575,9e-08,0.0,0.0,0.0,9e-08,0.0,0.0,0.0,9e-08
1538765793795477160,4113,1538765793794584072,base_link,0.0311487988073,-0.263255470402,-0.948169826013,0.175214984162,1.0,0.0,0.0,0.0,1.0,0.0,0.0,0.0,1.0,0.278472989798,-0.0347716920078,-0.406567454338,1.21846967915e-07,0.0,0.0,0.0,1.21846967915e-07,0.0,0.0,0.0,1.21846967915e-07,0.6864655,0.89240515,10.1596894,9e-08,0.0,0.0,0.0,9e-08,0.0,0.0,0.0,9e-08
1538765794247555848,4114,1538765794244685256,base_link,0.0291278004076,-0.29629373142,-0.951121721919,0.082030884783,1.0,0.0,0.0,0.0,1.0,0.0,0.0,0.0,1.0,0.0895715877414,-0.188573032618,-0.327329695225,1.21846967915e-07,0.0,0.0,0.0,1.21846967915e-07,0.0,0.0,0.0,1.21846967915e-07,0.980665,0.79433865,11.5326204,9e-08,0.0,0.0,0.0,9e-08,0.0,0.0,0.0,9e-08
1538765794675583016,4115,1538765794675288776,base_link,-0.0022317819854,-0.322212717668,-0.94660356985,0.0107547789282,1.0,0.0,0.0,0.0,1.0,0.0,0.0,0.0,1.0,-0.0868602469563,-0.275381714106,-0.132667213678,1.21846967915e-07,0.0,0.0,0.0,1.21846967915e-07,0.0,0.0,0.0,1.21846967915e-07,1.18660465,0.75511205,14.0627361,9e-08,0.0,0.0,0.0,9e-08,0.0,0.0,0.0,9e-08
1538765795071210088,4116,1538765795070576712,base_link,-0.0356060960965,-0.315024020948,-0.947300925493,-0.0459676919774,1.0,0.0,0.0,0.0,1.0,0.0,0.0,0.0,1.0,-0.123017825186,-0.207752510905,-0.271482169628,1.21846967915e-07,0.0,0.0,0.0,1.21846967915e-07,0.0,0.0,0.0,1.21846967915e-07,1.2944778,1.3925443,10.9442214,9e-08,0.0,0.0,0.0,9e-08,0.0,0.0,0.0,9e-08
1538765795442329736,4117,1538765795442079208,base_link,-0.043421944606,-0.310120733609,-0.941178625493,-0.126974250257,1.0,0.0,0.0,0.0,1.0,0.0,0.0,0.0,1.0,0.203047946095,-0.170178622007,-0.501654684544,1.21846967915e-07,0.0,0.0,0.0,1.21846967915e-07,0.0,0.0,0.0,1.21846967915e-07,1.28467115,1.3925443,12.05237285,9e-08,0.0,0.0,0.0,9e-08,0.0,0.0,0.0,9e-08
1538765795788988072,4118,1538765795788677800,base_link,-0.0642678095602,-0.30754917603,-0.926254783027,-0.208171155294,1.0,0.0,0.0,0.0,1.0,0.0,0.0,0.0,1.0,-0.0908270254731,-0.269703686237,-0.275747984648,1.21846967915e-07,0.0,0.0,0.0,1.21846967915e-07,0.0,0.0,0.0,1.21846967915e-07,1.55925735,1.08853815,12.5132854,9e-08,0.0,0.0,0.0,9e-08,0.0,0.0,0.0,9e-08
1538765796248843432,4119,1538765796248562312,base_link,-0.0744723974372,-0.268809238115,-0.91100597182,-0.303749197252,1.0,0.0,0.0,0.0,1.0,0.0,0.0,0.0,1.0,0.239942893386,-0.184618145227,-0.470772743225,1.21846967915e-07,0.0,0.0,0.0,1.21846967915e-07,0.0,0.0,0.0,1.21846967915e-07,1.40235095,0.8041453,10.32640245,9e-08,0.0,0.0,0.0,9e-08,0.0,0.0,0.0,9e-08
1538765796743659208,4120,1538765796743178952,base_link,-0.147480473748,-0.308199010297,-0.861037336683,-0.376666410439,1.0,0.0,0.0,0.0,1.0,0.0,0.0,0.0,1.0,0.233219727874,-0.363108515739,-0.15037946403,1.21846967915e-07,0.0,0.0,0.0,1.21846967915e-07,0.0,0.0,0.0,1.21846967915e-07,1.18660465,0.73549875,13.8077632,9e-08,0.0,0.0,0.0,9e-08,0.0,0.0,0.0,9e-08
1538765797170966376,4121,1538765797170726728,base_link,-0.213473180391,-0.301501802962,-0.820143205208,-0.436910731175,1.0,0.0,0.0,0.0,1.0,0.0,0.0,0.0,1.0,0.0839346498251,-0.349011361599,-0.250532716513,1.21846967915e-07,0.0,0.0,0.0,1.21846967915e-07,0.0,0.0,0.0,1.21846967915e-07,1.0787315,1.36312435,15.07282105,9e-08,0.0,0.0,0.0,9e-08,0.0,0.0,0.0,9e-08
1538765797456495432,4122,1538765797455780744,base_link,-0.220831141359,-0.287364717603,-0.790312912508,-0.494024924884,1.0,0.0,0.0,0.0,1.0,0.0,0.0,0.0,1.0,-0.227515608072,-0.185813009739,-0.540554642677,1.21846967915e-07,0.0,0.0,0.0,1.21846967915e-07,0.0,0.0,0.0,1.21846967915e-07,0.79433865,2.0593965,10.52253545,9e-08,0.0,0.0,0.0,9e-08,0.0,0.0,0.0,9e-08
1538765797754121864,4123,1538765797753855976,base_link,-0.245632157684,-0.300376715057,-0.729401728036,-0.563393105478,1.0,0.0,0.0,0.0,1.0,0.0,0.0,0.0,1.0,0.155429571867,-0.342218220234,-0.328681915998,1.21846967915e-07,0.0,0.0,0.0,1.21846967915e-07,0.0,0.0,0.0,1.21846967915e-07,0.85317855,-0.28439285,12.6701918,9e-08,0.0,0.0,0.0,9e-08,0.0,0.0,0.0,9e-08
1538765798199676744,4124,1538765798198400808,base_link,-0.261785012674,-0.230030305061,-0.692312064177,-0.631869188747,1.0,0.0,0.0,0.0,1.0,0.0,0.0,0.0,1.0,-0.459545373917,-0.290552973747,-0.283815264702,1.21846967915e-07,0.0,0.0,0.0,1.21846967915e-07,0.0,0.0,0.0,1.21846967915e-07,1.28467115,1.48080415,15.58276685,9e-08,0.0,0.0,0.0,9e-08,0.0,0.0,0.0,9e-08
1538765798642167144,4125,1538765798641837448,base_link,-0.216418713411,-0.145160127578,-0.652471326384,-0.711598655208,1.0,0.0,0.0,0.0,1.0,0.0,0.0,0.0,1.0,-0.500830590725,-0.157850936055,-0.223259598017,1.21846967915e-07,0.0,0.0,0.0,1.21846967915e-07,0.0,0.0,0.0,1.21846967915e-07,0.44129925,0.7649187,12.4152189,9e-08,0.0,0.0,0.0,9e-08,0.0,0.0,0.0,9e-08
1538765799158100232,4126,1538765799150036040,base_link,-0.129464923045,-0.086075883295,-0.606658296024,-0.779612395926,1.0,0.0,0.0,0.0,1.0,0.0,0.0,0.0,1.0,-0.376015096903,0.0132543817163,-0.303658664227,1.21846967915e-07,0.0,0.0,0.0,1.21846967915e-07,0.0,0.0,0.0,1.21846967915e-07,-0.0196133,0.00980665,8.42391235,9e-08,0.0,0.0,0.0,9e-08,0.0,0.0,0.0,9e-08
1538765799566018792,4127,1538765799563987400,base_link,-0.0559467126086,-0.029737327684,-0.599075543647,-0.79818177735,1.0,0.0,0.0,0.0,1.0,0.0,0.0,0.0,1.0,-0.594449400902,-0.00352240237407,0.0513523444533,1.21846967915e-07,0.0,0.0,0.0,1.21846967915e-07,0.0,0.0,0.0,1.21846967915e-07,0.08825985,0.2745862,11.7875933,9e-08,0.0,0.0,0.0,9e-08,0.0,0.0,0.0,9e-08
1538765799974317032,4128,1538765799974098408,base_link,0.0278484774061,0.0184639619943,-0.606215881218,-0.794597917045,1.0,0.0,0.0,0.0,1.0,0.0,0.0,0.0,1.0,-0.290637463331,0.106828093529,0.0131981167942,1.21846967915e-07,0.0,0.0,0.0,1.21846967915e-07,0.0,0.0,0.0,1.21846967915e-07,-0.1765197,0.61781895,9.5516771,9e-08,0.0,0.0,0.0,9e-08,0.0,0.0,0.0,9e-08
1538765800466213512,4129,1538765800465896712,base_link,0.0726055250751,0.0100947638873,-0.603251235321,-0.794175346227,1.0,0.0,0.0,0.0,1.0,0.0,0.0,0.0,1.0,-0.109332278371,0.14041428268,0.0234652720392,1.21846967915e-07,0.0,0.0,0.0,1.21846967915e-07,0.0,0.0,0.0,1.21846967915e-07,-0.3530394,0.38245935,9.24767095,9e-08,0.0,0.0,0.0,9e-08,0.0,0.0,0.0,9e-08
1538765800902523976,4130,1538765800902252680,base_link,0.0819455582857,-0.0160950086474,-0.620990279243,-0.779356753521,1.0,0.0,0.0,0.0,1.0,0.0,0.0,0.0,1.0,0.0803626775742,0.0977811962366,0.121094413102,1.21846967915e-07,0.0,0.0,0.0,1.21846967915e-07,0.0,0.0,0.0,1.21846967915e-07,-0.50013915,0.6080123,6.08992965,9e-08,0.0,0.0,0.0,9e-08,0.0,0.0,0.0,9e-08
1538765801353472872,4131,1538765801353068872,base_link,0.0769544868545,-0.0343047447112,-0.632037657971,-0.770343813079,1.0,0.0,0.0,0.0,1.0,0.0,0.0,0.0,1.0,-0.00267097586766,0.0331429839134,0.012600146234,1.21846967915e-07,0.0,0.0,0.0,1.21846967915e-07,0.0,0.0,0.0,1.21846967915e-07,-0.36284605,0.4314926,8.2179727,9e-08,0.0,0.0,0.0,9e-08,0.0,0.0,0.0,9e-08
1538765801700992808,4132,1538765801700744776,base_link,0.0815368177833,-0.0323831044109,-0.640931780538,-0.762567724593,1.0,0.0,0.0,0.0,1.0,0.0,0.0,0.0,1.0,-0.161984845996,-0.0186674967408,0.052504722029,1.21846967915e-07,0.0,0.0,0.0,1.21846967915e-07,0.0,0.0,0.0,1.21846967915e-07,-0.44129925,0.53936575,10.44408225,9e-08,0.0,0.0,0.0,9e-08,0.0,0.0,0.0,9e-08
1538765802058713032,4133,1538765802058474184,base_link,0.0877522243316,-0.021630823304,-0.650535838014,-0.754078761183,1.0,0.0,0.0,0.0,1.0,0.0,0.0,0.0,1.0,-0.0122663080692,-0.0244396980852,0.114670947194,1.21846967915e-07,0.0,0.0,0.0,1.21846967915e-07,0.0,0.0,0.0,1.21846967915e-07,-0.20593965,1.34388347543e-15,10.97364135,9e-08,0.0,0.0,0.0,9e-08,0.0,0.0,0.0,9e-08
1538765802439953768,4134,1538765802439726248,base_link,0.0831126189584,-0.0201036503863,-0.676172299041,-0.731764414153,1.0,0.0,0.0,0.0,1.0,0.0,0.0,0.0,1.0,-0.36581414938,-0.0163174252957,0.135834664106,1.21846967915e-07,0.0,0.0,0.0,1.21846967915e-07,0.0,0.0,0.0,1.21846967915e-07,-0.2745862,1.16699135,10.7284751,9e-08,0.0,0.0,0.0,9e-08,0.0,0.0,0.0,9e-08
1538765802950133928,4135,1538765802949041288,base_link,0.0551088603228,-0.0417106419087,-0.662068383399,-0.74624975147,1.0,0.0,0.0,0.0,1.0,0.0,0.0,0.0,1.0,0.529626190662,-0.00460084248334,-0.120837427676,1.21846967915e-07,0.0,0.0,0.0,1.21846967915e-07,0.0,0.0,0.0,1.21846967915e-07,-0.0588399,0.08825985,10.91480145,9e-08,0.0,0.0,0.0,9e-08,0.0,0.0,0.0,9e-08
1538765803294296616,4136,1538765803294087144,base_link,-0.0372696570902,-0.112920878635,-0.666010047325,-0.736403737559,1.0,0.0,0.0,0.0,1.0,0.0,0.0,0.0,1.0,0.422707408667,-0.0255829691887,0.195421531796,1.21846967915e-07,0.0,0.0,0.0,1.21846967915e-07,0.0,0.0,0.0,1.21846967915e-07,0.0,0.4511059,11.1403544,9e-08,0.0,0.0,0.0,9e-08,0.0,0.0,0.0,9e-08
1538765803685764232,4137,1538765803684864264,base_link,-0.079012934978,-0.148237359738,-0.667850498157,-0.725091962026,1.0,0.0,0.0,0.0,1.0,0.0,0.0,0.0,1.0,0.306472957134,0.0295580048114,-0.18152859807,1.21846967915e-07,0.0,0.0,0.0,1.21846967915e-07,0.0,0.0,0.0,1.21846967915e-07,-0.04903325,1.2748645,9.67916355,9e-08,0.0,0.0,0.0,9e-08,0.0,0.0,0.0,9e-08
1538765804057655912,4138,1538765804056888200,base_link,-0.12295919507,-0.185835349791,-0.619088916793,-0.753043937775,1.0,0.0,0.0,0.0,1.0,0.0,0.0,0.0,1.0,0.392330408096,-0.0874248072505,-0.267227768898,1.21846967915e-07,0.0,0.0,0.0,1.21846967915e-07,0.0,0.0,0.0,1.21846967915e-07,-0.1372931,0.75511205,11.0226746,9e-08,0.0,0.0,0.0,9e-08,0.0,0.0,0.0,9e-08
1538765804491965128,4139,1538765804491677640,base_link,-0.185013523222,-0.211781120834,-0.553830563522,-0.783703043245,1.0,0.0,0.0,0.0,1.0,0.0,0.0,0.0,1.0,0.389019221067,-0.185435384512,-0.339197576046,1.21846967915e-07,0.0,0.0,0.0,1.21846967915e-07,0.0,0.0,0.0,1.21846967915e-07,0.0980665,0.8041453,10.7088618,9e-08,0.0,0.0,0.0,9e-08,0.0,0.0,0.0,9e-08
1538765804822675720,4140,1538765804822367528,base_link,-0.257027755962,-0.228019584331,-0.484826895583,-0.804292660135,1.0,0.0,0.0,0.0,1.0,0.0,0.0,0.0,1.0,0.740958034992,-0.320938587189,-0.223703637719,1.21846967915e-07,0.0,0.0,0.0,1.21846967915e-07,0.0,0.0,0.0,1.21846967915e-07,0.65704555,0.06864655,13.1212977,9e-08,0.0,0.0,0.0,9e-08,0.0,0.0,0.0,9e-08
1538765805279251336,4141,1538765805278438472,base_link,-0.313442160428,-0.180975176405,-0.434774920466,-0.824604611996,1.0,0.0,0.0,0.0,1.0,0.0,0.0,0.0,1.0,-0.279864907265,-0.330741584301,-0.125846907496,1.21846967915e-07,0.0,0.0,0.0,1.21846967915e-07,0.0,0.0,0.0,1.21846967915e-07,1.0002783,1.32389775,13.26839745,9e-08,0.0,0.0,0.0,9e-08,0.0,0.0,0.0,9e-08
1538765805681039272,4142,1538765805680808040,base_link,-0.308265620271,-0.145234322273,-0.365105966911,-0.86635843155,1.0,0.0,0.0,0.0,1.0,0.0,0.0,0.0,1.0,0.161491364241,-0.235423922539,-0.344595223665,1.21846967915e-07,0.0,0.0,0.0,1.21846967915e-07,0.0,0.0,0.0,1.21846967915e-07,0.9414384,1.0198916,13.9450563,9e-08,0.0,0.0,0.0,9e-08,0.0,0.0,0.0,9e-08
1538765806217083080,4143,1538765806216461288,base_link,-0.297632422608,-0.109397033645,-0.26070633169,-0.91185494387,1.0,0.0,0.0,0.0,1.0,0.0,0.0,0.0,1.0,-0.0153350643814,-0.291768789291,-0.298329621553,1.21846967915e-07,0.0,0.0,0.0,1.21846967915e-07,0.0,0.0,0.0,1.21846967915e-07,0.42168595,0.46091255,10.787315,9e-08,0.0,0.0,0.0,9e-08,0.0,0.0,0.0,9e-08
1538765806608615144,4144,1538765806608113608,base_link,-0.324268563602,-0.0739686275729,-0.188665828652,-0.924004191491,1.0,0.0,0.0,0.0,1.0,0.0,0.0,0.0,1.0,0.0295659378171,-0.319564849138,-0.314936935902,1.21846967915e-07,0.0,0.0,0.0,1.21846967915e-07,0.0,0.0,0.0,1.21846967915e-07,0.61781895,1.10815145,14.2196425,9e-08,0.0,0.0,0.0,9e-08,0.0,0.0,0.0,9e-08
1538765806932605096,4145,1538765806932344616,base_link,-0.322039088706,-0.0534633012603,-0.117014541818,-0.937944613379,1.0,0.0,0.0,0.0,1.0,0.0,0.0,0.0,1.0,0.11771954596,-0.248921245337,-0.493703007698,1.21846967915e-07,0.0,0.0,0.0,1.21846967915e-07,0.0,0.0,0.0,1.21846967915e-07,0.2549729,1.2748645,11.375714,9e-08,0.0,0.0,0.0,9e-08,0.0,0.0,0.0,9e-08
1538765807333146248,4146,1538765807332786824,base_link,-0.346771762478,-0.0243829851456,-0.0176041117929,-0.937467284779,1.0,0.0,0.0,0.0,1.0,0.0,0.0,0.0,1.0,0.0612793527544,-0.333392500877,-0.292844802141,1.21846967915e-07,0.0,0.0,0.0,1.21846967915e-07,0.0,0.0,0.0,1.21846967915e-07,0.46091255,0.4314926,11.97391965,9e-08,0.0,0.0,0.0,9e-08,0.0,0.0,0.0,9e-08
1538765807728629128,4147,1538765807728036744,base_link,-0.321489700669,0.0217283459335,0.0425004944593,-0.945709236138,1.0,0.0,0.0,0.0,1.0,0.0,0.0,0.0,1.0,-0.0389129519463,-0.190760269761,-0.252315491438,1.21846967915e-07,0.0,0.0,0.0,1.21846967915e-07,0.0,0.0,0.0,1.21846967915e-07,0.20593965,1.38273765,11.6306869,9e-08,0.0,0.0,0.0,9e-08,0.0,0.0,0.0,9e-08
1538765808077189064,4148,1538765808076907016,base_link,-0.29633094855,0.0308155454578,0.110206632571,-0.948205077621,1.0,0.0,0.0,0.0,1.0,0.0,0.0,0.0,1.0,-0.176260188222,-0.149111136794,-0.404759764671,1.21846967915e-07,0.0,0.0,0.0,1.21846967915e-07,0.0,0.0,0.0,1.21846967915e-07,0.20593965,1.0983448,11.42474725,9e-08,0.0,0.0,0.0,9e-08,0.0,0.0,0.0,9e-08
1538765808526392744,4149,1538765808520620904,base_link,-0.287120460703,0.0470775205893,0.195419256088,-0.936566528577,1.0,0.0,0.0,0.0,1.0,0.0,0.0,0.0,1.0,-0.0100414985791,-0.163476124406,-0.261452466249,1.21846967915e-07,0.0,0.0,0.0,1.21846967915e-07,0.0,0.0,0.0,1.21846967915e-07,-0.04903325,0.83356525,10.38524235,9e-08,0.0,0.0,0.0,9e-08,0.0,0.0,0.0,9e-08
1538765808787756904,4150,1538765808787342024,base_link,-0.272227694826,0.0556400354131,0.236653831016,-0.931016236644,1.0,0.0,0.0,0.0,1.0,0.0,0.0,0.0,1.0,-0.237487614155,-0.1734020859,-0.250733524561,1.21846967915e-07,0.0,0.0,0.0,1.21846967915e-07,0.0,0.0,0.0,1.21846967915e-07,-0.08825985,0.7649187,10.71866845,9e-08,0.0,0.0,0.0,9e-08,0.0,0.0,0.0,9e-08
1538765809089438696,4151,1538765809089191528,base_link,-0.228544818577,0.0542939697222,0.273955532272,-0.932613423177,1.0,0.0,0.0,0.0,1.0,0.0,0.0,0.0,1.0,-0.411037147045,-0.106558226049,-0.204711794853,1.21846967915e-07,0.0,0.0,0.0,1.21846967915e-07,0.0,0.0,0.0,1.21846967915e-07,-0.3726527,0.75511205,10.9246081,9e-08,0.0,0.0,0.0,9e-08,0.0,0.0,0.0,9e-08
1538765809488082472,4152,1538765809487841576,base_link,-0.162621658174,0.0353707594072,0.323784862976,-0.931378799511,1.0,0.0,0.0,0.0,1.0,0.0,0.0,0.0,1.0,-0.331763803959,-0.0305996295065,-0.309465557337,1.21846967915e-07,0.0,0.0,0.0,1.21846967915e-07,0.0,0.0,0.0,1.21846967915e-07,-0.44129925,1.176798,9.81645665,9e-08,0.0,0.0,0.0,9e-08,0.0,0.0,0.0,9e-08
1538765809890794344,4153,1538765809890442824,base_link,-0.124374282495,0.0157546461077,0.369386554147,-0.920780322659,1.0,0.0,0.0,0.0,1.0,0.0,0.0,0.0,1.0,-0.149938941002,-0.0170418918133,-0.0504047051072,1.21846967915e-07,0.0,0.0,0.0,1.21846967915e-07,0.0,0.0,0.0,1.21846967915e-07,-0.5099458,0.0392266,6.864655,9e-08,0.0,0.0,0.0,9e-08,0.0,0.0,0.0,9e-08
1538765810295591336,4154,1538765810294098696,base_link,-0.0637278767605,-0.0108169610804,0.372591126841,-0.925741650395,1.0,0.0,0.0,0.0,1.0,0.0,0.0,0.0,1.0,-0.441580861807,0.0786738842726,-0.158008784056,1.21846967915e-07,0.0,0.0,0.0,1.21846967915e-07,0.0,0.0,0.0,1.21846967915e-07,-0.61781895,1.18660465,7.6884136,9e-08,0.0,0.0,0.0,9e-08,0.0,0.0,0.0,9e-08
1538765810606726856,4155,1538765810606105128,base_link,-0.0127292345894,-0.0401840428143,0.403638115758,-0.913947198036,1.0,0.0,0.0,0.0,1.0,0.0,0.0,0.0,1.0,-0.0813386514783,0.0169772058725,-0.23032322526,1.21846967915e-07,0.0,0.0,0.0,1.21846967915e-07,0.0,0.0,0.0,1.21846967915e-07,-0.5295591,0.34323275,10.1008495,9e-08,0.0,0.0,0.0,9e-08,0.0,0.0,0.0,9e-08
1538765811099985864,4156,1538765811099694408,base_link,-0.00756484629062,-0.0322702762646,0.410179783971,-0.911402187397,1.0,0.0,0.0,0.0,1.0,0.0,0.0,0.0,1.0,-0.0619966238737,-0.0551768429577,0.0928756073117,1.21846967915e-07,0.0,0.0,0.0,1.21846967915e-07,0.0,0.0,0.0,1.21846967915e-07,-0.2745862,0.2157463,10.93441475,9e-08,0.0,0.0,0.0,9e-08,0.0,0.0,0.0,9e-08
1538765811462643208,4157,1538765811461984456,base_link,0.00243065377634,-0.0271340199193,0.395151992031,-0.918211707658,1.0,0.0,0.0,0.0,1.0,0.0,0.0,0.0,1.0,-0.0491729676723,-0.0423808284104,0.0292433593422,1.21846967915e-07,0.0,0.0,0.0,1.21846967915e-07,0.0,0.0,0.0,1.21846967915e-07,-0.24516625,0.6080123,9.95374975,9e-08,0.0,0.0,0.0,9e-08,0.0,0.0,0.0,9e-08
1538765811773067112,4158,1538765811772755848,base_link,0.0103131001288,-0.0225077692936,0.392768294732,-0.919304142784,1.0,0.0,0.0,0.0,1.0,0.0,0.0,0.0,1.0,-0.0323480665684,-0.0378060825169,-0.00807666312903,1.21846967915e-07,0.0,0.0,0.0,1.21846967915e-07,0.0,0.0,0.0,1.21846967915e-07,-0.2157463,0.5295591,11.07170785,9e-08,0.0,0.0,0.0,9e-08,0.0,0.0,0.0,9e-08
1538765812206784200,4159,1538765812204244296,base_link,0.0181051646766,-0.0152497608512,0.393371938446,-0.919074624744,1.0,0.0,0.0,0.0,1.0,0.0,0.0,0.0,1.0,0.0579341761768,-0.0450851134956,-8.0153811723e-05,1.21846967915e-07,0.0,0.0,0.0,1.21846967915e-07,0.0,0.0,0.0,1.21846967915e-07,-0.0392266,0.18632635,10.8265416,9e-08,0.0,0.0,0.0,9e-08,0.0,0.0,0.0,9e-08
1538765812555745736,4160,1538765812555493128,base_link,0.0126037066927,-0.00555591367491,0.377945408205,-0.925725416534,1.0,0.0,0.0,0.0,1.0,0.0,0.0,0.0,1.0,0.0591888576746,-0.019821992144,0.132721245289,1.21846967915e-07,0.0,0.0,0.0,1.21846967915e-07,0.0,0.0,0.0,1.21846967915e-07,0.0196133,0.30400615,11.6306869,9e-08,0.0,0.0,0.0,9e-08,0.0,0.0,0.0,9e-08
1538765812962228200,4161,1538765812961974600,base_link,0.00473867387486,0.000464732471798,0.358106056631,-0.933668774886,1.0,0.0,0.0,0.0,1.0,0.0,0.0,0.0,1.0,0.0548099055886,0.00643223384395,0.0425196588039,1.21846967915e-07,0.0,0.0,0.0,1.21846967915e-07,0.0,0.0,0.0,1.21846967915e-07,0.0196133,0.63743225,10.5323421,9e-08,0.0,0.0,0.0,9e-08,0.0,0.0,0.0,9e-08
1538765813471923592,4162,1538765813471720584,base_link,-0.00235275966006,0.000309314798869,0.362505009871,-0.931978801618,1.0,0.0,0.0,0.0,1.0,0.0,0.0,0.0,1.0,0.160447776318,0.0143584646285,-0.031986746937,1.21846967915e-07,0.0,0.0,0.0,1.21846967915e-07,0.0,0.0,0.0,1.21846967915e-07,-0.0588399,0.44129925,10.01258965,9e-08,0.0,0.0,0.0,9e-08,0.0,0.0,0.0,9e-08
1538765813929170536,4163,1538765813928768520,base_link,-0.0332037650111,0.0107442353481,0.358806076597,-0.93275949247,1.0,0.0,0.0,0.0,1.0,0.0,0.0,0.0,1.0,0.0155290160328,0.0204907041043,0.0214570909739,1.21846967915e-07,0.0,0.0,0.0,1.21846967915e-07,0.0,0.0,0.0,1.21846967915e-07,0.00980665,0.53936575,9.79684335,9e-08,0.0,0.0,0.0,9e-08,0.0,0.0,0.0,9e-08
1538765814326115720,4164,1538765814324195816,base_link,-0.0411452449444,0.00926425886753,0.358211424669,-0.932687416857,1.0,0.0,0.0,0.0,1.0,0.0,0.0,0.0,1.0,0.0501949414611,0.000186204910278,-0.034638620913,1.21846967915e-07,0.0,0.0,0.0,1.21846967915e-07,0.0,0.0,0.0,1.21846967915e-07,0.0,0.3726527,9.18883105,9e-08,0.0,0.0,0.0,9e-08,0.0,0.0,0.0,9e-08
1538765814653696968,4165,1538765814652194600,base_link,-0.0280883275753,0.00719880727999,0.360998009081,-0.932115690495,1.0,0.0,0.0,0.0,1.0,0.0,0.0,0.0,1.0,-0.0895186811686,-7.74934887886e-05,-0.0479808188975,1.21846967915e-07,0.0,0.0,0.0,1.21846967915e-07,0.0,0.0,0.0,1.21846967915e-07,0.2157463,0.69627215,10.64021525,9e-08,0.0,0.0,0.0,9e-08,0.0,0.0,0.0,9e-08
1538765815173178984,4166,1538765815172693480,base_link,-0.0438091984127,0.0186525169501,0.366948087895,-0.929022033396,1.0,0.0,0.0,0.0,1.0,0.0,0.0,0.0,1.0,0.0975036025047,-0.0442534387112,0.00387278245762,1.21846967915e-07,0.0,0.0,0.0,1.21846967915e-07,0.0,0.0,0.0,1.21846967915e-07,0.196133,0.38245935,10.1400761,9e-08,0.0,0.0,0.0,9e-08,0.0,0.0,0.0,9e-08
1538765815432383656,4167,1538765815431888360,base_link,-0.0447611258127,0.0264313934182,0.363430500303,-0.930169927759,1.0,0.0,0.0,0.0,1.0,0.0,0.0,0.0,1.0,0.00237460946664,-0.073384962976,0.0327575169504,1.21846967915e-07,0.0,0.0,0.0,1.21846967915e-07,0.0,0.0,0.0,1.21846967915e-07,0.28439285,0.6276256,11.50320045,9e-08,0.0,0.0,0.0,9e-08,0.0,0.0,0.0,9e-08
1538765815869077768,4168,1538765815868706184,base_link,-0.0303761120213,0.0341620496584,0.357636882951,-0.932741178535,1.0,0.0,0.0,0.0,1.0,0.0,0.0,0.0,1.0,-0.0520677939057,-0.0372831560671,-0.00391763448715,1.21846967915e-07,0.0,0.0,0.0,1.21846967915e-07,0.0,0.0,0.0,1.21846967915e-07,0.28439285,0.7060788,10.85596155,9e-08,0.0,0.0,0.0,9e-08,0.0,0.0,0.0,9e-08
1538765816223177288,4169,1538765816222668200,base_link,-0.0154715756256,0.0365113865745,0.358007739142,-0.932876201708,1.0,0.0,0.0,0.0,1.0,0.0,0.0,0.0,1.0,-0.256077468395,-0.056702144444,0.0186596866697,1.21846967915e-07,0.0,0.0,0.0,1.21846967915e-07,0.0,0.0,0.0,1.21846967915e-07,0.26477955,0.6472389,10.44408225,9e-08,0.0,0.0,0.0,9e-08,0.0,0.0,0.0,9e-08
1538765816649471432,4170,1538765816649040840,base_link,0.0326749077337,0.0240870966437,0.353497251466,-0.934554361921,1.0,0.0,0.0,0.0,1.0,0.0,0.0,0.0,1.0,-0.0186616182327,0.00543330237269,0.0123207066208,1.21846967915e-07,0.0,0.0,0.0,1.21846967915e-07,0.0,0.0,0.0,1.21846967915e-07,0.40207265,0.2745862,10.77750835,9e-08,0.0,0.0,0.0,9e-08,0.0,0.0,0.0,9e-08
1538765817123125736,4171,1538765817122632968,base_link,0.0308446849445,0.0248827439894,0.328153524935,-0.943792730707,1.0,0.0,0.0,0.0,1.0,0.0,0.0,0.0,1.0,-0.0037409379147,0.0300668831915,0.140832662582,1.21846967915e-07,0.0,0.0,0.0,1.21846967915e-07,0.0,0.0,0.0,1.21846967915e-07,0.4707192,0.4903325,10.54214875,9e-08,0.0,0.0,0.0,9e-08,0.0,0.0,0.0,9e-08
1538765817444915112,4172,1538765817443859112,base_link,0.0256634622025,0.014691186917,0.320561219775,-0.946766106338,1.0,0.0,0.0,0.0,1.0,0.0,0.0,0.0,1.0,0.012146063149,0.100905947387,-0.0442978255451,1.21846967915e-07,0.0,0.0,0.0,1.21846967915e-07,0.0,0.0,0.0,1.21846967915e-07,0.4314926,0.91201845,9.1005712,9e-08,0.0,0.0,0.0,9e-08,0.0,0.0,0.0,9e-08
1538765817846506376,4173,1538765817846101128,base_link,-0.0278659179679,0.014146908528,0.33626454689,-0.941248909747,1.0,0.0,0.0,0.0,1.0,0.0,0.0,0.0,1.0,0.213285565376,0.0476177111268,-0.0531383231282,1.21846967915e-07,0.0,0.0,0.0,1.21846967915e-07,0.0,0.0,0.0,1.21846967915e-07,0.3726527,0.87279185,8.5317855,9e-08,0.0,0.0,0.0,9e-08,0.0,0.0,0.0,9e-08
1538765818277754984,4174,1538765818272052840,base_link,-0.0636470211817,0.0197765825622,0.339762881933,-0.938146645007,1.0,0.0,0.0,0.0,1.0,0.0,0.0,0.0,1.0,0.184691518545,0.0431507304311,0.0291970930994,1.21846967915e-07,0.0,0.0,0.0,1.21846967915e-07,0.0,0.0,0.0,1.21846967915e-07,0.53936575,0.36284605,9.73800345,9e-08,0.0,0.0,0.0,9e-08,0.0,0.0,0.0,9e-08
1538765818554472168,4175,1538765818554129992,base_link,-0.0822079751624,0.0232666936245,0.338323002401,-0.937143562019,1.0,0.0,0.0,0.0,1.0,0.0,0.0,0.0,1.0,0.132093146443,0.010136321187,-0.0121717713773,1.21846967915e-07,0.0,0.0,0.0,1.21846967915e-07,0.0,0.0,0.0,1.21846967915e-07,0.36284605,0.5295591,8.46313895,9e-08,0.0,0.0,0.0,9e-08,0.0,0.0,0.0,9e-08
1538765818999184360,4176,1538765818998884520,base_link,-0.108112754913,0.0359713732293,0.340997974261,-0.933133470669,1.0,0.0,0.0,0.0,1.0,0.0,0.0,0.0,1.0,-0.0960315018892,-0.00156376115046,-0.0287167932838,1.21846967915e-07,0.0,0.0,0.0,1.21846967915e-07,0.0,0.0,0.0,1.21846967915e-07,0.28439285,0.48052585,7.65899365,9e-08,0.0,0.0,0.0,9e-08,0.0,0.0,0.0,9e-08
1538765819476148232,4177,1538765819475616808,base_link,-0.0768900211566,0.0315541680506,0.34955812402,-0.93322096904,1.0,0.0,0.0,0.0,1.0,0.0,0.0,0.0,1.0,-0.0197508186102,-0.0341096669436,-0.080753326416,1.21846967915e-07,0.0,0.0,0.0,1.21846967915e-07,0.0,0.0,0.0,1.21846967915e-07,0.588399,0.980665,10.36562905,9e-08,0.0,0.0,0.0,9e-08,0.0,0.0,0.0,9e-08
1538765819895155240,4178,1538765819894528328,base_link,-0.0500991793975,0.0308569175768,0.370591175081,-0.926930474099,1.0,0.0,0.0,0.0,1.0,0.0,0.0,0.0,1.0,-0.209340497851,-0.100728861988,-0.0457568839192,1.21846967915e-07,0.0,0.0,0.0,1.21846967915e-07,0.0,0.0,0.0,1.21846967915e-07,0.79433865,0.63743225,11.97391965,9e-08,0.0,0.0,0.0,9e-08,0.0,0.0,0.0,9e-08
1538765820266703784,4179,1538765820266291912,base_link,-0.00825667628751,0.0331001327375,0.369468166819,-0.928616972824,1.0,0.0,0.0,0.0,1.0,0.0,0.0,0.0,1.0,0.0076090702787,-0.0787260830402,0.0954145342112,1.21846967915e-07,0.0,0.0,0.0,1.21846967915e-07,0.0,0.0,0.0,1.21846967915e-07,0.9610517,-0.02941995,11.66010685,9e-08,0.0,0.0,0.0,9e-08,0.0,0.0,0.0,9e-08
1538765820761769416,4180,1538765820761383848,base_link,0.0136848455275,0.0360972471048,0.342547338679,-0.938707107951,1.0,0.0,0.0,0.0,1.0,0.0,0.0,0.0,1.0,0.0952104926109,-0.0299885906279,0.0619669444859,1.21846967915e-07,0.0,0.0,0.0,1.21846967915e-07,0.0,0.0,0.0,1.21846967915e-07,0.784532,0.65704555,10.20872265,9e-08,0.0,0.0,0.0,9e-08,0.0,0.0,0.0,9e-08
1538765821213281896,4181,1538765821212866024,base_link,-0.00645196887435,0.041270078397,0.343224328625,-0.938324151328,1.0,0.0,0.0,0.0,1.0,0.0,0.0,0.0,1.0,0.139371246099,0.0397885031998,-0.0678099766374,1.21846967915e-07,0.0,0.0,0.0,1.21846967915e-07,0.0,0.0,0.0,1.21846967915e-07,0.7256921,0.8041453,9.26728425,9e-08,0.0,0.0,0.0,9e-08,0.0,0.0,0.0,9e-08
1538765821649570216,4182,1538765821649284296,base_link,-0.0454943439196,0.0568669568318,0.336965113098,-0.938696397376,1.0,0.0,0.0,0.0,1.0,0.0,0.0,0.0,1.0,0.208985060453,-0.00270059867762,0.0943172350526,1.21846967915e-07,0.0,0.0,0.0,1.21846967915e-07,0.0,0.0,0.0,1.21846967915e-07,0.69627215,0.69627215,10.38524235,9e-08,0.0,0.0,0.0,9e-08,0.0,0.0,0.0,9e-08
1538765822054266728,4183,1538765822054011144,base_link,-0.031837323979,0.0641966929264,0.331567508306,-0.940706201136,1.0,0.0,0.0,0.0,1.0,0.0,0.0,0.0,1.0,-0.0246268324554,0.0125417821109,-0.0472167097032,1.21846967915e-07,0.0,0.0,0.0,1.21846967915e-07,0.0,0.0,0.0,1.21846967915e-07,1.06892485,1.12776475,14.71978165,9e-08,0.0,0.0,0.0,9e-08,0.0,0.0,0.0,9e-08
1538765822429224264,4184,1538765822426270760,base_link,-0.0383758235747,0.0593380416288,0.350667997191,-0.933829882113,1.0,0.0,0.0,0.0,1.0,0.0,0.0,0.0,1.0,0.262079209089,0.0211831163615,-0.0767738521099,1.21846967915e-07,0.0,0.0,0.0,1.21846967915e-07,0.0,0.0,0.0,1.21846967915e-07,0.5491724,0.1372931,9.2967042,9e-08,0.0,0.0,0.0,9e-08,0.0,0.0,0.0,9e-08
1538765822622453160,4185,1538765822621926056,base_link,-0.0572147516273,0.061421710934,0.349375707247,-0.933215120327,1.0,0.0,0.0,0.0,1.0,0.0,0.0,0.0,1.0,0.126534923911,0.0832284167409,0.0247096791863,1.21846967915e-07,0.0,0.0,0.0,1.21846967915e-07,0.0,0.0,0.0,1.21846967915e-07,0.30400615,0.4118793,8.7279185,9e-08,0.0,0.0,0.0,9e-08,0.0,0.0,0.0,9e-08
1538765823095513960,4186,1538765823095081096,base_link,-0.0245647939166,0.0320809650049,0.347798864743,-0.93669810092,1.0,0.0,0.0,0.0,1.0,0.0,0.0,0.0,1.0,-0.312881618738,0.103557832539,-0.139667347074,1.21846967915e-07,0.0,0.0,0.0,1.21846967915e-07,0.0,0.0,0.0,1.21846967915e-07,0.30400615,0.9218251,8.81617835,9e-08,0.0,0.0,0.0,9e-08,0.0,0.0,0.0,9e-08
1538765823444003240,4187,1538765823443432264,base_link,-0.0216795959776,0.0138513067159,0.376932175339,-0.925883508663,1.0,0.0,0.0,0.0,1.0,0.0,0.0,0.0,1.0,0.0218343175948,0.0700108483434,-0.202596455812,1.21846967915e-07,0.0,0.0,0.0,1.21846967915e-07,0.0,0.0,0.0,1.21846967915e-07,0.44129925,0.85317855,8.46313895,9e-08,0.0,0.0,0.0,9e-08,0.0,0.0,0.0,9e-08
1538765823866474472,4188,1538765823863218344,base_link,-0.0610902452903,0.0240818827601,0.397279295565,-0.915345402659,1.0,0.0,0.0,0.0,1.0,0.0,0.0,0.0,1.0,0.14121247828,-0.045241560787,-0.0564658567309,1.21846967915e-07,0.0,0.0,0.0,1.21846967915e-07,0.0,0.0,0.0,1.21846967915e-07,0.2941995,0.48052585,8.3944924,9e-08,0.0,0.0,0.0,9e-08,0.0,0.0,0.0,9e-08
1538765824286880136,4189,1538765824284236648,base_link,-0.047144003538,0.0347335560266,0.3984505836,-0.915318608707,1.0,0.0,0.0,0.0,1.0,0.0,0.0,0.0,1.0,-0.167384058237,-0.0574529990554,0.00251163728535,1.21846967915e-07,0.0,0.0,0.0,1.21846967915e-07,0.0,0.0,0.0,1.21846967915e-07,0.59820565,0.8041453,11.1991943,9e-08,0.0,0.0,0.0,9e-08,0.0,0.0,0.0,9e-08
1538765824644237768,4190,1538765824643788136,base_link,-0.0306471114361,0.0339017857965,0.39782495422,-0.916322393746,1.0,0.0,0.0,0.0,1.0,0.0,0.0,0.0,1.0,0.000742016360164,0.00501894112676,0.0409946255386,1.21846967915e-07,0.0,0.0,0.0,1.21846967915e-07,0.0,0.0,0.0,1.21846967915e-07,0.6472389,0.3138128,9.85568325,9e-08,0.0,0.0,0.0,9e-08,0.0,0.0,0.0,9e-08
1538765825047402824,4191,1538765825047046664,base_link,-0.0161536118164,0.028164289551,0.390856439336,-0.919878838461,1.0,0.0,0.0,0.0,1.0,0.0,0.0,0.0,1.0,-0.119849346578,-0.00109330401756,0.0107821840793,1.21846967915e-07,0.0,0.0,0.0,1.21846967915e-07,0.0,0.0,0.0,1.21846967915e-07,0.6864655,0.53936575,10.28717585,9e-08,0.0,0.0,0.0,9e-08,0.0,0.0,0.0,9e-08
1538765825458091240,4192,1538765825456760872,base_link,-0.0014264324591,0.0219792359828,0.385401486398,-0.922486082691,1.0,0.0,0.0,0.0,1.0,0.0,0.0,0.0,1.0,-0.0831648409367,-0.0163199789822,0.045009791851,1.21846967915e-07,0.0,0.0,0.0,1.21846967915e-07,0.0,0.0,0.0,1.21846967915e-07,0.5099458,0.59820565,9.62032365,9e-08,0.0,0.0,0.0,9e-08,0.0,0.0,0.0,9e-08
1538765825993557544,4193,1538765825993179048,base_link,0.00434591214344,0.0292563676453,0.3789592289,-0.924940582325,1.0,0.0,0.0,0.0,1.0,0.0,0.0,0.0,1.0,0.0868413746357,-0.0440137907863,0.0243152081966,1.21846967915e-07,0.0,0.0,0.0,1.21846967915e-07,0.0,0.0,0.0,1.21846967915e-07,0.7256921,0.40207265,11.6699135,9e-08,0.0,0.0,0.0,9e-08,0.0,0.0,0.0,9e-08
1538765826345340776,4194,1538765826341935752,base_link,-0.0110560310836,0.0462391184236,0.370081599299,-0.927781934489,1.0,0.0,0.0,0.0,1.0,0.0,0.0,0.0,1.0,0.2822714746,-0.0899688750505,0.040562428534,1.21846967915e-07,0.0,0.0,0.0,1.21846967915e-07,0.0,0.0,0.0,1.21846967915e-07,0.77472535,0.3138128,12.3171524,9e-08,0.0,0.0,0.0,9e-08,0.0,0.0,0.0,9e-08
1538765826704130280,4195,1538765826703809288,base_link,-0.0371580804279,0.0688452509804,0.349280431721,-0.933746640419,1.0,0.0,0.0,0.0,1.0,0.0,0.0,0.0,1.0,-0.10932828486,-0.0396692119539,0.10266136378,1.21846967915e-07,0.0,0.0,0.0,1.21846967915e-07,0.0,0.0,0.0,1.21846967915e-07,0.79433865,0.9610517,11.38552065,9e-08,0.0,0.0,0.0,9e-08,0.0,0.0,0.0,9e-08
1538765827176298280,4196,1538765827176063208,base_link,-0.0314561854761,0.0602099935054,0.353932301617,-0.932800724137,1.0,0.0,0.0,0.0,1.0,0.0,0.0,0.0,1.0,-0.00264173420146,0.0516487397254,-0.0501116402447,1.21846967915e-07,0.0,0.0,0.0,1.21846967915e-07,0.0,0.0,0.0,1.21846967915e-07,0.7256921,0.57859235,9.610517,9e-08,0.0,0.0,0.0,9e-08,0.0,0.0,0.0,9e-08
1538765827576606888,4197,1538765827576080712,base_link,-0.0297617500673,0.0489471387446,0.357668274501,-0.932090028515,1.0,0.0,0.0,0.0,1.0,0.0,0.0,0.0,1.0,-0.170939713717,0.0651997774839,-0.00284856930375,1.21846967915e-07,0.0,0.0,0.0,1.21846967915e-07,0.0,0.0,0.0,1.21846967915e-07,0.588399,0.71588545,8.71811185,9e-08,0.0,0.0,0.0,9e-08,0.0,0.0,0.0,9e-08
1538765827911744040,4198,1538765827911187848,base_link,-0.0387477911304,0.0409512856699,0.369538774919,-0.927503474234,1.0,0.0,0.0,0.0,1.0,0.0,0.0,0.0,1.0,0.0551845654845,0.0444753728807,-0.0712756961584,1.21846967915e-07,0.0,0.0,0.0,1.21846967915e-07,0.0,0.0,0.0,1.21846967915e-07,0.69627215,0.3726527,9.1594111,9e-08,0.0,0.0,0.0,9e-08,0.0,0.0,0.0,9e-08
1538765828246632968,4199,1538765828246139880,base_link,-0.0318790015897,0.0367094384726,0.371006451479,-0.927356651643,1.0,0.0,0.0,0.0,1.0,0.0,0.0,0.0,1.0,-0.112720005214,-0.00490992004052,0.0161903891712,1.21846967915e-07,0.0,0.0,0.0,1.21846967915e-07,0.0,0.0,0.0,1.21846967915e-07,0.7256921,0.6276256,10.67944185,9e-08,0.0,0.0,0.0,9e-08,0.0,0.0,0.0,9e-08
1538765828623580808,4200,1538765828623145288,base_link,-0.00724931198624,0.0301445234274,0.373465628658,-0.927125762448,1.0,0.0,0.0,0.0,1.0,0.0,0.0,0.0,1.0,-0.1074257195,-0.0100233983248,-0.0259550623596,1.21846967915e-07,0.0,0.0,0.0,1.21846967915e-07,0.0,0.0,0.0,1.21846967915e-07,0.6472389,0.48052585,9.4732239,9e-08,0.0,0.0,0.0,9e-08,0.0,0.0,0.0,9e-08
1538765829021176968,4201,1538765829020737832,base_link,-0.000688108503476,0.0328757901236,0.375361660233,-0.926294949224,1.0,0.0,0.0,0.0,1.0,0.0,0.0,0.0,1.0,-0.0137675926089,-0.0531920641661,0.00875422544777,1.21846967915e-07,0.0,0.0,0.0,1.21846967915e-07,0.0,0.0,0.0,1.21846967915e-07,0.7649187,0.61781895,10.7480884,9e-08,0.0,0.0,0.0,9e-08,0.0,0.0,0.0,9e-08
1538765829497156424,4202,1538765829495440232,base_link,0.0254013261799,0.045787737719,0.361269672344,-0.930990053409,1.0,0.0,0.0,0.0,1.0,0.0,0.0,0.0,1.0,-0.120164766908,-0.0860443711281,0.12418025732,1.21846967915e-07,0.0,0.0,0.0,1.21846967915e-07,0.0,0.0,0.0,1.21846967915e-07,1.1179581,0.28439285,12.3367657,9e-08,0.0,0.0,0.0,9e-08,0.0,0.0,0.0,9e-08
1538765829828774312,4203,1538765829827620936,base_link,0.0531926559667,0.04435709436,0.338495059867,-0.938415730887,1.0,0.0,0.0,0.0,1.0,0.0,0.0,0.0,1.0,-0.215164378285,-0.0262663308531,0.140475079417,1.21846967915e-07,0.0,0.0,0.0,1.21846967915e-07,0.0,0.0,0.0,1.21846967915e-07,0.77472535,0.6668522,10.4735022,9e-08,0.0,0.0,0.0,9e-08,0.0,0.0,0.0,9e-08
1538765830342489832,4204,1538765830341985000,base_link,0.0929590276128,0.0322028349837,0.313992107588,-0.944314859026,1.0,0.0,0.0,0.0,1.0,0.0,0.0,0.0,1.0,-0.209768891335,0.0071534961462,0.139197960496,1.21846967915e-07,0.0,0.0,0.0,1.21846967915e-07,0.0,0.0,0.0,1.21846967915e-07,0.8629852,0.196133,9.95374975,9e-08,0.0,0.0,0.0,9e-08,0.0,0.0,0.0,9e-08
1538765830747419368,4205,1538765830746739592,base_link,0.141999198662,0.00985404028047,0.278657863904,-0.949783617649,1.0,0.0,0.0,0.0,1.0,0.0,0.0,0.0,1.0,-0.166334018111,0.0236989594996,0.228501558304,1.21846967915e-07,0.0,0.0,0.0,1.21846967915e-07,0.0,0.0,0.0,1.21846967915e-07,0.55897905,0.10787315,8.4729456,9e-08,0.0,0.0,0.0,9e-08,0.0,0.0,0.0,9e-08
1538765831232723208,4206,1538765831232373800,base_link,0.243516153351,-0.0124065342973,0.206753351279,-0.947522565799,1.0,0.0,0.0,0.0,1.0,0.0,0.0,0.0,1.0,-0.196791023016,-0.105544738472,0.411249101162,1.21846967915e-07,0.0,0.0,0.0,1.21846967915e-07,0.0,0.0,0.0,1.21846967915e-07,1.08853815,0.00980665,12.1406327,9e-08,0.0,0.0,0.0,9e-08,0.0,0.0,0.0,9e-08
1538765831486409768,4207,1538765831483397032,base_link,0.251843514546,-0.013787440895,0.15912056003,-0.954497458368,1.0,0.0,0.0,0.0,1.0,0.0,0.0,0.0,1.0,0.0757904723287,-0.12944765389,0.352971225977,1.21846967915e-07,0.0,0.0,0.0,1.21846967915e-07,0.0,0.0,0.0,1.21846967915e-07,0.77472535,0.4707192,10.3165958,9e-08,0.0,0.0,0.0,9e-08,0.0,0.0,0.0,9e-08
1538765831833505320,4208,1538765831833102376,base_link,0.241368307685,-0.00154283613002,0.10805629671,-0.964397633989,1.0,0.0,0.0,0.0,1.0,0.0,0.0,0.0,1.0,0.146336510777,-0.167469710112,0.256416141987,1.21846967915e-07,0.0,0.0,0.0,1.21846967915e-07,0.0,0.0,0.0,1.21846967915e-07,0.8433719,0.42168595,11.20900095,9e-08,0.0,0.0,0.0,9e-08,0.0,0.0,0.0,9e-08
1538765832136515016,4209,1538765832135323432,base_link,0.245862450219,0.0121872882753,0.0619336162342,-0.967247306927,1.0,0.0,0.0,0.0,1.0,0.0,0.0,0.0,1.0,-0.11442514509,-0.201920047402,0.308383256197,1.21846967915e-07,0.0,0.0,0.0,1.21846967915e-07,0.0,0.0,0.0,1.21846967915e-07,0.87279185,0.1176798,11.0422879,9e-08,0.0,0.0,0.0,9e-08,0.0,0.0,0.0,9e-08
1538765832559373800,4210,1538765832559080488,base_link,0.256373747052,0.029196229299,-0.0211307515779,-0.965905571656,1.0,0.0,0.0,0.0,1.0,0.0,0.0,0.0,1.0,-0.101013444364,-0.210650414228,0.375404477119,1.21846967915e-07,0.0,0.0,0.0,1.21846967915e-07,0.0,0.0,0.0,1.21846967915e-07,0.95124505,0.51975245,11.93469305,9e-08,0.0,0.0,0.0,9e-08,0.0,0.0,0.0,9e-08
1538765833030754120,4211,1538765833030365608,base_link,0.273417206355,0.065407044385,-0.0923203125086,-0.955218252397,1.0,0.0,0.0,0.0,1.0,0.0,0.0,0.0,1.0,-0.113670311868,-0.248339354992,0.258454680443,1.21846967915e-07,0.0,0.0,0.0,1.21846967915e-07,0.0,0.0,0.0,1.21846967915e-07,0.9218251,0.14709975,12.7290317,9e-08,0.0,0.0,0.0,9e-08,0.0,0.0,0.0,9e-08
1538765833513496648,4212,1538765833512885448,base_link,0.282929525178,0.10519121535,-0.171662701568,-0.937772685082,1.0,0.0,0.0,0.0,1.0,0.0,0.0,0.0,1.0,-0.0294020958245,-0.27436375618,0.319195091724,1.21846967915e-07,0.0,0.0,0.0,1.21846967915e-07,0.0,0.0,0.0,1.21846967915e-07,1.10815145,0.0196133,13.24878415,9e-08,0.0,0.0,0.0,9e-08,0.0,0.0,0.0,9e-08
1538765833901497832,4213,1538765833901211752,base_link,0.307240508866,0.13899000978,-0.256122183446,-0.905917476396,1.0,0.0,0.0,0.0,1.0,0.0,0.0,0.0,1.0,-0.197211503983,-0.297723829746,0.453470349312,1.21846967915e-07,0.0,0.0,0.0,1.21846967915e-07,0.0,0.0,0.0,1.21846967915e-07,1.38273765,0.1765197,13.8077632,9e-08,0.0,0.0,0.0,9e-08,0.0,0.0,0.0,9e-08
1538765834324758984,4214,1538765834324199016,base_link,0.300184342358,0.169194531499,-0.360380668457,-0.866826594491,1.0,0.0,0.0,0.0,1.0,0.0,0.0,0.0,1.0,0.0341297835112,-0.360405683517,0.4521907866,1.21846967915e-07,0.0,0.0,0.0,1.21846967915e-07,0.0,0.0,0.0,1.21846967915e-07,1.12776475,0.08825985,13.337044,9e-08,0.0,0.0,0.0,9e-08,0.0,0.0,0.0,9e-08
1538765834632603176,4215,1538765834632165736,base_link,0.27996267007,0.197758780698,-0.441574293981,-0.829170978097,1.0,0.0,0.0,0.0,1.0,0.0,0.0,0.0,1.0,-0.13957734406,-0.368504315615,0.362871050835,1.21846967915e-07,0.0,0.0,0.0,1.21846967915e-07,0.0,0.0,0.0,1.21846967915e-07,1.372931,0.8825985,16.7105316,9e-08,0.0,0.0,0.0,9e-08,0.0,0.0,0.0,9e-08
1538765835133265992,4216,1538765835132719496,base_link,0.23871828333,0.236221023397,-0.520281583168,-0.785188056153,1.0,0.0,0.0,0.0,1.0,0.0,0.0,0.0,1.0,0.436606884003,-0.281464934349,0.306624382734,1.21846967915e-07,0.0,0.0,0.0,1.21846967915e-07,0.0,0.0,0.0,1.21846967915e-07,1.01008495,-0.6276256,12.01314625,9e-08,0.0,0.0,0.0,9e-08,0.0,0.0,0.0,9e-08
1538765835502059080,4217,1538765835501741576,base_link,0.180509004539,0.220450218531,-0.607512935882,-0.741448739406,1.0,0.0,0.0,0.0,1.0,0.0,0.0,0.0,1.0,0.3205986619,-0.231776192784,0.437658309937,1.21846967915e-07,0.0,0.0,0.0,1.21846967915e-07,0.0,0.0,0.0,1.21846967915e-07,0.7649187,0.38245935,12.77806495,9e-08,0.0,0.0,0.0,9e-08,0.0,0.0,0.0,9e-08
1538765835847967208,4218,1538765835844423336,base_link,0.124868040261,0.193118957715,-0.668613106069,-0.707155962349,1.0,0.0,0.0,0.0,1.0,0.0,0.0,0.0,1.0,0.365420401096,-0.141105979681,0.195721119642,1.21846967915e-07,0.0,0.0,0.0,1.21846967915e-07,0.0,0.0,0.0,1.21846967915e-07,0.44129925,0.59820565,10.1008495,9e-08,0.0,0.0,0.0,9e-08,0.0,0.0,0.0,9e-08
1538765836282003304,4219,1538765836281472040,base_link,0.0348250298943,0.114726814363,-0.712003799428,-0.691863834117,1.0,0.0,0.0,0.0,1.0,0.0,0.0,0.0,1.0,0.549970269203,8.76514241101e-06,0.144416674972,1.21846967915e-07,0.0,0.0,0.0,1.21846967915e-07,0.0,0.0,0.0,1.21846967915e-07,0.18632635,0.16671305,10.395049,9e-08,0.0,0.0,0.0,9e-08,0.0,0.0,0.0,9e-08
1538765836781392872,4220,1538765836781114632,base_link,-0.0441912989774,0.0133948661096,-0.739950085685,-0.671074941681,1.0,0.0,0.0,0.0,1.0,0.0,0.0,0.0,1.0,0.327923238277,0.0604680366814,0.0629026964307,1.21846967915e-07,0.0,0.0,0.0,1.21846967915e-07,0.0,0.0,0.0,1.21846967915e-07,0.0588399,0.4707192,8.9828914,9e-08,0.0,0.0,0.0,9e-08,0.0,0.0,0.0,9e-08
1538765837051459944,4221,1538765837050414632,base_link,-0.0551023037134,-0.0172782019084,-0.746140139869,-0.663279798834,1.0,0.0,0.0,0.0,1.0,0.0,0.0,0.0,1.0,0.317114800215,0.112370401621,0.0402139425278,1.21846967915e-07,0.0,0.0,0.0,1.21846967915e-07,0.0,0.0,0.0,1.21846967915e-07,0.00980665,0.26477955,8.01203305,9e-08,0.0,0.0,0.0,9e-08,0.0,0.0,0.0,9e-08
1538765837488655368,4222,1538765837488221736,base_link,-0.0644662019085,-0.0606797179885,-0.749681209796,-0.65585071801,1.0,0.0,0.0,0.0,1.0,0.0,0.0,0.0,1.0,0.00822660513222,0.0859393551946,-0.0166675169021,1.21846967915e-07,0.0,0.0,0.0,1.21846967915e-07,0.0,0.0,0.0,1.21846967915e-07,-0.06864655,0.7453054,7.10982125,9e-08,0.0,0.0,0.0,9e-08,0.0,0.0,0.0,9e-08
1538765837791626408,4223,1538765837791348904,base_link,-0.0561363065589,-0.0698332739881,-0.745691927272,-0.66023903136,1.0,0.0,0.0,0.0,1.0,0.0,0.0,0.0,1.0,-0.00877045188099,0.0344974175096,-0.0501360371709,1.21846967915e-07,0.0,0.0,0.0,1.21846967915e-07,0.0,0.0,0.0,1.21846967915e-07,0.0,0.5491724,9.01231135,9e-08,0.0,0.0,0.0,9e-08,0.0,0.0,0.0,9e-08
1538765838099765160,4224,1538765838099486728,base_link,-0.0480520167015,-0.0730372490672,-0.738880739881,-0.668140566177,1.0,0.0,0.0,0.0,1.0,0.0,0.0,0.0,1.0,-0.031907081604,0.0338325724006,-0.0776586011052,1.21846967915e-07,0.0,0.0,0.0,1.21846967915e-07,0.0,0.0,0.0,1.21846967915e-07,0.0784532,0.4511059,8.629852,9e-08,0.0,0.0,0.0,9e-08,0.0,0.0,0.0,9e-08
1538765838501827752,4225,1538765838501400104,base_link,-0.0293766342903,-0.057458067836,-0.7360783447,-0.673813219121,1.0,0.0,0.0,0.0,1.0,0.0,0.0,0.0,1.0,-0.0601580627263,0.00135405780748,0.00910393241793,1.21846967915e-07,0.0,0.0,0.0,1.21846967915e-07,0.0,0.0,0.0,1.21846967915e-07,0.20593965,0.48052585,10.6500219,9e-08,0.0,0.0,0.0,9e-08,0.0,0.0,0.0,9e-08
1538765838967873864,4226,1538765838967676264,base_link,-0.00204794555144,-0.028489285491,-0.739647983284,-0.672387557407,1.0,0.0,0.0,0.0,1.0,0.0,0.0,0.0,1.0,-0.281988233328,-0.0138102602214,0.0297200605273,1.21846967915e-07,0.0,0.0,0.0,1.21846967915e-07,0.0,0.0,0.0,1.21846967915e-07,0.2353596,0.61781895,10.56176205,9e-08,0.0,0.0,0.0,9e-08,0.0,0.0,0.0,9e-08
1538765839243628328,4227,1538765839241357736,base_link,0.0333763625282,0.011264044404,-0.739707814471,-0.672005572104,1.0,0.0,0.0,0.0,1.0,0.0,0.0,0.0,1.0,-0.38569906354,-0.00955060124397,-0.0135726556182,1.21846967915e-07,0.0,0.0,0.0,1.21846967915e-07,0.0,0.0,0.0,1.21846967915e-07,0.1765197,0.51975245,10.34601575,9e-08,0.0,0.0,0.0,9e-08,0.0,0.0,0.0,9e-08
1538765839619199880,4228,1538765839618773320,base_link,0.0655075189589,0.0520403917889,-0.745537681508,-0.661191445826,1.0,0.0,0.0,0.0,1.0,0.0,0.0,0.0,1.0,-0.375686556101,-0.0396448411047,0.163718640804,1.21846967915e-07,0.0,0.0,0.0,1.21846967915e-07,0.0,0.0,0.0,1.21846967915e-07,0.30400615,0.10787315,10.2185293,9e-08,0.0,0.0,0.0,9e-08,0.0,0.0,0.0,9e-08
1538765840054101448,4229,1538765840053216840,base_link,0.109963450462,0.119965549722,-0.771618673085,-0.614915384251,1.0,0.0,0.0,0.0,1.0,0.0,0.0,0.0,1.0,-0.336260348558,-0.102658033371,0.272286355495,1.21846967915e-07,0.0,0.0,0.0,1.21846967915e-07,0.0,0.0,0.0,1.21846967915e-07,0.36284605,0.26477955,11.26784085,9e-08,0.0,0.0,0.0,9e-08,0.0,0.0,0.0,9e-08
1538765840365936680,4230,1538765840365249640,base_link,0.133537424616,0.165954560067,-0.79114700915,-0.573335198757,1.0,0.0,0.0,0.0,1.0,0.0,0.0,0.0,1.0,-0.294307589531,-0.125771149993,0.257497131824,1.21846967915e-07,0.0,0.0,0.0,1.21846967915e-07,0.0,0.0,0.0,1.21846967915e-07,0.36284605,0.2941995,10.67944185,9e-08,0.0,0.0,0.0,9e-08,0.0,0.0,0.0,9e-08
1538765840703888392,4231,1538765840703498952,base_link,0.149256750375,0.213984918954,-0.806981636893,-0.529824041212,1.0,0.0,0.0,0.0,1.0,0.0,0.0,0.0,1.0,-0.240896955132,-0.195693001151,0.249294146895,1.21846967915e-07,0.0,0.0,0.0,1.21846967915e-07,0.0,0.0,0.0,1.21846967915e-07,0.40207265,0.14709975,10.52253545,9e-08,0.0,0.0,0.0,9e-08,0.0,0.0,0.0,9e-08
1538765840944432136,4232,1538765840943747496,base_link,0.152383562796,0.247629768524,-0.821430449638,-0.49062283267,1.0,0.0,0.0,0.0,1.0,0.0,0.0,0.0,1.0,-0.276926755905,-0.24483281374,0.317111641169,1.21846967915e-07,0.0,0.0,0.0,1.21846967915e-07,0.0,0.0,0.0,1.21846967915e-07,0.5687857,0.0980665,11.64049355,9e-08,0.0,0.0,0.0,9e-08,0.0,0.0,0.0,9e-08
1538765841248690632,4233,1538765841245840200,base_link,0.144332389117,0.285932534267,-0.847802745488,-0.422659735535,1.0,0.0,0.0,0.0,1.0,0.0,0.0,0.0,1.0,0.060050599277,-0.331499248743,0.380506485701,1.21846967915e-07,0.0,0.0,0.0,1.21846967915e-07,0.0,0.0,0.0,1.21846967915e-07,0.77472535,0.0392266,12.75845165,9e-08,0.0,0.0,0.0,9e-08,0.0,0.0,0.0,9e-08
1538765841550594888,4234,1538765841550222728,base_link,0.122264380672,0.299032170175,-0.87830778772,-0.352429585095,1.0,0.0,0.0,0.0,1.0,0.0,0.0,0.0,1.0,-0.0960956811905,-0.359083801508,0.490578740835,1.21846967915e-07,0.0,0.0,0.0,1.21846967915e-07,0.0,0.0,0.0,1.21846967915e-07,1.1571847,-0.06864655,13.91563635,9e-08,0.0,0.0,0.0,9e-08,0.0,0.0,0.0,9e-08
1538765842015424808,4235,1538765842014740168,base_link,0.0790230727987,0.330169799002,-0.913159961188,-0.225570705268,1.0,0.0,0.0,0.0,1.0,0.0,0.0,0.0,1.0,0.0151123758405,-0.36984026432,0.38128131628,1.21846967915e-07,0.0,0.0,0.0,1.21846967915e-07,0.0,0.0,0.0,1.21846967915e-07,1.0395049,0.22555295,11.6699135,9e-08,0.0,0.0,0.0,9e-08,0.0,0.0,0.0,9e-08
1538765842452241864,4236,1538765842450574312,base_link,0.0263284042231,0.351373021238,-0.928135663454,-0.120033350789,1.0,0.0,0.0,0.0,1.0,0.0,0.0,0.0,1.0,-0.122759155929,-0.436047643423,0.354311406612,1.21846967915e-07,0.0,0.0,0.0,1.21846967915e-07,0.0,0.0,0.0,1.21846967915e-07,1.57887065,0.2157463,14.79823485,9e-08,0.0,0.0,0.0,9e-08,0.0,0.0,0.0,9e-08
1538765842843240648,4237,1538765842842829800,base_link,-0.0279949344251,0.344204619832,-0.938208997213,-0.0224352597964,1.0,0.0,0.0,0.0,1.0,0.0,0.0,0.0,1.0,0.252567648888,-0.423453420401,0.326824784279,1.21846967915e-07,0.0,0.0,0.0,1.21846967915e-07,0.0,0.0,0.0,1.21846967915e-07,1.61809725,0.06864655,15.05320775,9e-08,0.0,0.0,0.0,9e-08,0.0,0.0,0.0,9e-08
1538765843260973416,4238,1538765843259788232,base_link,-0.0835576717141,0.318591493718,-0.940888988509,0.079028393192,1.0,0.0,0.0,0.0,1.0,0.0,0.0,0.0,1.0,0.28623098135,-0.397681832314,0.345529466867,1.21846967915e-07,0.0,0.0,0.0,1.21846967915e-07,0.0,0.0,0.0,1.21846967915e-07,1.765197,0.2941995,16.32807225,9e-08,0.0,0.0,0.0,9e-08,0.0,0.0,0.0,9e-08
1538765843702493192,4239,1538765843702093288,base_link,-0.122717623455,0.232991554205,-0.947069609319,0.183615020265,1.0,0.0,0.0,0.0,1.0,0.0,0.0,0.0,1.0,0.486431121826,-0.263841360807,0.272243022919,1.21846967915e-07,0.0,0.0,0.0,1.21846967915e-07,0.0,0.0,0.0,1.21846967915e-07,1.10815145,0.28439285,13.140911,9e-08,0.0,0.0,0.0,9e-08,0.0,0.0,0.0,9e-08
1538765844098888584,4240,1538765844098549384,base_link,-0.129192909502,0.140204148822,-0.948698908822,0.252234750158,1.0,0.0,0.0,0.0,1.0,0.0,0.0,0.0,1.0,0.352830410004,-0.156219154596,0.229020610452,1.21846967915e-07,0.0,0.0,0.0,1.21846967915e-07,0.0,0.0,0.0,1.21846967915e-07,0.784532,0.3138128,12.6309652,9e-08,0.0,0.0,0.0,9e-08,0.0,0.0,0.0,9e-08
1538765844510813864,4241,1538765844510464712,base_link,-0.120094903616,0.070998275095,-0.941794358051,0.30587554038,1.0,0.0,0.0,0.0,1.0,0.0,0.0,0.0,1.0,0.44679236412,-0.0433323532343,0.182388707995,1.21846967915e-07,0.0,0.0,0.0,1.21846967915e-07,0.0,0.0,0.0,1.21846967915e-07,0.42168595,0.30400615,11.30706745,9e-08,0.0,0.0,0.0,9e-08,0.0,0.0,0.0,9e-08
1538765844899842536,4242,1538765844899137064,base_link,-0.0910238361778,0.00400608866472,-0.936316221089,0.339132048953,1.0,0.0,0.0,0.0,1.0,0.0,0.0,0.0,1.0,0.339572548866,0.0497934296727,0.121216922998,1.21846967915e-07,0.0,0.0,0.0,1.21846967915e-07,0.0,0.0,0.0,1.21846967915e-07,0.30400615,0.32361945,9.07115125,9e-08,0.0,0.0,0.0,9e-08,0.0,0.0,0.0,9e-08
1538765845251116520,4243,1538765845250726632,base_link,-0.0532527423631,-0.0506159854899,-0.932974450716,0.352364643167,1.0,0.0,0.0,0.0,1.0,0.0,0.0,0.0,1.0,0.394252568483,0.112373657525,-0.016688875854,1.21846967915e-07,0.0,0.0,0.0,1.21846967915e-07,0.0,0.0,0.0,1.21846967915e-07,0.30400615,0.588399,8.4533323,9e-08,0.0,0.0,0.0,9e-08,0.0,0.0,0.0,9e-08
1538765845600832968,4244,1538765845599862280,base_link,-0.0215155890648,-0.0715163279819,-0.934977445177,0.346755924634,1.0,0.0,0.0,0.0,1.0,0.0,0.0,0.0,1.0,0.15681964159,0.112233325839,-0.0807253718376,1.21846967915e-07,0.0,0.0,0.0,1.21846967915e-07,0.0,0.0,0.0,1.21846967915e-07,0.12748645,0.42168595,8.1787461,9e-08,0.0,0.0,0.0,9e-08,0.0,0.0,0.0,9e-08
1538765845967939720,4245,1538765845967506280,base_link,0.00247389832324,-0.0830889230788,-0.936424837083,0.340879209079,1.0,0.0,0.0,0.0,1.0,0.0,0.0,0.0,1.0,0.0472303628922,0.0916757881641,0.015373390168,1.21846967915e-07,0.0,0.0,0.0,1.21846967915e-07,0.0,0.0,0.0,1.21846967915e-07,0.02941995,0.0980665,8.63965865,9e-08,0.0,0.0,0.0,9e-08,0.0,0.0,0.0,9e-08
1538765846317093096,4246,1538765846316702792,base_link,0.0172019520461,-0.0792670283443,-0.934980836372,0.345299387025,1.0,0.0,0.0,0.0,1.0,0.0,0.0,0.0,1.0,0.00654354318976,0.0836163982749,-0.000264334026724,1.21846967915e-07,0.0,0.0,0.0,1.21846967915e-07,0.0,0.0,0.0,1.21846967915e-07,0.0,0.65704555,8.0022264,9e-08,0.0,0.0,0.0,9e-08,0.0,0.0,0.0,9e-08
1538765846709428264,4247,1538765846709019560,base_link,0.0270766654794,-0.0636622341388,-0.937677989703,0.340549499718,1.0,0.0,0.0,0.0,1.0,0.0,0.0,0.0,1.0,-0.226106092334,0.0482491701841,-0.0189328994602,1.21846967915e-07,0.0,0.0,0.0,1.21846967915e-07,0.0,0.0,0.0,1.21846967915e-07,-0.08825985,0.6080123,8.50236555,9e-08,0.0,0.0,0.0,9e-08,0.0,0.0,0.0,9e-08
1538765847178709000,4248,1538765847178171592,base_link,0.0258140291097,-0.028221370268,-0.9437800701,0.328354030649,1.0,0.0,0.0,0.0,1.0,0.0,0.0,0.0,1.0,0.0923291668296,0.00497540971264,-0.0297012459487,1.21846967915e-07,0.0,0.0,0.0,1.21846967915e-07,0.0,0.0,0.0,1.21846967915e-07,0.1765197,0.38245935,9.58109705,9e-08,0.0,0.0,0.0,9e-08,0.0,0.0,0.0,9e-08
1538765847405454184,4249,1538765847404046184,base_link,0.0299292018337,-0.0373189126135,-0.94223523936,0.331518167448,1.0,0.0,0.0,0.0,1.0,0.0,0.0,0.0,1.0,-0.0620239190757,0.0222611352801,0.0662095919251,1.21846967915e-07,0.0,0.0,0.0,1.21846967915e-07,0.0,0.0,0.0,1.21846967915e-07,0.1569064,0.5295591,9.8654899,9e-08,0.0,0.0,0.0,9e-08,0.0,0.0,0.0,9e-08
1538765847860156616,4250,1538765847859543176,base_link,0.0134033627177,0.0165376784386,-0.94077816864,0.338353797776,1.0,0.0,0.0,0.0,1.0,0.0,0.0,0.0,1.0,-0.229138091207,0.00636497186497,-0.0385911986232,1.21846967915e-07,0.0,0.0,0.0,1.21846967915e-07,0.0,0.0,0.0,1.21846967915e-07,0.18632635,0.79433865,9.18883105,9e-08,0.0,0.0,0.0,9e-08,0.0,0.0,0.0,9e-08
1538765848302524680,4251,1538765848302032936,base_link,0.00698427216955,0.0227066704916,-0.944468705952,0.327741499561,1.0,0.0,0.0,0.0,1.0,0.0,0.0,0.0,1.0,0.0370840504766,-0.0397018864751,0.00739485537633,1.21846967915e-07,0.0,0.0,0.0,1.21846967915e-07,0.0,0.0,0.0,1.21846967915e-07,0.2549729,0.30400615,10.87557485,9e-08,0.0,0.0,0.0,9e-08,0.0,0.0,0.0,9e-08
1538765848620033448,4252,1538765848619696520,base_link,0.0077470751428,0.00102994671481,-0.941841836773,0.335965588329,1.0,0.0,0.0,0.0,1.0,0.0,0.0,0.0,1.0,0.306180566549,-0.0609832815826,0.0920193642378,1.21846967915e-07,0.0,0.0,0.0,1.21846967915e-07,0.0,0.0,0.0,1.21846967915e-07,0.2941995,0.46091255,10.5715687,9e-08,0.0,0.0,0.0,9e-08,0.0,0.0,0.0,9e-08
1538765849007265864,4253,1538765849006987528,base_link,0.0107691749984,-0.0350946505979,-0.936606430228,0.348454853927,1.0,0.0,0.0,0.0,1.0,0.0,0.0,0.0,1.0,-0.0505107715726,-0.0465465225279,0.0633249133825,1.21846967915e-07,0.0,0.0,0.0,1.21846967915e-07,0.0,0.0,0.0,1.21846967915e-07,0.2745862,0.5687857,10.1008495,9e-08,0.0,0.0,0.0,9e-08,0.0,0.0,0.0,9e-08
1538765849403640680,4254,1538765849403341224,base_link,-0.00665625468878,-0.0117489005946,-0.937180568173,0.348583189852,1.0,0.0,0.0,0.0,1.0,0.0,0.0,0.0,1.0,-0.00500902719796,-0.0436047464609,-0.0139210149646,1.21846967915e-07,0.0,0.0,0.0,1.21846967915e-07,0.0,0.0,0.0,1.21846967915e-07,0.1765197,0.20593965,11.26784085,9e-08,0.0,0.0,0.0,9e-08,0.0,0.0,0.0,9e-08
1538765849857412520,4255,1538765849856927976,base_link,-0.0222588225223,-0.0101711457103,-0.933187758167,0.358555017567,1.0,0.0,0.0,0.0,1.0,0.0,0.0,0.0,1.0,0.0363367088139,-0.0369033701718,0.0647006556392,1.21846967915e-07,0.0,0.0,0.0,1.21846967915e-07,0.0,0.0,0.0,1.21846967915e-07,0.20593965,0.55897905,11.44436055,9e-08,0.0,0.0,0.0,9e-08,0.0,0.0,0.0,9e-08
1538765850316768200,4256,1538765850313406312,base_link,-0.0170672622292,-0.0347456089245,-0.931303304133,0.362181731914,1.0,0.0,0.0,0.0,1.0,0.0,0.0,0.0,1.0,0.146443873644,-0.00838210247457,0.0150583274662,1.21846967915e-07,0.0,0.0,0.0,1.21846967915e-07,0.0,0.0,0.0,1.21846967915e-07,0.2941995,0.4903325,10.2381426,9e-08,0.0,0.0,0.0,9e-08,0.0,0.0,0.0,9e-08
1538765850604612328,4257,1538765850604203816,base_link,-0.013351872868,-0.0450587299004,-0.929663884556,0.365399097021,1.0,0.0,0.0,0.0,1.0,0.0,0.0,0.0,1.0,0.11547101289,0.0226085968316,0.0344284102321,1.21846967915e-07,0.0,0.0,0.0,1.21846967915e-07,0.0,0.0,0.0,1.21846967915e-07,0.2745862,0.50013915,9.54187045,9e-08,0.0,0.0,0.0,9e-08,0.0,0.0,0.0,9e-08
1538765851119665480,4258,1538765851119369448,base_link,-0.000525445293067,-0.0511815523579,-0.926463658773,0.37288773321,1.0,0.0,0.0,0.0,1.0,0.0,0.0,0.0,1.0,0.0460755005479,0.036818344146,0.0285509359092,1.21846967915e-07,0.0,0.0,0.0,1.21846967915e-07,0.0,0.0,0.0,1.21846967915e-07,0.28439285,0.71588545,9.7478101,9e-08,0.0,0.0,0.0,9e-08,0.0,0.0,0.0,9e-08
1538765851484697960,4259,1538765851481014600,base_link,0.0102347532845,-0.06033217843,-0.926815916559,0.370496335857,1.0,0.0,0.0,0.0,1.0,0.0,0.0,0.0,1.0,0.219520807266,0.0294167939574,-0.0313735231757,1.21846967915e-07,0.0,0.0,0.0,1.21846967915e-07,0.0,0.0,0.0,1.21846967915e-07,0.18632635,0.4314926,9.09076455,9e-08,0.0,0.0,0.0,9e-08,0.0,0.0,0.0,9e-08
1538765851797770024,4260,1538765851797352456,base_link,0.0184307508829,-0.0740614954087,-0.927116974353,0.366918680617,1.0,0.0,0.0,0.0,1.0,0.0,0.0,0.0,1.0,0.136589661241,0.00449243094772,-0.0438861884177,1.21846967915e-07,0.0,0.0,0.0,1.21846967915e-07,0.0,0.0,0.0,1.21846967915e-07,0.24516625,0.4903325,9.1005712,9e-08,0.0,0.0,0.0,9e-08,0.0,0.0,0.0,9e-08
1538765852190759336,4261,1538765852190477992,base_link,0.0209862688702,-0.0897606951022,-0.928249318114,0.360355099249,1.0,0.0,0.0,0.0,1.0,0.0,0.0,0.0,1.0,-0.0498907230794,-0.0265088826418,-0.0483242161572,1.21846967915e-07,0.0,0.0,0.0,1.21846967915e-07,0.0,0.0,0.0,1.21846967915e-07,0.34323275,0.588399,10.20872265,9e-08,0.0,0.0,0.0,9e-08,0.0,0.0,0.0,9e-08
1538765852718783336,4262,1538765852718367176,base_link,0.00490409946616,-0.0584709253497,-0.933511396973,0.353713969781,1.0,0.0,0.0,0.0,1.0,0.0,0.0,0.0,1.0,-0.218662664294,-0.0337601527572,-0.0343803279102,1.21846967915e-07,0.0,0.0,0.0,1.21846967915e-07,0.0,0.0,0.0,1.21846967915e-07,0.48052585,0.69627215,10.62060195,9e-08,0.0,0.0,0.0,9e-08,0.0,0.0,0.0,9e-08
1538765853198399848,4263,1538765853198040232,base_link,-0.0146206549888,-0.0361208840996,-0.936878655785,0.347476477643,1.0,0.0,0.0,0.0,1.0,0.0,0.0,0.0,1.0,0.023493597284,-0.0410171709955,0.0247381590307,1.21846967915e-07,0.0,0.0,0.0,1.21846967915e-07,0.0,0.0,0.0,1.21846967915e-07,0.6864655,0.4314926,12.09159945,9e-08,0.0,0.0,0.0,9e-08,0.0,0.0,0.0,9e-08
1538765853602358280,4264,1538765853602034728,base_link,-0.00740265467826,-0.0598296608262,-0.931517240285,0.358665921773,1.0,0.0,0.0,0.0,1.0,0.0,0.0,0.0,1.0,0.0206384155899,0.0139566687867,0.0507419444621,1.21846967915e-07,0.0,0.0,0.0,1.21846967915e-07,0.0,0.0,0.0,1.21846967915e-07,0.4314926,0.63743225,9.44380395,9e-08,0.0,0.0,0.0,9e-08,0.0,0.0,0.0,9e-08
1538765854054198056,4265,1538765854053689768,base_link,-0.00546277961157,-0.0429069490881,-0.933941692173,0.354798629337,1.0,0.0,0.0,0.0,1.0,0.0,0.0,0.0,1.0,-0.0369526222348,0.0458870902658,-0.0642478242517,1.21846967915e-07,0.0,0.0,0.0,1.21846967915e-07,0.0,0.0,0.0,1.21846967915e-07,0.50013915,0.7060788,9.14960445,9e-08,0.0,0.0,0.0,9e-08,0.0,0.0,0.0,9e-08
1538765854342621288,4266,1538765854342039432,base_link,-0.0016370800523,-0.0353208342766,-0.936384378041,0.349190571458,1.0,0.0,0.0,0.0,1.0,0.0,0.0,0.0,1.0,-0.117855414748,0.0275565609336,-0.0132903307676,1.21846967915e-07,0.0,0.0,0.0,1.21846967915e-07,0.0,0.0,0.0,1.21846967915e-07,0.50013915,0.4903325,8.9436648,9e-08,0.0,0.0,0.0,9e-08,0.0,0.0,0.0,9e-08
1538765854606874344,4267,1538765854606475880,base_link,0.000584204406608,-0.0339293481984,-0.937496699594,0.346335669958,1.0,0.0,0.0,0.0,1.0,0.0,0.0,0.0,1.0,0.132653579116,0.00722510926425,-0.0342504121363,1.21846967915e-07,0.0,0.0,0.0,1.21846967915e-07,0.0,0.0,0.0,1.21846967915e-07,0.588399,0.5099458,8.9436648,9e-08,0.0,0.0,0.0,9e-08,0.0,0.0,0.0,9e-08
1538765855057710728,4268,1538765855057399112,base_link,0.00845560558713,-0.0655219584194,-0.936193615933,0.345220059071,1.0,0.0,0.0,0.0,1.0,0.0,0.0,0.0,1.0,0.144229874015,-0.0387097969651,0.0383899286389,1.21846967915e-07,0.0,0.0,0.0,1.21846967915e-07,0.0,0.0,0.0,1.21846967915e-07,0.59820565,0.32361945,9.6497436,9e-08,0.0,0.0,0.0,9e-08,0.0,0.0,0.0,9e-08
1538765855401696424,4269,1538765855400423528,base_link,0.00585602610259,-0.0856770585055,-0.929689099371,0.358194538087,1.0,0.0,0.0,0.0,1.0,0.0,0.0,0.0,1.0,0.0573728084564,-0.060653693974,0.0988726913929,1.21846967915e-07,0.0,0.0,0.0,1.21846967915e-07,0.0,0.0,0.0,1.21846967915e-07,0.91201845,0.63743225,10.7677017,9e-08,0.0,0.0,0.0,9e-08,0.0,0.0,0.0,9e-08
1538765855749202376,4270,1538765855748730472,base_link,0.00204400866571,-0.0914673548729,-0.926194443882,0.365777797499,1.0,0.0,0.0,0.0,1.0,0.0,0.0,0.0,1.0,-0.041298635304,0.00193450786173,0.0080019403249,1.21846967915e-07,0.0,0.0,0.0,1.21846967915e-07,0.0,0.0,0.0,1.21846967915e-07,0.87279185,0.784532,10.1008495,9e-08,0.0,0.0,0.0,9e-08,0.0,0.0,0.0,9e-08
1538765856146703784,4271,1538765856146329480,base_link,0.00224706312079,-0.0832389406983,-0.93017886303,0.357538126961,1.0,0.0,0.0,0.0,1.0,0.0,0.0,0.0,1.0,0.0664450526237,0.0250389315188,-0.0905114039779,1.21846967915e-07,0.0,0.0,0.0,1.21846967915e-07,0.0,0.0,0.0,1.21846967915e-07,0.87279185,0.71588545,9.54187045,9e-08,0.0,0.0,0.0,9e-08,0.0,0.0,0.0,9e-08
1538765856494115752,4272,1538765856493848328,base_link,0.00295601631001,-0.0805892719256,-0.934220856281,0.347459383106,1.0,0.0,0.0,0.0,1.0,0.0,0.0,0.0,1.0,-0.00567345367745,-0.0107039287686,-0.0345913991332,1.21846967915e-07,0.0,0.0,0.0,1.21846967915e-07,0.0,0.0,0.0,1.21846967915e-07,0.87279185,0.7060788,9.20844435,9e-08,0.0,0.0,0.0,9e-08,0.0,0.0,0.0,9e-08
1538765856812434632,4273,1538765856810865416,base_link,-0.00188515648314,-0.0756199303359,-0.937044730182,0.340918239407,1.0,0.0,0.0,0.0,1.0,0.0,0.0,0.0,1.0,-0.0512200295925,-0.0370440818369,-0.0291776023805,1.21846967915e-07,0.0,0.0,0.0,1.21846967915e-07,0.0,0.0,0.0,1.21846967915e-07,0.9414384,0.59820565,9.79684335,9e-08,0.0,0.0,0.0,9e-08,0.0,0.0,0.0,9e-08
1538765857150187912,4274,1538765857149374440,base_link,-0.0148092681562,-0.0645194984921,-0.93785943094,0.340642932832,1.0,0.0,0.0,0.0,1.0,0.0,0.0,0.0,1.0,-0.0137614225969,-0.0507845468819,-0.0113940890878,1.21846967915e-07,0.0,0.0,0.0,1.21846967915e-07,0.0,0.0,0.0,1.21846967915e-07,1.10815145,0.6276256,11.44436055,9e-08,0.0,0.0,0.0,9e-08,0.0,0.0,0.0,9e-08
1538765857573974760,4275,1538765857573459464,base_link,-0.0158925421743,-0.0996050161713,-0.933748291407,0.343424513033,1.0,0.0,0.0,0.0,1.0,0.0,0.0,0.0,1.0,0.138201788068,-0.0356828309596,0.0621510967612,1.21846967915e-07,0.0,0.0,0.0,1.21846967915e-07,0.0,0.0,0.0,1.21846967915e-07,1.1964113,0.5295591,11.01286795,9e-08,0.0,0.0,0.0,9e-08,0.0,0.0,0.0,9e-08
1538765858054580072,4276,1538765858054218088,base_link,-0.0334378438895,-0.0743817757014,-0.937259496545,0.33896002445,1.0,0.0,0.0,0.0,1.0,0.0,0.0,0.0,1.0,-0.2452878654,-0.00851460918784,-0.0860559418797,1.21846967915e-07,0.0,0.0,0.0,1.21846967915e-07,0.0,0.0,0.0,1.21846967915e-07,1.176798,0.91201845,9.9243298,9e-08,0.0,0.0,0.0,9e-08,0.0,0.0,0.0,9e-08
1538765858477806824,4277,1538765858477574152,base_link,-0.0434354131663,-0.0537749283002,-0.940966708183,0.331365773821,1.0,0.0,0.0,0.0,1.0,0.0,0.0,0.0,1.0,0.0324396044016,-0.00664979685098,0.0154965734109,1.21846967915e-07,0.0,0.0,0.0,1.21846967915e-07,0.0,0.0,0.0,1.21846967915e-07,1.08853815,0.53936575,10.1204628,9e-08,0.0,0.0,0.0,9e-08,0.0,0.0,0.0,9e-08
1538765858927556104,4278,1538765858927215720,base_link,-0.0462551165526,-0.04729934055,-0.938630539425,0.338520231352,1.0,0.0,0.0,0.0,1.0,0.0,0.0,0.0,1.0,-0.134699419141,0.0485195927322,0.0266154147685,1.21846967915e-07,0.0,0.0,0.0,1.21846967915e-07,0.0,0.0,0.0,1.21846967915e-07,1.08853815,0.53936575,10.22833595,9e-08,0.0,0.0,0.0,9e-08,0.0,0.0,0.0,9e-08
1538765859377870472,4279,1538765859377537352,base_link,-0.0313951125222,-0.0404833292532,-0.938074376243,0.342625030608,1.0,0.0,0.0,0.0,1.0,0.0,0.0,0.0,1.0,0.0325904227793,0.0756068378687,0.024229189381,1.21846967915e-07,0.0,0.0,0.0,1.21846967915e-07,0.0,0.0,0.0,1.21846967915e-07,0.8433719,0.4511059,8.0806796,9e-08,0.0,0.0,0.0,9e-08,0.0,0.0,0.0,9e-08
1538765859807262600,4280,1538765859800928168,base_link,-0.0237195394885,-0.0391011987498,-0.933845025524,0.354742086601,1.0,0.0,0.0,0.0,1.0,0.0,0.0,0.0,1.0,0.0188715532422,0.0114238914102,0.0708920881152,1.21846967915e-07,0.0,0.0,0.0,1.21846967915e-07,0.0,0.0,0.0,1.21846967915e-07,0.99047165,0.63743225,9.36535075,9e-08,0.0,0.0,0.0,9e-08,0.0,0.0,0.0,9e-08
1538765860159557608,4281,1538765860158270664,base_link,-0.0222066287169,-0.0418275554648,-0.93056882056,0.363041308181,1.0,0.0,0.0,0.0,1.0,0.0,0.0,0.0,1.0,0.035138387233,0.00524582900107,0.0309839621186,1.21846967915e-07,0.0,0.0,0.0,1.21846967915e-07,0.0,0.0,0.0,1.21846967915e-07,1.1375714,0.6472389,10.07142955,9e-08,0.0,0.0,0.0,9e-08,0.0,0.0,0.0,9e-08
1538765860567234472,4282,1538765860566832520,base_link,-0.00818942870351,-0.065168276434,-0.928466095589,0.365563590018,1.0,0.0,0.0,0.0,1.0,0.0,0.0,0.0,1.0,0.170686468482,-0.00674739293754,-0.00593673437834,1.21846967915e-07,0.0,0.0,0.0,1.21846967915e-07,0.0,0.0,0.0,1.21846967915e-07,1.06892485,0.7453054,9.14960445,9e-08,0.0,0.0,0.0,9e-08,0.0,0.0,0.0,9e-08
1538765860948824424,4283,1538765860946948296,base_link,-0.0131514230933,-0.0608469195812,-0.930648462989,0.360580269543,1.0,0.0,0.0,0.0,1.0,0.0,0.0,0.0,1.0,-0.0294600427151,-0.0198583379388,-0.0393170416355,1.21846967915e-07,0.0,0.0,0.0,1.21846967915e-07,0.0,0.0,0.0,1.21846967915e-07,1.2748645,0.6668522,10.11065615,9e-08,0.0,0.0,0.0,9e-08,0.0,0.0,0.0,9e-08
1538765861360913192,4284,1538765861358722600,base_link,-0.0219020934639,-0.0672667637916,-0.928731627732,0.363940990328,1.0,0.0,0.0,0.0,1.0,0.0,0.0,0.0,1.0,0.0635071247816,-0.070146754384,0.0859678983688,1.21846967915e-07,0.0,0.0,0.0,1.21846967915e-07,0.0,0.0,0.0,1.21846967915e-07,1.3533177,0.57859235,11.4149406,9e-08,0.0,0.0,0.0,9e-08,0.0,0.0,0.0,9e-08
1538765861851021096,4285,1538765861850788520,base_link,-0.0354459587652,-0.068517485004,-0.924005564672,0.374516561331,1.0,0.0,0.0,0.0,1.0,0.0,0.0,0.0,1.0,-0.0270316153765,-0.0334462076426,-0.0565326549113,1.21846967915e-07,0.0,0.0,0.0,1.21846967915e-07,0.0,0.0,0.0,1.21846967915e-07,1.5886773,0.8433719,11.1011278,9e-08,0.0,0.0,0.0,9e-08,0.0,0.0,0.0,9e-08
1538765862176565736,4286,1538765862175938824,base_link,-0.0418309856858,-0.0686889968893,-0.923691963961,0.37459998139,1.0,0.0,0.0,0.0,1.0,0.0,0.0,0.0,1.0,-0.0430431142449,-0.0299997124821,0.0961250141263,1.21846967915e-07,0.0,0.0,0.0,1.21846967915e-07,0.0,0.0,0.0,1.21846967915e-07,1.44157755,1.40393188809e-15,11.46397385,9e-08,0.0,0.0,0.0,9e-08,0.0,0.0,0.0,9e-08
1538765862596849576,4287,1538765862596588712,base_link,-0.0516347176579,-0.0795469556497,-0.904198012211,0.416451788917,1.0,0.0,0.0,0.0,1.0,0.0,0.0,0.0,1.0,-0.235840559006,0.0153350681067,0.21250320971,1.21846967915e-07,0.0,0.0,0.0,1.21846967915e-07,0.0,0.0,0.0,1.21846967915e-07,1.569064,1.55925735,10.7088618,9e-08,0.0,0.0,0.0,9e-08,0.0,0.0,0.0,9e-08
1538765862836033096,4288,1538765862835834248,base_link,-0.0425033618304,-0.0625519823093,-0.905313030706,0.417958167974,1.0,0.0,0.0,0.0,1.0,0.0,0.0,0.0,1.0,0.171596243978,0.179589241743,-0.163712665439,1.21846967915e-07,0.0,0.0,0.0,1.21846967915e-07,0.0,0.0,0.0,1.21846967915e-07,1.30428445,1.30428445,8.67888525,9e-08,0.0,0.0,0.0,9e-08,0.0,0.0,0.0,9e-08
1538765863344241512,4289,1538765863343889256,base_link,-0.012234684692,-0.0783843442827,-0.922208962901,0.378466426261,1.0,0.0,0.0,0.0,1.0,0.0,0.0,0.0,1.0,0.141034513712,0.0188990216702,-0.0930793955922,1.21846967915e-07,0.0,0.0,0.0,1.21846967915e-07,0.0,0.0,0.0,1.21846967915e-07,0.95124505,0.1372931,7.7472535,9e-08,0.0,0.0,0.0,9e-08,0.0,0.0,0.0,9e-08
1538765863699386184,4290,1538765863699188232,base_link,-0.0127337762225,-0.100815076406,-0.917574003256,0.384359362916,1.0,0.0,0.0,0.0,1.0,0.0,0.0,0.0,1.0,0.0902468934655,-0.046654433012,0.104921199381,1.21846967915e-07,0.0,0.0,0.0,1.21846967915e-07,0.0,0.0,0.0,1.21846967915e-07,1.372931,0.6864655,10.9246081,9e-08,0.0,0.0,0.0,9e-08,0.0,0.0,0.0,9e-08
1538765864033431688,4291,1538765864033240616,base_link,-0.00684052755196,-0.122747467362,-0.911159836821,0.393286178505,1.0,0.0,0.0,0.0,1.0,0.0,0.0,0.0,1.0,0.0993567109108,0.0302322525531,0.0284547712654,1.21846967915e-07,0.0,0.0,0.0,1.21846967915e-07,0.0,0.0,0.0,1.21846967915e-07,1.3337044,0.79433865,9.7674234,9e-08,0.0,0.0,0.0,9e-08,0.0,0.0,0.0,9e-08
1538765864499422120,4292,1538765864498907720,base_link,0.0090468333331,-0.133209787977,-0.915914026583,0.378516582335,1.0,0.0,0.0,0.0,1.0,0.0,0.0,0.0,1.0,0.0714030116796,0.083047196269,-0.200300231576,1.21846967915e-07,0.0,0.0,0.0,1.21846967915e-07,0.0,0.0,0.0,1.21846967915e-07,1.2552512,1.01008495,10.05181625,9e-08,0.0,0.0,0.0,9e-08,0.0,0.0,0.0,9e-08
1538765864905236136,4293,1538765864904713096,base_link,0.0110752781181,-0.0675024490264,-0.936711735645,0.343353872695,1.0,0.0,0.0,0.0,1.0,0.0,0.0,0.0,1.0,-0.0635053068399,0.146069824696,-0.230043113232,1.21846967915e-07,0.0,0.0,0.0,1.21846967915e-07,0.0,0.0,0.0,1.21846967915e-07,0.85317855,1.1375714,8.63965865,9e-08,0.0,0.0,0.0,9e-08,0.0,0.0,0.0,9e-08
1538765865259025320,4294,1538765865258765992,base_link,0.021301079734,-0.0601963541072,-0.949919729255,0.30590058994,1.0,0.0,0.0,0.0,1.0,0.0,0.0,0.0,1.0,-0.0102678416297,-0.01971632801,-0.104292422533,1.21846967915e-07,0.0,0.0,0.0,1.21846967915e-07,0.0,0.0,0.0,1.21846967915e-07,0.8041453,0.4118793,9.2574776,9e-08,0.0,0.0,0.0,9e-08,0.0,0.0,0.0,9e-08
1538765865663888776,4295,1538765865663291112,base_link,0.00246505616009,-0.033497680599,-0.951314708886,0.306385628823,1.0,0.0,0.0,0.0,1.0,0.0,0.0,0.0,1.0,-0.168539047241,-0.0669536739588,0.0518147423863,1.21846967915e-07,0.0,0.0,0.0,1.21846967915e-07,0.0,0.0,0.0,1.21846967915e-07,0.7649187,0.55897905,10.14988275,9e-08,0.0,0.0,0.0,9e-08,0.0,0.0,0.0,9e-08
1538765866059763720,4296,1538765866059473704,base_link,-0.00819735880882,-0.0215711898966,-0.946338786377,0.322351343218,1.0,0.0,0.0,0.0,1.0,0.0,0.0,0.0,1.0,-0.0155188348144,0.00789116509259,0.0833416059613,1.21846967915e-07,0.0,0.0,0.0,1.21846967915e-07,0.0,0.0,0.0,1.21846967915e-07,0.8041453,0.588399,10.32640245,9e-08,0.0,0.0,0.0,9e-08,0.0,0.0,0.0,9e-08
1538765866371986120,4297,1538765866371421288,base_link,-0.00743687593086,-0.0188728620402,-0.94275895329,0.332857422851,1.0,0.0,0.0,0.0,1.0,0.0,0.0,0.0,1.0,-0.0349209979177,0.026564611122,0.0434195958078,1.21846967915e-07,0.0,0.0,0.0,1.21846967915e-07,0.0,0.0,0.0,1.21846967915e-07,0.63743225,0.784532,9.89490985,9e-08,0.0,0.0,0.0,9e-08,0.0,0.0,0.0,9e-08
1538765866937367496,4298,1538765866936991016,base_link,0.0231489117763,-0.0628711608713,-0.943088148341,0.325723946728,1.0,0.0,0.0,0.0,1.0,0.0,0.0,0.0,1.0,0.315598756075,0.0523824281991,-0.0106834433973,1.21846967915e-07,0.0,0.0,0.0,1.21846967915e-07,0.0,0.0,0.0,1.21846967915e-07,0.5295591,0.3138128,9.48303055,9e-08,0.0,0.0,0.0,9e-08,0.0,0.0,0.0,9e-08
1538765867338496232,4299,1538765867337957480,base_link,0.0406037083858,-0.0822542689154,-0.939689085287,0.32949961624,1.0,0.0,0.0,0.0,1.0,0.0,0.0,0.0,1.0,0.276159107685,0.0545316524804,0.00218612793833,1.21846967915e-07,0.0,0.0,0.0,1.21846967915e-07,0.0,0.0,0.0,1.21846967915e-07,0.20593965,0.46091255,8.20816605,9e-08,0.0,0.0,0.0,9e-08,0.0,0.0,0.0,9e-08
1538765867697171816,4300,1538765867696936328,base_link,0.0674629351382,-0.138090752333,-0.935423227308,0.318375693662,1.0,0.0,0.0,0.0,1.0,0.0,0.0,0.0,1.0,0.280581861734,-0.00872676912695,-0.0805291235447,1.21846967915e-07,0.0,0.0,0.0,1.21846967915e-07,0.0,0.0,0.0,1.21846967915e-07,0.2745862,0.7060788,9.87529655,9e-08,0.0,0.0,0.0,9e-08,0.0,0.0,0.0,9e-08
1538765868060447816,4301,1538765868060138408,base_link,0.0795678290272,-0.171646096408,-0.937490979773,0.292091151895,1.0,0.0,0.0,0.0,1.0,0.0,0.0,0.0,1.0,0.223128005862,-0.0312368609011,-0.169120892882,1.21846967915e-07,0.0,0.0,0.0,1.21846967915e-07,0.0,0.0,0.0,1.21846967915e-07,0.22555295,0.77472535,9.24767095,9e-08,0.0,0.0,0.0,9e-08,0.0,0.0,0.0,9e-08
1538765868454434984,4302,1538765868453731624,base_link,0.0862549465826,-0.198569949461,-0.94389092471,0.249399241402,1.0,0.0,0.0,0.0,1.0,0.0,0.0,0.0,1.0,0.209374725819,-0.0727177932858,-0.289842367172,1.21846967915e-07,0.0,0.0,0.0,1.21846967915e-07,0.0,0.0,0.0,1.21846967915e-07,0.06864655,1.0983448,8.1983594,9e-08,0.0,0.0,0.0,9e-08,0.0,0.0,0.0,9e-08
1538765868919817000,4303,1538765868919473448,base_link,0.0766810600168,-0.257259166235,-0.94833778085,0.169095209382,1.0,0.0,0.0,0.0,1.0,0.0,0.0,0.0,1.0,0.108796007931,-0.233673334122,-0.218547821045,1.21846967915e-07,0.0,0.0,0.0,1.21846967915e-07,0.0,0.0,0.0,1.21846967915e-07,0.2941995,0.7453054,11.93469305,9e-08,0.0,0.0,0.0,9e-08,0.0,0.0,0.0,9e-08
1538765869221437896,4304,1538765869220995368,base_link,0.0505187201134,-0.264547679772,-0.955070436933,0.123704666612,1.0,0.0,0.0,0.0,1.0,0.0,0.0,0.0,1.0,-0.0096338596195,-0.263075441122,-0.23312625289,1.21846967915e-07,0.0,0.0,0.0,1.21846967915e-07,0.0,0.0,0.0,1.21846967915e-07,0.42168595,0.7453054,12.89574475,9e-08,0.0,0.0,0.0,9e-08,0.0,0.0,0.0,9e-08
1538765869619590376,4305,1538765869618864232,base_link,0.0158655731897,-0.283286288878,-0.956720527349,0.064676074947,1.0,0.0,0.0,0.0,1.0,0.0,0.0,0.0,1.0,0.0954531729221,-0.257119894028,-0.278552234173,1.21846967915e-07,0.0,0.0,0.0,1.21846967915e-07,0.0,0.0,0.0,1.21846967915e-07,0.48052585,0.980665,12.87613145,9e-08,0.0,0.0,0.0,9e-08,0.0,0.0,0.0,9e-08
1538765869906306216,4306,1538765869904408232,base_link,-0.00946707993545,-0.302034002006,-0.95313241185,0.0149813721302,1.0,0.0,0.0,0.0,1.0,0.0,0.0,0.0,1.0,0.126559764147,-0.265670537949,-0.189200744033,1.21846967915e-07,0.0,0.0,0.0,1.21846967915e-07,0.0,0.0,0.0,1.21846967915e-07,0.7060788,0.4511059,13.1801376,9e-08,0.0,0.0,0.0,9e-08,0.0,0.0,0.0,9e-08
1538765870298127688,4307,1538765870297908808,base_link,-0.0465901343042,-0.329812415156,-0.942525152425,-0.0264474429996,1.0,0.0,0.0,0.0,1.0,0.0,0.0,0.0,1.0,-0.0342001803219,-0.182673648,-0.130782842636,1.21846967915e-07,0.0,0.0,0.0,1.21846967915e-07,0.0,0.0,0.0,1.21846967915e-07,0.7256921,1.3533177,12.160246,9e-08,0.0,0.0,0.0,9e-08,0.0,0.0,0.0,9e-08
