%time,field.header.seq,field.header.stamp,field.header.frame_id,field.orientation.x,field.orientation.y,field.orientation.z,field.orientation.w,field.orientation_covariance0,field.orientation_covariance1,field.orientation_covariance2,field.orientation_covariance3,field.orientation_covariance4,field.orientation_covariance5,field.orientation_covariance6,field.orientation_covariance7,field.orientation_covariance8,field.angular_velocity.x,field.angular_velocity.y,field.angular_velocity.z,field.angular_velocity_covariance0,field.angular_velocity_covariance1,field.angular_velocity_covariance2,field.angular_velocity_covariance3,field.angular_velocity_covariance4,field.angular_velocity_covariance5,field.angular_velocity_covariance6,field.angular_velocity_covariance7,field.angular_velocity_covariance8,field.linear_acceleration.x,field.linear_acceleration.y,field.linear_acceleration.z,field.linear_acceleration_covariance0,field.linear_acceleration_covariance1,field.linear_acceleration_covariance2,field.linear_acceleration_covariance3,field.linear_acceleration_covariance4,field.linear_acceleration_covariance5,field.linear_acceleration_covariance6,field.linear_acceleration_covariance7,field.linear_acceleration_covariance8
1536690269482128995,4604,1536690269481626645,base_link,0.0200975792466,0.0214761704897,-0.97532659563,-0.218798750605,1.0,0.0,0.0,0.0,1.0,0.0,0.0,0.0,1.0,0.249954342842,-0.0572784617543,0.0326794497669,1.21846967915e-07,0.0,0.0,0.0,1.21846967915e-07,0.0,0.0,0.0,1.21846967915e-07,0.36284605,0.81395195,11.50320045,9e-08,0.0,0.0,0.0,9e-08,0.0,0.0,0.0,9e-08
1536690269919058948,4605,1536690269917954828,base_link,-0.00907000627609,-0.139905408309,-0.967517283242,-0.210367579107,1.0,0.0,0.0,0.0,1.0,0.0,0.0,0.0,1.0,0.672671198845,0.0553066581488,0.062943264842,1.21846967915e-07,0.0,0.0,0.0,1.21846967915e-07,0.0,0.0,0.0,1.21846967915e-07,-0.4511059,0.3726527,8.42391235,9e-08,0.0,0.0,0.0,9e-08,0.0,0.0,0.0,9e-08
1536690270423235223,4606,1536690270422977857,base_link,-0.00719869823582,-0.229657294211,-0.948387376082,-0.218556836654,1.0,0.0,0.0,0.0,1.0,0.0,0.0,0.0,1.0,0.0710596814752,0.260594397783,-0.244943395257,1.21846967915e-07,0.0,0.0,0.0,1.21846967915e-07,0.0,0.0,0.0,1.21846967915e-07,-1.1179581,1.22583125,5.9428299,9e-08,0.0,0.0,0.0,9e-08,0.0,0.0,0.0,9e-08
1536690270824530617,4607,1536690270824044523,base_link,0.0459264748651,-0.264306012178,-0.923400787678,-0.274525183086,1.0,0.0,0.0,0.0,1.0,0.0,0.0,0.0,1.0,0.253307580948,0.20857656002,-0.271457493305,1.21846967915e-07,0.0,0.0,0.0,1.21846967915e-07,0.0,0.0,0.0,1.21846967915e-07,-1.5494507,0.10787315,3.530394,9e-08,0.0,0.0,0.0,9e-08,0.0,0.0,0.0,9e-08
1536690271182403418,4608,1536690271182138692,base_link,0.0593693651018,-0.282747295497,-0.908297866252,-0.302529720091,1.0,0.0,0.0,0.0,1.0,0.0,0.0,0.0,1.0,0.0705620497465,-0.0191826876253,-0.152335956693,1.21846967915e-07,0.0,0.0,0.0,1.21846967915e-07,0.0,0.0,0.0,1.21846967915e-07,-1.85345685,-0.5687857,6.9431082,9e-08,0.0,0.0,0.0,9e-08,0.0,0.0,0.0,9e-08
1536690271715808953,4609,1536690271715031829,base_link,0.0756933679492,-0.277640575598,-0.896745832486,-0.336204010607,1.0,0.0,0.0,0.0,1.0,0.0,0.0,0.0,1.0,-0.329535245895,-0.0329675301909,-0.176964193583,1.21846967915e-07,0.0,0.0,0.0,1.21846967915e-07,0.0,0.0,0.0,1.21846967915e-07,-1.81423025,0.97085835,9.48303055,9e-08,0.0,0.0,0.0,9e-08,0.0,0.0,0.0,9e-08
1536690272122777833,4610,1536690272119813654,base_link,0.10255890859,-0.208584055221,-0.895521133167,-0.379494745981,1.0,0.0,0.0,0.0,1.0,0.0,0.0,0.0,1.0,-0.304218262434,0.00724134873599,-0.265201896429,1.21846967915e-07,0.0,0.0,0.0,1.21846967915e-07,0.0,0.0,0.0,1.21846967915e-07,-1.97113665,0.51975245,11.24822755,9e-08,0.0,0.0,0.0,9e-08,0.0,0.0,0.0,9e-08
1536690272472913543,4611,1536690272472611090,base_link,0.12844926172,-0.191643432246,-0.88613456026,-0.401919299303,1.0,0.0,0.0,0.0,1.0,0.0,0.0,0.0,1.0,-0.0236367769539,0.0167736392468,-0.0693587213755,1.21846967915e-07,0.0,0.0,0.0,1.21846967915e-07,0.0,0.0,0.0,1.21846967915e-07,-2.14765635,0.36284605,7.18827445,9e-08,0.0,0.0,0.0,9e-08,0.0,0.0,0.0,9e-08
1536690272927376770,4612,1536690272926982097,base_link,0.144887253,-0.146635563595,-0.891831270499,-0.402669443051,1.0,0.0,0.0,0.0,1.0,0.0,0.0,0.0,1.0,-0.35936614871,0.0348492749035,-0.0690854340792,1.21846967915e-07,0.0,0.0,0.0,1.21846967915e-07,0.0,0.0,0.0,1.21846967915e-07,-2.157463,0.9022118,9.4732239,9e-08,0.0,0.0,0.0,9e-08,0.0,0.0,0.0,9e-08
1536690273408782045,4613,1536690273408471240,base_link,0.190999881357,-0.100032731006,-0.889473901541,-0.402925150029,1.0,0.0,0.0,0.0,1.0,0.0,0.0,0.0,1.0,-0.0872631892562,0.0585115402937,-0.0428916141391,1.21846967915e-07,0.0,0.0,0.0,1.21846967915e-07,0.0,0.0,0.0,1.21846967915e-07,-2.3732093,0.61781895,7.40402075,9e-08,0.0,0.0,0.0,9e-08,0.0,0.0,0.0,9e-08
1536690273863106941,4614,1536690273862906180,base_link,0.192728967526,-0.101472088114,-0.885832553875,-0.40970678162,1.0,0.0,0.0,0.0,1.0,0.0,0.0,0.0,1.0,0.0288819726557,-0.0980214774609,0.0050239325501,1.21846967915e-07,0.0,0.0,0.0,1.21846967915e-07,0.0,0.0,0.0,1.21846967915e-07,-2.353596,-0.1372931,10.1008495,9e-08,0.0,0.0,0.0,9e-08,0.0,0.0,0.0,9e-08
1536690274287208278,4615,1536690274286849635,base_link,0.163518435616,-0.118115849539,-0.893054100999,-0.402199875672,1.0,0.0,0.0,0.0,1.0,0.0,0.0,0.0,1.0,-0.130899474025,-0.0745172053576,0.076701015234,1.21846967915e-07,0.0,0.0,0.0,1.21846967915e-07,0.0,0.0,0.0,1.21846967915e-07,-2.44185585,0.6472389,10.7677017,9e-08,0.0,0.0,0.0,9e-08,0.0,0.0,0.0,9e-08
1536690274626778393,4616,1536690274626494244,base_link,0.171542498807,-0.109328324013,-0.89326531884,-0.400871000234,1.0,0.0,0.0,0.0,1.0,0.0,0.0,0.0,1.0,0.0486430712044,-0.0135128907859,-0.0584454350173,1.21846967915e-07,0.0,0.0,0.0,1.21846967915e-07,0.0,0.0,0.0,1.21846967915e-07,-2.4712758,0.53936575,6.97252815,9e-08,0.0,0.0,0.0,9e-08,0.0,0.0,0.0,9e-08
1536690275095974454,4617,1536690275095432970,base_link,0.139878084603,-0.0909756427156,-0.896400083861,-0.410639067229,1.0,0.0,0.0,0.0,1.0,0.0,0.0,0.0,1.0,0.00669585028663,-0.229736238718,0.00649819243699,1.21846967915e-07,0.0,0.0,0.0,1.21846967915e-07,0.0,0.0,0.0,1.21846967915e-07,-2.0397832,0.0980665,13.8077632,9e-08,0.0,0.0,0.0,9e-08,0.0,0.0,0.0,9e-08
1536690275500725720,4618,1536690275500143373,base_link,0.103618075902,-0.0641590658976,-0.906080922057,-0.405171903387,1.0,0.0,0.0,0.0,1.0,0.0,0.0,0.0,1.0,-0.189142689109,-0.203169375658,0.00385993998498,1.21846967915e-07,0.0,0.0,0.0,1.21846967915e-07,0.0,0.0,0.0,1.21846967915e-07,-1.34351105,0.06864655,14.1608026,9e-08,0.0,0.0,0.0,9e-08,0.0,0.0,0.0,9e-08
1536690275996864115,4619,1536690275996214027,base_link,0.0517052357044,-0.0273898867463,-0.9128082594,-0.404175016887,1.0,0.0,0.0,0.0,1.0,0.0,0.0,0.0,1.0,0.102218359709,-0.35483455658,-0.0100348517299,1.21846967915e-07,0.0,0.0,0.0,1.21846967915e-07,0.0,0.0,0.0,1.21846967915e-07,-0.6080123,0.1372931,16.36729885,9e-08,0.0,0.0,0.0,9e-08,0.0,0.0,0.0,9e-08
1536690276423707144,4620,1536690276423372436,base_link,0.00129345433117,-0.0218489308756,-0.914059768784,-0.404988506362,1.0,0.0,0.0,0.0,1.0,0.0,0.0,0.0,1.0,-0.0850805416703,-0.324901819229,0.0377097465098,1.21846967915e-07,0.0,0.0,0.0,1.21846967915e-07,0.0,0.0,0.0,1.21846967915e-07,-0.59820565,-0.04903325,13.0820711,9e-08,0.0,0.0,0.0,9e-08,0.0,0.0,0.0,9e-08
1536690276888565796,4621,1536690276888024248,base_link,-0.039375675812,0.0244673090542,-0.923052738709,-0.381869805698,1.0,0.0,0.0,0.0,1.0,0.0,0.0,0.0,1.0,0.0426233559847,-0.156544208527,0.042907834053,1.21846967915e-07,0.0,0.0,0.0,1.21846967915e-07,0.0,0.0,0.0,1.21846967915e-07,-0.2353596,0.30400615,15.68083335,9e-08,0.0,0.0,0.0,9e-08,0.0,0.0,0.0,9e-08
1536690277282121058,4622,1536690277281363998,base_link,-0.0633545366834,0.00808048994672,-0.927963202125,-0.367158281761,1.0,0.0,0.0,0.0,1.0,0.0,0.0,0.0,1.0,0.195885270834,0.0423266068101,0.0696738883853,1.21846967915e-07,0.0,0.0,0.0,1.21846967915e-07,0.0,0.0,0.0,1.21846967915e-07,-0.40207265,0.0980665,12.356379,9e-08,0.0,0.0,0.0,9e-08,0.0,0.0,0.0,9e-08
1536690277767711875,4623,1536690277767412142,base_link,-0.0505159445674,0.00838156679085,-0.930314016528,-0.363171749086,1.0,0.0,0.0,0.0,1.0,0.0,0.0,0.0,1.0,-0.195844709873,-0.0179264415056,-0.0693846493959,1.21846967915e-07,0.0,0.0,0.0,1.21846967915e-07,0.0,0.0,0.0,1.21846967915e-07,-0.6276256,0.53936575,10.01258965,9e-08,0.0,0.0,0.0,9e-08,0.0,0.0,0.0,9e-08
1536690278203526573,4624,1536690278203142811,base_link,-0.0520340361719,-0.023030228918,-0.929806612129,-0.36362306263,1.0,0.0,0.0,0.0,1.0,0.0,0.0,0.0,1.0,0.17888019979,0.0748245939612,0.0248486753553,1.21846967915e-07,0.0,0.0,0.0,1.21846967915e-07,0.0,0.0,0.0,1.21846967915e-07,-1.14737805,0.18632635,9.3751574,9e-08,0.0,0.0,0.0,9e-08,0.0,0.0,0.0,9e-08
1536690278508088697,4625,1536690278502778365,base_link,-0.0560271914543,-0.0543057926429,-0.928018852078,-0.36427029098,1.0,0.0,0.0,0.0,1.0,0.0,0.0,0.0,1.0,0.0607700496912,0.0722783505917,-0.0307815093547,1.21846967915e-07,0.0,0.0,0.0,1.21846967915e-07,0.0,0.0,0.0,1.21846967915e-07,-1.16699135,0.1176798,7.85512665,9e-08,0.0,0.0,0.0,9e-08,0.0,0.0,0.0,9e-08
1536690278913842711,4626,1536690278913502979,base_link,-0.0404781495965,-0.0845129534341,-0.926695791557,-0.363942289405,1.0,0.0,0.0,0.0,1.0,0.0,0.0,0.0,1.0,0.283643901348,0.124604254961,0.0080245565623,1.21846967915e-07,0.0,0.0,0.0,1.21846967915e-07,0.0,0.0,0.0,1.21846967915e-07,-0.81395195,0.06864655,7.36479415,9e-08,0.0,0.0,0.0,9e-08,0.0,0.0,0.0,9e-08
1536690279281123069,4627,1536690279280853191,base_link,-0.0330815852126,-0.131833299532,-0.920381868589,-0.366637158273,1.0,0.0,0.0,0.0,1.0,0.0,0.0,0.0,1.0,0.324617385864,0.169153571129,-0.0742116719484,1.21846967915e-07,0.0,0.0,0.0,1.21846967915e-07,0.0,0.0,0.0,1.21846967915e-07,-0.69627215,0.30400615,7.5707338,9e-08,0.0,0.0,0.0,9e-08,0.0,0.0,0.0,9e-08
1536690279737073409,4628,1536690279736574740,base_link,-0.0023815490293,-0.191445998841,-0.901113344286,-0.389021205722,1.0,0.0,0.0,0.0,1.0,0.0,0.0,0.0,1.0,0.31381508708,0.22205260396,-0.199429526925,1.21846967915e-07,0.0,0.0,0.0,1.21846967915e-07,0.0,0.0,0.0,1.21846967915e-07,-0.85317855,0.18632635,5.5113373,9e-08,0.0,0.0,0.0,9e-08,0.0,0.0,0.0,9e-08
1536690280199214817,4629,1536690280198887885,base_link,-0.00396740762376,-0.252012852219,-0.871486885591,-0.420695127422,1.0,0.0,0.0,0.0,1.0,0.0,0.0,0.0,1.0,0.10951769352,0.0173360444605,-0.176754459739,1.21846967915e-07,0.0,0.0,0.0,1.21846967915e-07,0.0,0.0,0.0,1.21846967915e-07,-0.9414384,0.4511059,6.97252815,9e-08,0.0,0.0,0.0,9e-08,0.0,0.0,0.0,9e-08
1536690280611717030,4630,1536690280611303477,base_link,-0.0236363630586,-0.275924852996,-0.838031400616,-0.470117186903,1.0,0.0,0.0,0.0,1.0,0.0,0.0,0.0,1.0,0.415418803692,-0.11620914191,-0.347264647484,1.21846967915e-07,0.0,0.0,0.0,1.21846967915e-07,0.0,0.0,0.0,1.21846967915e-07,-0.6864655,0.71588545,10.44408225,9e-08,0.0,0.0,0.0,9e-08,0.0,0.0,0.0,9e-08
1536690281059468728,4631,1536690281059205666,base_link,-0.0889418810859,-0.328138182353,-0.77378026817,-0.534489262437,1.0,0.0,0.0,0.0,1.0,0.0,0.0,0.0,1.0,0.302555590868,-0.316805958748,-0.20975124836,1.21846967915e-07,0.0,0.0,0.0,1.21846967915e-07,0.0,0.0,0.0,1.21846967915e-07,-0.59820565,0.28439285,11.964113,9e-08,0.0,0.0,0.0,9e-08,0.0,0.0,0.0,9e-08
1536690281456475064,4632,1536690281456129284,base_link,-0.138840965114,-0.324193104806,-0.732876231337,-0.581819943577,1.0,0.0,0.0,0.0,1.0,0.0,0.0,0.0,1.0,0.0974489971995,-0.315756887197,-0.23951870203,1.21846967915e-07,0.0,0.0,0.0,1.21846967915e-07,0.0,0.0,0.0,1.21846967915e-07,0.0196133,0.87279185,13.66066345,9e-08,0.0,0.0,0.0,9e-08,0.0,0.0,0.0,9e-08
1536690281770646051,4633,1536690281770369005,base_link,-0.180687425197,-0.30783021649,-0.688235671338,-0.631604522537,1.0,0.0,0.0,0.0,1.0,0.0,0.0,0.0,1.0,0.0311534740031,-0.402898877859,-0.271701306105,1.21846967915e-07,0.0,0.0,0.0,1.21846967915e-07,0.0,0.0,0.0,1.21846967915e-07,0.0196133,0.9414384,15.3964405,9e-08,0.0,0.0,0.0,9e-08,0.0,0.0,0.0,9e-08
1536690282225296023,4634,1536690282224349017,base_link,-0.235253271369,-0.287544604011,-0.620423247807,-0.690687333455,1.0,0.0,0.0,0.0,1.0,0.0,0.0,0.0,1.0,0.215679302812,-0.262004941702,-0.318918436766,1.21846967915e-07,0.0,0.0,0.0,1.21846967915e-07,0.0,0.0,0.0,1.21846967915e-07,0.2353596,0.91201845,15.40624715,9e-08,0.0,0.0,0.0,9e-08,0.0,0.0,0.0,9e-08
1536690282633435292,4635,1536690282633182853,base_link,-0.277236754846,-0.274898951207,-0.539697136897,-0.74585343655,1.0,0.0,0.0,0.0,1.0,0.0,0.0,0.0,1.0,0.133279368281,-0.345855236053,-0.361990690231,1.21846967915e-07,0.0,0.0,0.0,1.21846967915e-07,0.0,0.0,0.0,1.21846967915e-07,0.20593965,0.55897905,12.32695905,9e-08,0.0,0.0,0.0,9e-08,0.0,0.0,0.0,9e-08
1536690282975223405,4636,1536690282974997526,base_link,-0.323463074944,-0.246446116469,-0.462303686808,-0.787979220531,1.0,0.0,0.0,0.0,1.0,0.0,0.0,0.0,1.0,0.101404674351,-0.322057545185,-0.282805651426,1.21846967915e-07,0.0,0.0,0.0,1.21846967915e-07,0.0,0.0,0.0,1.21846967915e-07,0.53936575,0.6668522,17.56371015,9e-08,0.0,0.0,0.0,9e-08,0.0,0.0,0.0,9e-08
1536690283417518153,4637,1536690283416100413,base_link,-0.343033212757,-0.180617975484,-0.391289248926,-0.834624517704,1.0,0.0,0.0,0.0,1.0,0.0,0.0,0.0,1.0,0.00341251026839,-0.451062500477,-0.246734783053,1.21846967915e-07,0.0,0.0,0.0,1.21846967915e-07,0.0,0.0,0.0,1.21846967915e-07,0.6080123,0.97085835,15.5533469,9e-08,0.0,0.0,0.0,9e-08,0.0,0.0,0.0,9e-08
1536690283754515403,4638,1536690283752863912,base_link,-0.358391651898,-0.137776177816,-0.319449546593,-0.86632853806,1.0,0.0,0.0,0.0,1.0,0.0,0.0,0.0,1.0,-0.12248532474,-0.37031146884,-0.336813122034,1.21846967915e-07,0.0,0.0,0.0,1.21846967915e-07,0.0,0.0,0.0,1.21846967915e-07,0.4511059,0.7453054,12.79767825,9e-08,0.0,0.0,0.0,9e-08,0.0,0.0,0.0,9e-08
1536690284181029867,4639,1536690284180716343,base_link,-0.361796290279,-0.100552027579,-0.222519486907,-0.899709848805,1.0,0.0,0.0,0.0,1.0,0.0,0.0,0.0,1.0,-0.0024309149012,-0.299163758755,-0.322421431541,1.21846967915e-07,0.0,0.0,0.0,1.21846967915e-07,0.0,0.0,0.0,1.21846967915e-07,0.0980665,0.48052585,12.07198615,9e-08,0.0,0.0,0.0,9e-08,0.0,0.0,0.0,9e-08
1536690284660388113,4640,1536690284660086300,base_link,-0.357099668115,-0.0612101498931,-0.131064923487,-0.922797448205,1.0,0.0,0.0,0.0,1.0,0.0,0.0,0.0,1.0,0.0176646430045,-0.242766007781,-0.305061757565,1.21846967915e-07,0.0,0.0,0.0,1.21846967915e-07,0.0,0.0,0.0,1.21846967915e-07,0.02941995,0.53936575,14.5334553,9e-08,0.0,0.0,0.0,9e-08,0.0,0.0,0.0,9e-08
1536690285082684429,4641,1536690285082476917,base_link,-0.351661729003,-0.0241354611509,-0.0453199635742,-0.934717930058,1.0,0.0,0.0,0.0,1.0,0.0,0.0,0.0,1.0,-0.0918620154262,-0.260730117559,-0.292557477951,1.21846967915e-07,0.0,0.0,0.0,1.21846967915e-07,0.0,0.0,0.0,1.21846967915e-07,-0.04903325,0.53936575,12.26811915,9e-08,0.0,0.0,0.0,9e-08,0.0,0.0,0.0,9e-08
1536690285456513026,4642,1536690285456107569,base_link,-0.341183237852,0.00133775155996,0.0218254515705,-0.93974244253,1.0,0.0,0.0,0.0,1.0,0.0,0.0,0.0,1.0,-0.193762600422,-0.287464946508,-0.276559412479,1.21846967915e-07,0.0,0.0,0.0,1.21846967915e-07,0.0,0.0,0.0,1.21846967915e-07,-0.0392266,0.65704555,12.01314625,9e-08,0.0,0.0,0.0,9e-08,0.0,0.0,0.0,9e-08
1536690285886575680,4643,1536690285886308426,base_link,-0.285236994757,0.0101646913179,0.09272312759,-0.953907205908,1.0,0.0,0.0,0.0,1.0,0.0,0.0,0.0,1.0,-0.394631445408,-0.181834831834,-0.315890938044,1.21846967915e-07,0.0,0.0,0.0,1.21846967915e-07,0.0,0.0,0.0,1.21846967915e-07,-0.2353596,0.73549875,9.18883105,9e-08,0.0,0.0,0.0,9e-08,0.0,0.0,0.0,9e-08
1536690286339989857,4644,1536690286335854746,base_link,-0.175161509901,0.014015081385,0.160221406656,-0.971314122101,1.0,0.0,0.0,0.0,1.0,0.0,0.0,0.0,1.0,-0.440863728523,-0.135609060526,-0.238275170326,1.21846967915e-07,0.0,0.0,0.0,1.21846967915e-07,0.0,0.0,0.0,1.21846967915e-07,-0.2157463,0.73549875,11.7287534,9e-08,0.0,0.0,0.0,9e-08,0.0,0.0,0.0,9e-08
1536690286701981547,4645,1536690286700755000,base_link,-0.095343054733,0.0276112605954,0.18991412208,-0.976770160497,1.0,0.0,0.0,0.0,1.0,0.0,0.0,0.0,1.0,-0.44827952981,-0.0803066417575,-0.0145780192688,1.21846967915e-07,0.0,0.0,0.0,1.21846967915e-07,0.0,0.0,0.0,1.21846967915e-07,-0.26477955,0.26477955,11.11093445,9e-08,0.0,0.0,0.0,9e-08,0.0,0.0,0.0,9e-08
1536690287200482799,4646,1536690287200236377,base_link,0.0213402219236,0.00398591686529,0.201729506267,-0.979200650376,1.0,0.0,0.0,0.0,1.0,0.0,0.0,0.0,1.0,-0.51238912344,0.0201935339719,-0.0830691605806,1.21846967915e-07,0.0,0.0,0.0,1.21846967915e-07,0.0,0.0,0.0,1.21846967915e-07,-0.40207265,0.3530394,10.48330885,9e-08,0.0,0.0,0.0,9e-08,0.0,0.0,0.0,9e-08
1536690287688977349,4647,1536690287688610354,base_link,0.107484733579,-0.00151749533154,0.199148619167,-0.974055725685,1.0,0.0,0.0,0.0,1.0,0.0,0.0,0.0,1.0,-0.162357240915,-0.184001043439,0.0983941182494,1.21846967915e-07,0.0,0.0,0.0,1.21846967915e-07,0.0,0.0,0.0,1.21846967915e-07,-0.50013915,-0.44129925,10.3362091,9e-08,0.0,0.0,0.0,9e-08,0.0,0.0,0.0,9e-08
1536690288074766113,4648,1536690288064770258,base_link,0.160423122791,0.00199831577711,0.161624551219,-0.973723745654,1.0,0.0,0.0,0.0,1.0,0.0,0.0,0.0,1.0,-0.225811079144,0.06255620718,0.170043557882,1.21846967915e-07,0.0,0.0,0.0,1.21846967915e-07,0.0,0.0,0.0,1.21846967915e-07,-0.196133,0.46091255,12.75845165,9e-08,0.0,0.0,0.0,9e-08,0.0,0.0,0.0,9e-08
1536690288464106299,4649,1536690288463860516,base_link,0.188569467421,-0.0122640352359,0.135425077864,-0.972600225006,1.0,0.0,0.0,0.0,1.0,0.0,0.0,0.0,1.0,0.00236050225794,-0.0413457415998,0.144861295819,1.21846967915e-07,0.0,0.0,0.0,1.21846967915e-07,0.0,0.0,0.0,1.21846967915e-07,-0.38245935,-0.0392266,10.0616229,9e-08,0.0,0.0,0.0,9e-08,0.0,0.0,0.0,9e-08
1536690288920486064,4650,1536690288919303131,base_link,0.175199155724,-0.0204739213383,0.0954508741062,-0.979681175185,1.0,0.0,0.0,0.0,1.0,0.0,0.0,0.0,1.0,0.00439833384007,-0.0679325833917,0.0947173684835,1.21846967915e-07,0.0,0.0,0.0,1.21846967915e-07,0.0,0.0,0.0,1.21846967915e-07,-0.4511059,0.196133,11.16977435,9e-08,0.0,0.0,0.0,9e-08,0.0,0.0,0.0,9e-08
1536690289265369999,4651,1536690289265187606,base_link,0.134051669784,-0.0157103806395,0.0817784974838,-0.987469296291,1.0,0.0,0.0,0.0,1.0,0.0,0.0,0.0,1.0,0.3099783957,0.0648618042469,0.084170922637,1.21846967915e-07,0.0,0.0,0.0,1.21846967915e-07,0.0,0.0,0.0,1.21846967915e-07,-0.30400615,0.1176798,11.24822755,9e-08,0.0,0.0,0.0,9e-08,0.0,0.0,0.0,9e-08
1536690289650442950,4652,1536690289650147729,base_link,0.114255016497,-0.0248028243384,0.0621588581971,-0.991194676871,1.0,0.0,0.0,0.0,1.0,0.0,0.0,0.0,1.0,0.102154806256,0.00575924757868,0.133174970746,1.21846967915e-07,0.0,0.0,0.0,1.21846967915e-07,0.0,0.0,0.0,1.21846967915e-07,-0.3334261,0.0588399,8.4141057,9e-08,0.0,0.0,0.0,9e-08,0.0,0.0,0.0,9e-08
1536690290126288622,4653,1536690290125976793,base_link,0.0514841374707,-0.0232348944246,0.0246995035971,-0.998097919942,1.0,0.0,0.0,0.0,1.0,0.0,0.0,0.0,1.0,0.184571936727,-0.020025761798,0.158879324794,1.21846967915e-07,0.0,0.0,0.0,1.21846967915e-07,0.0,0.0,0.0,1.21846967915e-07,-0.42168595,0.50013915,9.58109705,9e-08,0.0,0.0,0.0,9e-08,0.0,0.0,0.0,9e-08
1536690290561642888,4654,1536690290561334676,base_link,0.0204234084201,-0.026581832708,0.00326685398226,-0.999432648168,1.0,0.0,0.0,0.0,1.0,0.0,0.0,0.0,1.0,0.0990415066481,0.0813049525023,0.0370106250048,1.21846967915e-07,0.0,0.0,0.0,1.21846967915e-07,0.0,0.0,0.0,1.21846967915e-07,-0.5295591,0.50013915,10.2185293,9e-08,0.0,0.0,0.0,9e-08,0.0,0.0,0.0,9e-08
1536690290989682001,4655,1536690290989405595,base_link,-0.000205395829954,-0.0374464593522,-0.00250146859967,-0.999295483403,1.0,0.0,0.0,0.0,1.0,0.0,0.0,0.0,1.0,0.0618994906545,0.0140618626028,0.0384887121618,1.21846967915e-07,0.0,0.0,0.0,1.21846967915e-07,0.0,0.0,0.0,1.21846967915e-07,-0.4707192,0.20593965,8.93385815,9e-08,0.0,0.0,0.0,9e-08,0.0,0.0,0.0,9e-08
1536690291373589459,4656,1536690291373245823,base_link,-0.00713068199045,-0.0296957498337,-0.0108594478888,-0.999474556058,1.0,0.0,0.0,0.0,1.0,0.0,0.0,0.0,1.0,-0.0177258830518,-0.041419621557,0.0203045718372,1.21846967915e-07,0.0,0.0,0.0,1.21846967915e-07,0.0,0.0,0.0,1.21846967915e-07,-0.5099458,0.63743225,11.1011278,9e-08,0.0,0.0,0.0,9e-08,0.0,0.0,0.0,9e-08
1536690291755667992,4657,1536690291755322949,base_link,-0.00630716640436,-0.0380136842681,-0.0100202256641,-0.999207072902,1.0,0.0,0.0,0.0,1.0,0.0,0.0,0.0,1.0,-0.0744022130966,0.113125152886,-0.00591479009017,1.21846967915e-07,0.0,0.0,0.0,1.21846967915e-07,0.0,0.0,0.0,1.21846967915e-07,-0.50013915,0.4314926,9.1790244,9e-08,0.0,0.0,0.0,9e-08,0.0,0.0,0.0,9e-08
1536690292176450796,4658,1536690292174394967,base_link,-0.00435161452839,-0.0399971648435,-0.000877847807099,-0.999189931714,1.0,0.0,0.0,0.0,1.0,0.0,0.0,0.0,1.0,0.0562143921852,0.0158051159233,-0.0265542455018,1.21846967915e-07,0.0,0.0,0.0,1.21846967915e-07,0.0,0.0,0.0,1.21846967915e-07,-0.392266,0.196133,9.2770909,9e-08,0.0,0.0,0.0,9e-08,0.0,0.0,0.0,9e-08
1536690292569379713,4659,1536690292568891699,base_link,-0.00796823614363,-0.0422548225493,-0.00622386296143,-0.99905570451,1.0,0.0,0.0,0.0,1.0,0.0,0.0,0.0,1.0,-0.029522523284,-0.0139263235033,0.067137889564,1.21846967915e-07,0.0,0.0,0.0,1.21846967915e-07,0.0,0.0,0.0,1.21846967915e-07,-0.392266,0.2353596,9.99297635,9e-08,0.0,0.0,0.0,9e-08,0.0,0.0,0.0,9e-08
1536690292981688045,4660,1536690292981259453,base_link,-0.0196670620903,-0.0355240449371,-0.0203828678167,-0.998967360628,1.0,0.0,0.0,0.0,1.0,0.0,0.0,0.0,1.0,0.0500348731875,-0.0794633477926,0.0811619833112,1.21846967915e-07,0.0,0.0,0.0,1.21846967915e-07,0.0,0.0,0.0,1.21846967915e-07,-0.32361945,0.3334261,9.7674234,9e-08,0.0,0.0,0.0,9e-08,0.0,0.0,0.0,9e-08
1536690293424905766,4661,1536690293424600914,base_link,-0.00586597850935,-0.0178707914064,-0.031647283192,-0.999322107519,1.0,0.0,0.0,0.0,1.0,0.0,0.0,0.0,1.0,-0.0455378368497,-0.091510169208,0.00235429219902,1.21846967915e-07,0.0,0.0,0.0,1.21846967915e-07,0.0,0.0,0.0,1.21846967915e-07,-0.0980665,0.50013915,11.22861425,9e-08,0.0,0.0,0.0,9e-08,0.0,0.0,0.0,9e-08
1536690293765038517,4662,1536690293764722208,base_link,-0.0126553678667,-0.0158028710395,-0.031177839362,-0.999308787745,1.0,0.0,0.0,0.0,1.0,0.0,0.0,0.0,1.0,0.0203829668462,0.0313074626029,-0.0206624083221,1.21846967915e-07,0.0,0.0,0.0,1.21846967915e-07,0.0,0.0,0.0,1.21846967915e-07,-0.1372931,0.4314926,10.11065615,9e-08,0.0,0.0,0.0,9e-08,0.0,0.0,0.0,9e-08
1536690294088199572,4663,1536690294087864513,base_link,-0.0167452388744,-0.0153843411593,-0.0280279973168,-0.999348462944,1.0,0.0,0.0,0.0,1.0,0.0,0.0,0.0,1.0,0.0296039953828,-0.0659351944923,-0.0041483733803,1.21846967915e-07,0.0,0.0,0.0,1.21846967915e-07,0.0,0.0,0.0,1.21846967915e-07,-0.12748645,0.392266,11.1403544,9e-08,0.0,0.0,0.0,9e-08,0.0,0.0,0.0,9e-08
1536690294507043728,4664,1536690294506767258,base_link,-0.0444640386801,-0.018479750325,-0.0252608155798,-0.998520575295,1.0,0.0,0.0,0.0,1.0,0.0,0.0,0.0,1.0,0.296439260244,0.0448601804674,-0.0385293290019,1.21846967915e-07,0.0,0.0,0.0,1.21846967915e-07,0.0,0.0,0.0,1.21846967915e-07,-0.18632635,0.48052585,9.6889702,9e-08,0.0,0.0,0.0,9e-08,0.0,0.0,0.0,9e-08
1536690294916610528,4665,1536690294916239374,base_link,-0.0582381489478,-0.016378852259,-0.0224862554856,-0.997915036223,1.0,0.0,0.0,0.0,1.0,0.0,0.0,0.0,1.0,-0.00779752526432,0.0475515127182,-0.0269676372409,1.21846967915e-07,0.0,0.0,0.0,1.21846967915e-07,0.0,0.0,0.0,1.21846967915e-07,-0.0196133,0.48052585,9.79684335,9e-08,0.0,0.0,0.0,9e-08,0.0,0.0,0.0,9e-08
1536690295261521311,4666,1536690295261248937,base_link,-0.0537679570547,-0.0161812989099,-0.0126869816232,-0.998341731501,1.0,0.0,0.0,0.0,1.0,0.0,0.0,0.0,1.0,0.00719661917537,0.0429912954569,-0.064817905426,1.21846967915e-07,0.0,0.0,0.0,1.21846967915e-07,0.0,0.0,0.0,1.21846967915e-07,-0.0588399,0.44129925,10.0223963,9e-08,0.0,0.0,0.0,9e-08,0.0,0.0,0.0,9e-08
1536690295861782879,4667,1536690295861378062,base_link,-0.0464522877406,0.00119996503419,-0.0104778259995,-0.998864835806,1.0,0.0,0.0,0.0,1.0,0.0,0.0,0.0,1.0,-0.0881908759475,-0.0759799107909,0.0184797123075,1.21846967915e-07,0.0,0.0,0.0,1.21846967915e-07,0.0,0.0,0.0,1.21846967915e-07,0.0588399,0.65704555,11.28745415,9e-08,0.0,0.0,0.0,9e-08,0.0,0.0,0.0,9e-08
1536690296288096615,4668,1536690296287729204,base_link,-0.0352729500262,-0.000107533782308,-0.000101987213482,-0.99937770489,1.0,0.0,0.0,0.0,1.0,0.0,0.0,0.0,1.0,0.0130721060559,-0.0359685607255,-0.0437808409333,1.21846967915e-07,0.0,0.0,0.0,1.21846967915e-07,0.0,0.0,0.0,1.21846967915e-07,-0.10787315,0.196133,9.73800345,9e-08,0.0,0.0,0.0,9e-08,0.0,0.0,0.0,9e-08
1536690296690042064,4669,1536690296689731772,base_link,-0.0160599306782,-0.0103267901117,0.0086616692326,-0.999780181599,1.0,0.0,0.0,0.0,1.0,0.0,0.0,0.0,1.0,-0.0679165571928,0.119666561484,-0.0386368259788,1.21846967915e-07,0.0,0.0,0.0,1.21846967915e-07,0.0,0.0,0.0,1.21846967915e-07,-0.0392266,0.26477955,9.4536106,9e-08,0.0,0.0,0.0,9e-08,0.0,0.0,0.0,9e-08
1536690297209686538,4670,1536690297207819151,base_link,-0.0321335467218,-0.0223284791839,0.0106733840092,-0.999177137982,1.0,0.0,0.0,0.0,1.0,0.0,0.0,0.0,1.0,-0.00726820062846,-0.0712707042694,0.0861647129059,1.21846967915e-07,0.0,0.0,0.0,1.21846967915e-07,0.0,0.0,0.0,1.21846967915e-07,0.02941995,-0.18632635,9.22805765,9e-08,0.0,0.0,0.0,9e-08,0.0,0.0,0.0,9e-08
1536690297684677169,4671,1536690297684403163,base_link,-0.016449468452,-0.0164536709232,-0.00251561062239,-0.999726144203,1.0,0.0,0.0,0.0,1.0,0.0,0.0,0.0,1.0,-0.0460669398308,0.0915001034737,-0.0277235805988,1.21846967915e-07,0.0,0.0,0.0,1.21846967915e-07,0.0,0.0,0.0,1.21846967915e-07,0.2157463,0.50013915,11.3168741,9e-08,0.0,0.0,0.0,9e-08,0.0,0.0,0.0,9e-08
1536690298027880878,4672,1536690298027021134,base_link,-0.0165657092066,-0.00738651920626,0.00369773759163,-0.999828656995,1.0,0.0,0.0,0.0,1.0,0.0,0.0,0.0,1.0,0.0281094536185,-0.0550755150616,-0.0277242604643,1.21846967915e-07,0.0,0.0,0.0,1.21846967915e-07,0.0,0.0,0.0,1.21846967915e-07,0.22555295,0.16671305,10.32640245,9e-08,0.0,0.0,0.0,9e-08,0.0,0.0,0.0,9e-08
1536690298266797869,4673,1536690298265158730,base_link,-0.0265074108907,-0.00464000676625,0.00497002177521,-0.999625493067,1.0,0.0,0.0,0.0,1.0,0.0,0.0,0.0,1.0,0.0673589482903,-0.0169372428209,-0.0147722661495,1.21846967915e-07,0.0,0.0,0.0,1.21846967915e-07,0.0,0.0,0.0,1.21846967915e-07,0.0392266,0.2745862,9.2770909,9e-08,0.0,0.0,0.0,9e-08,0.0,0.0,0.0,9e-08
1536690298627505638,4674,1536690298627220208,base_link,-0.0385392463096,0.0137279413086,0.00310193910788,-0.99915796954,1.0,0.0,0.0,0.0,1.0,0.0,0.0,0.0,1.0,0.0473743490875,-0.126346856356,0.0456798970699,1.21846967915e-07,0.0,0.0,0.0,1.21846967915e-07,0.0,0.0,0.0,1.21846967915e-07,0.2941995,0.48052585,11.46397385,9e-08,0.0,0.0,0.0,9e-08,0.0,0.0,0.0,9e-08
1536690299015736009,4675,1536690299014825674,base_link,-0.0611249265374,0.0172899708497,0.00693294724018,-0.997956278855,1.0,0.0,0.0,0.0,1.0,0.0,0.0,0.0,1.0,0.165153324604,-0.0222075395286,-0.102615527809,1.21846967915e-07,0.0,0.0,0.0,1.21846967915e-07,0.0,0.0,0.0,1.21846967915e-07,0.4118793,0.65704555,11.0226746,9e-08,0.0,0.0,0.0,9e-08,0.0,0.0,0.0,9e-08
1536690299361319438,4676,1536690299360476941,base_link,-0.118952280242,0.0230584328701,0.0267604373186,-0.992271405762,1.0,0.0,0.0,0.0,1.0,0.0,0.0,0.0,1.0,0.416753441095,-0.0508072897792,-0.0809541344643,1.21846967915e-07,0.0,0.0,0.0,1.21846967915e-07,0.0,0.0,0.0,1.21846967915e-07,0.40207265,0.20593965,10.787315,9e-08,0.0,0.0,0.0,9e-08,0.0,0.0,0.0,9e-08
1536690299761437915,4677,1536690299761099784,base_link,-0.194021441873,0.0332474556218,0.0374921846746,-0.979716603348,1.0,0.0,0.0,0.0,1.0,0.0,0.0,0.0,1.0,0.285302698612,-0.0685485750437,-0.076158836484,1.21846967915e-07,0.0,0.0,0.0,1.21846967915e-07,0.0,0.0,0.0,1.21846967915e-07,0.4511059,0.6276256,10.03220295,9e-08,0.0,0.0,0.0,9e-08,0.0,0.0,0.0,9e-08
1536690300178772846,4678,1536690300178422875,base_link,-0.238010624591,0.0343695315879,0.0709836023624,-0.968055270156,1.0,0.0,0.0,0.0,1.0,0.0,0.0,0.0,1.0,0.257312268019,0.0184341724962,-0.252240717411,1.21846967915e-07,0.0,0.0,0.0,1.21846967915e-07,0.0,0.0,0.0,1.21846967915e-07,0.392266,0.81395195,8.97308475,9e-08,0.0,0.0,0.0,9e-08,0.0,0.0,0.0,9e-08
1536690300586496835,4679,1536690300584350418,base_link,-0.297586375849,0.0308343218933,0.123761274597,-0.946136745092,1.0,0.0,0.0,0.0,1.0,0.0,0.0,0.0,1.0,0.22864601016,-0.0963068827987,-0.27021214366,1.21846967915e-07,0.0,0.0,0.0,1.21846967915e-07,0.0,0.0,0.0,1.21846967915e-07,0.50013915,0.6864655,8.433719,9e-08,0.0,0.0,0.0,9e-08,0.0,0.0,0.0,9e-08
1536690301086428563,4680,1536690301086123326,base_link,-0.305377879903,0.0453289384996,0.194204985257,-0.931114419125,1.0,0.0,0.0,0.0,1.0,0.0,0.0,0.0,1.0,-0.00717932917178,-0.177697941661,-0.266786694527,1.21846967915e-07,0.0,0.0,0.0,1.21846967915e-07,0.0,0.0,0.0,1.21846967915e-07,0.8825985,0.59820565,11.16977435,9e-08,0.0,0.0,0.0,9e-08,0.0,0.0,0.0,9e-08
1536690301545103762,4681,1536690301544475241,base_link,-0.321321886721,0.0976061999063,0.273442380551,-0.901362601494,1.0,0.0,0.0,0.0,1.0,0.0,0.0,0.0,1.0,0.142666757107,-0.32502707839,-0.278055816889,1.21846967915e-07,0.0,0.0,0.0,1.21846967915e-07,0.0,0.0,0.0,1.21846967915e-07,1.4317709,1.0591182,14.44519545,9e-08,0.0,0.0,0.0,9e-08,0.0,0.0,0.0,9e-08
1536690302024182147,4682,1536690302023872590,base_link,-0.316042476273,0.141446216155,0.351134991992,-0.869950767874,1.0,0.0,0.0,0.0,1.0,0.0,0.0,0.0,1.0,-0.0429036766291,-0.372012466192,-0.279670834541,1.21846967915e-07,0.0,0.0,0.0,1.21846967915e-07,0.0,0.0,0.0,1.21846967915e-07,1.8044236,0.980665,13.8666031,9e-08,0.0,0.0,0.0,9e-08,0.0,0.0,0.0,9e-08
1536690302408427992,4683,1536690302408029895,base_link,-0.305775528438,0.179357654192,0.410944651103,-0.839914669369,1.0,0.0,0.0,0.0,1.0,0.0,0.0,0.0,1.0,-0.0396290458739,-0.328125268221,-0.250094980001,1.21846967915e-07,0.0,0.0,0.0,1.21846967915e-07,0.0,0.0,0.0,1.21846967915e-07,1.569064,1.16699135,13.9646696,9e-08,0.0,0.0,0.0,9e-08,0.0,0.0,0.0,9e-08
1536690302846196506,4684,1536690302845939523,base_link,-0.302365732672,0.222861613776,0.472962698542,-0.797003105765,1.0,0.0,0.0,0.0,1.0,0.0,0.0,0.0,1.0,0.055995170027,-0.244731903076,-0.28588104248,1.21846967915e-07,0.0,0.0,0.0,1.21846967915e-07,0.0,0.0,0.0,1.21846967915e-07,1.50041745,1.1375714,12.95458465,9e-08,0.0,0.0,0.0,9e-08,0.0,0.0,0.0,9e-08
1536690303271227249,4685,1536690303270551018,base_link,-0.288137701841,0.233571456868,0.529700602559,-0.762783266048,1.0,0.0,0.0,0.0,1.0,0.0,0.0,0.0,1.0,-0.0236400142312,-0.193330600858,-0.235367804766,1.21846967915e-07,0.0,0.0,0.0,1.21846967915e-07,0.0,0.0,0.0,1.21846967915e-07,1.34351105,0.81395195,10.62060195,9e-08,0.0,0.0,0.0,9e-08,0.0,0.0,0.0,9e-08
1536690303680734276,4686,1536690303680349938,base_link,-0.248128052459,0.239745352657,0.589208466872,-0.73060797835,1.0,0.0,0.0,0.0,1.0,0.0,0.0,0.0,1.0,-0.430848419666,-0.244730994105,-0.267112463713,1.21846967915e-07,0.0,0.0,0.0,1.21846967915e-07,0.0,0.0,0.0,1.21846967915e-07,1.38273765,1.28467115,13.50375705,9e-08,0.0,0.0,0.0,9e-08,0.0,0.0,0.0,9e-08
1536690304143539148,4687,1536690304143269814,base_link,-0.175002173074,0.226143350042,0.659378291287,-0.695308344284,1.0,0.0,0.0,0.0,1.0,0.0,0.0,0.0,1.0,-0.110516518354,-0.215638488531,-0.208276361227,1.21846967915e-07,0.0,0.0,0.0,1.21846967915e-07,0.0,0.0,0.0,1.21846967915e-07,1.04931155,0.7060788,14.3569356,9e-08,0.0,0.0,0.0,9e-08,0.0,0.0,0.0,9e-08
1536690304524070826,4688,1536690304523824819,base_link,0.134786366976,-0.214380323494,-0.69600027455,0.67190574488,1.0,0.0,0.0,0.0,1.0,0.0,0.0,0.0,1.0,-0.386872380972,-0.156800419092,-0.17355145514,1.21846967915e-07,0.0,0.0,0.0,1.21846967915e-07,0.0,0.0,0.0,1.21846967915e-07,0.38245935,0.65704555,11.6895268,9e-08,0.0,0.0,0.0,9e-08,0.0,0.0,0.0,9e-08
1536690304880970607,4689,1536690304879718269,base_link,0.0706313404255,-0.185997158902,-0.731993874466,0.651614332542,1.0,0.0,0.0,0.0,1.0,0.0,0.0,0.0,1.0,-0.480629235506,-0.153293579817,-0.147222280502,1.21846967915e-07,0.0,0.0,0.0,1.21846967915e-07,0.0,0.0,0.0,1.21846967915e-07,0.10787315,0.9218251,13.6312435,9e-08,0.0,0.0,0.0,9e-08,0.0,0.0,0.0,9e-08
1536690305342075093,4690,1536690305341830174,base_link,-0.0143598622199,-0.10029094919,-0.771347813726,0.628297755947,1.0,0.0,0.0,0.0,1.0,0.0,0.0,0.0,1.0,-0.619242668152,0.0659332275391,-0.10897872597,1.21846967915e-07,0.0,0.0,0.0,1.21846967915e-07,0.0,0.0,0.0,1.21846967915e-07,-0.24516625,0.51975245,9.87529655,9e-08,0.0,0.0,0.0,9e-08,0.0,0.0,0.0,9e-08
1536690305801826765,4691,1536690305800111501,base_link,-0.057664449292,-0.0194552013723,-0.786134302691,0.615052164096,1.0,0.0,0.0,0.0,1.0,0.0,0.0,0.0,1.0,-0.258333355188,0.184561520815,-0.0445394739509,1.21846967915e-07,0.0,0.0,0.0,1.21846967915e-07,0.0,0.0,0.0,1.21846967915e-07,-0.5687857,0.3726527,8.6886919,9e-08,0.0,0.0,0.0,9e-08,0.0,0.0,0.0,9e-08
1536690306120041283,4692,1536690306119553653,base_link,-0.0683002535832,0.0304877031958,-0.788117570535,0.610963395245,1.0,0.0,0.0,0.0,1.0,0.0,0.0,0.0,1.0,-0.277962893248,0.111792877316,0.00765091367066,1.21846967915e-07,0.0,0.0,0.0,1.21846967915e-07,0.0,0.0,0.0,1.21846967915e-07,-0.57859235,0.1569064,6.79600845,9e-08,0.0,0.0,0.0,9e-08,0.0,0.0,0.0,9e-08
1536690306516970438,4693,1536690306516664145,base_link,-0.0660135831611,0.0524737937833,-0.780679015373,0.61921642643,1.0,0.0,0.0,0.0,1.0,0.0,0.0,0.0,1.0,-0.00534247979522,0.0617383383214,0.111174620688,1.21846967915e-07,0.0,0.0,0.0,1.21846967915e-07,0.0,0.0,0.0,1.21846967915e-07,-0.81395195,0.0784532,7.1784678,9e-08,0.0,0.0,0.0,9e-08,0.0,0.0,0.0,9e-08
1536690306880454008,4694,1536690306880039079,base_link,-0.063519997154,0.0721142799337,-0.765508812774,0.636208297774,1.0,0.0,0.0,0.0,1.0,0.0,0.0,0.0,1.0,-0.1111792624,0.115091450512,0.117291912436,1.21846967915e-07,0.0,0.0,0.0,1.21846967915e-07,0.0,0.0,0.0,1.21846967915e-07,-0.73549875,0.0588399,7.7080269,9e-08,0.0,0.0,0.0,9e-08,0.0,0.0,0.0,9e-08
1536690307320116020,4695,1536690307319804608,base_link,-0.0358517337462,0.109872239363,-0.745089560916,0.656874638283,1.0,0.0,0.0,0.0,1.0,0.0,0.0,0.0,1.0,0.0155304856598,0.177759289742,0.165185958147,1.21846967915e-07,0.0,0.0,0.0,1.21846967915e-07,0.0,0.0,0.0,1.21846967915e-07,-0.73549875,0.0784532,6.2370294,9e-08,0.0,0.0,0.0,9e-08,0.0,0.0,0.0,9e-08
1536690307786646322,4696,1536690307785690262,base_link,-0.0103535808045,0.114477609039,-0.727199230141,0.676734039394,1.0,0.0,0.0,0.0,1.0,0.0,0.0,0.0,1.0,0.0838021785021,0.100027225912,0.128541216254,1.21846967915e-07,0.0,0.0,0.0,1.21846967915e-07,0.0,0.0,0.0,1.21846967915e-07,-0.69627215,0.08825985,8.6102387,9e-08,0.0,0.0,0.0,9e-08,0.0,0.0,0.0,9e-08
1536690308091006471,4697,1536690308084212001,base_link,0.00817881414148,0.111051169301,-0.718598052354,0.686452900023,1.0,0.0,0.0,0.0,1.0,0.0,0.0,0.0,1.0,0.193064451218,-0.00532166706398,0.0858404487371,1.21846967915e-07,0.0,0.0,0.0,1.21846967915e-07,0.0,0.0,0.0,1.21846967915e-07,-0.55897905,0.20593965,8.69849855,9e-08,0.0,0.0,0.0,9e-08,0.0,0.0,0.0,9e-08
1536690308558427044,4698,1536690308558017267,base_link,0.0252608173559,0.0828248575057,-0.70497816197,0.703923096105,1.0,0.0,0.0,0.0,1.0,0.0,0.0,0.0,1.0,0.0800484269857,-0.0761932432652,0.0819825455546,1.21846967915e-07,0.0,0.0,0.0,1.21846967915e-07,0.0,0.0,0.0,1.21846967915e-07,-0.5491724,0.24516625,9.54187045,9e-08,0.0,0.0,0.0,9e-08,0.0,0.0,0.0,9e-08
1536690309072631303,4699,1536690309072269332,base_link,-0.03441119894,-0.0512062950275,0.688437067903,-0.722667411936,1.0,0.0,0.0,0.0,1.0,0.0,0.0,0.0,1.0,0.0760054439306,-0.0950917601585,0.0939196795225,1.21846967915e-07,0.0,0.0,0.0,1.21846967915e-07,0.0,0.0,0.0,1.21846967915e-07,-0.2157463,0.32361945,10.87557485,9e-08,0.0,0.0,0.0,9e-08,0.0,0.0,0.0,9e-08
1536690309389087709,4700,1536690309388391735,base_link,-0.0371319987006,-0.0371555320654,0.683595142951,-0.7279686543,1.0,0.0,0.0,0.0,1.0,0.0,0.0,0.0,1.0,0.0708189979196,-0.034964274615,0.0288415625691,1.21846967915e-07,0.0,0.0,0.0,1.21846967915e-07,0.0,0.0,0.0,1.21846967915e-07,-0.10787315,0.32361945,10.69905515,9e-08,0.0,0.0,0.0,9e-08,0.0,0.0,0.0,9e-08
1536690309767108920,4701,1536690309766824547,base_link,-0.0482609546487,-0.0174916985125,0.688122780514,-0.72377618065,1.0,0.0,0.0,0.0,1.0,0.0,0.0,0.0,1.0,0.117676705122,-0.0684117898345,-0.029991639778,1.21846967915e-07,0.0,0.0,0.0,1.21846967915e-07,0.0,0.0,0.0,1.21846967915e-07,-0.0196133,0.16671305,10.93441475,9e-08,0.0,0.0,0.0,9e-08,0.0,0.0,0.0,9e-08
1536690310163106333,4702,1536690310162534258,base_link,-0.0394025436749,0.00444161132357,0.684546428742,-0.727890031898,1.0,0.0,0.0,0.0,1.0,0.0,0.0,0.0,1.0,0.038630630821,-0.155983835459,0.0284161530435,1.21846967915e-07,0.0,0.0,0.0,1.21846967915e-07,0.0,0.0,0.0,1.21846967915e-07,0.196133,0.6276256,11.4149406,9e-08,0.0,0.0,0.0,9e-08,0.0,0.0,0.0,9e-08
1536690310662546623,4703,1536690310662086832,base_link,-0.0333510315032,0.0341932800086,0.690971736205,-0.721302008916,1.0,0.0,0.0,0.0,1.0,0.0,0.0,0.0,1.0,0.0919917374849,-0.162329003215,-0.0482153110206,1.21846967915e-07,0.0,0.0,0.0,1.21846967915e-07,0.0,0.0,0.0,1.21846967915e-07,0.392266,0.20593965,12.2779258,9e-08,0.0,0.0,0.0,9e-08,0.0,0.0,0.0,9e-08
1536690311034221699,4704,1536690311032767641,base_link,-0.0391686571716,0.0614088572236,0.69736940106,-0.713001183039,1.0,0.0,0.0,0.0,1.0,0.0,0.0,0.0,1.0,0.139635309577,-0.0933786928654,-0.0438933484256,1.21846967915e-07,0.0,0.0,0.0,1.21846967915e-07,0.0,0.0,0.0,1.21846967915e-07,0.2745862,0.4707192,11.9248864,9e-08,0.0,0.0,0.0,9e-08,0.0,0.0,0.0,9e-08
1536690311465177952,4705,1536690311464811438,base_link,0.0663940183507,-0.126703314805,-0.698293671352,0.70137297702,1.0,0.0,0.0,0.0,1.0,0.0,0.0,0.0,1.0,0.360947132111,-0.0455086380243,-0.105105251074,1.21846967915e-07,0.0,0.0,0.0,1.21846967915e-07,0.0,0.0,0.0,1.21846967915e-07,0.44129925,0.99047165,12.26811915,9e-08,0.0,0.0,0.0,9e-08,0.0,0.0,0.0,9e-08
1536690311925822584,4706,1536690311923812706,base_link,0.123314530432,-0.197382163473,-0.706651328218,0.668189874553,1.0,0.0,0.0,0.0,1.0,0.0,0.0,0.0,1.0,0.278125792742,-0.0807524546981,-0.179815754294,1.21846967915e-07,0.0,0.0,0.0,1.21846967915e-07,0.0,0.0,0.0,1.21846967915e-07,0.3726527,0.51975245,9.91452315,9e-08,0.0,0.0,0.0,9e-08,0.0,0.0,0.0,9e-08
1536690312284454301,4707,1536690312284097834,base_link,0.166664882635,-0.253135736556,-0.717029558775,0.62770512792,1.0,0.0,0.0,0.0,1.0,0.0,0.0,0.0,1.0,0.414793044329,-0.155164718628,-0.211133569479,1.21846967915e-07,0.0,0.0,0.0,1.21846967915e-07,0.0,0.0,0.0,1.21846967915e-07,0.44129925,0.5099458,9.81645665,9e-08,0.0,0.0,0.0,9e-08,0.0,0.0,0.0,9e-08
1536690312663430260,4708,1536690312662368763,base_link,0.185476419828,-0.294927976552,-0.735336600374,0.581288285178,1.0,0.0,0.0,0.0,1.0,0.0,0.0,0.0,1.0,0.034388422966,-0.196044132113,-0.286015868187,1.21846967915e-07,0.0,0.0,0.0,1.21846967915e-07,0.0,0.0,0.0,1.21846967915e-07,0.9022118,1.0395049,9.6693569,9e-08,0.0,0.0,0.0,9e-08,0.0,0.0,0.0,9e-08
1536690313086783209,4709,1536690313086477492,base_link,0.177018324007,-0.312124134928,-0.776898454872,0.517370107542,1.0,0.0,0.0,0.0,1.0,0.0,0.0,0.0,1.0,-0.0332318171859,-0.289876401424,-0.270222455263,1.21846967915e-07,0.0,0.0,0.0,1.21846967915e-07,0.0,0.0,0.0,1.21846967915e-07,1.176798,0.4707192,11.87585315,9e-08,0.0,0.0,0.0,9e-08,0.0,0.0,0.0,9e-08
1536690313460255948,4710,1536690313459812732,base_link,0.153645567407,-0.344026722604,-0.800741729176,0.465672993534,1.0,0.0,0.0,0.0,1.0,0.0,0.0,0.0,1.0,0.00655495747924,-0.270788282156,-0.260272234678,1.21846967915e-07,0.0,0.0,0.0,1.21846967915e-07,0.0,0.0,0.0,1.21846967915e-07,1.48080415,0.9610517,13.20955755,9e-08,0.0,0.0,0.0,9e-08,0.0,0.0,0.0,9e-08
1536690313957802419,4711,1536690313957329509,base_link,0.136309323989,-0.358706657381,-0.840421148272,0.382676881562,1.0,0.0,0.0,0.0,1.0,0.0,0.0,0.0,1.0,0.1155224666,-0.130506798625,-0.413281917572,1.21846967915e-07,0.0,0.0,0.0,1.21846967915e-07,0.0,0.0,0.0,1.21846967915e-07,1.3337044,1.32389775,13.3762706,9e-08,0.0,0.0,0.0,9e-08,0.0,0.0,0.0,9e-08
1536690314356050405,4712,1536690314355447771,base_link,0.108624248156,-0.381653739087,-0.870184973685,0.292094689658,1.0,0.0,0.0,0.0,1.0,0.0,0.0,0.0,1.0,0.00622847862542,-0.473038226366,-0.298706531525,1.21846967915e-07,0.0,0.0,0.0,1.21846967915e-07,0.0,0.0,0.0,1.21846967915e-07,1.40235095,1.04931155,15.21011415,9e-08,0.0,0.0,0.0,9e-08,0.0,0.0,0.0,9e-08
1536690314756610530,4713,1536690314756359883,base_link,0.0537938511467,-0.40504728197,-0.88913768375,0.206099733825,1.0,0.0,0.0,0.0,1.0,0.0,0.0,0.0,1.0,-0.126890510321,-0.393747836351,-0.245860368013,1.21846967915e-07,0.0,0.0,0.0,1.21846967915e-07,0.0,0.0,0.0,1.21846967915e-07,1.77500365,0.9022118,15.2199208,9e-08,0.0,0.0,0.0,9e-08,0.0,0.0,0.0,9e-08
1536690315068632892,4714,1536690315068410404,base_link,0.0221791202148,-0.398967611206,-0.904961802381,0.146208987637,1.0,0.0,0.0,0.0,1.0,0.0,0.0,0.0,1.0,-0.0910200402141,-0.201524600387,-0.327935963869,1.21846967915e-07,0.0,0.0,0.0,1.21846967915e-07,0.0,0.0,0.0,1.21846967915e-07,1.3140911,1.24544455,14.11176935,9e-08,0.0,0.0,0.0,9e-08,0.0,0.0,0.0,9e-08
1536690315529286739,4715,1536690315526693682,base_link,0.000616649423693,-0.367443157489,-0.928300740967,0.0569462911671,1.0,0.0,0.0,0.0,1.0,0.0,0.0,0.0,1.0,-0.201165378094,-0.118222557008,-0.292649388313,1.21846967915e-07,0.0,0.0,0.0,1.21846967915e-07,0.0,0.0,0.0,1.21846967915e-07,0.73549875,0.9022118,10.9638347,9e-08,0.0,0.0,0.0,9e-08,0.0,0.0,0.0,9e-08
1536690315868952594,4716,1536690315868659901,base_link,-0.00642522440715,-0.32665357518,-0.945114794515,-0.00376609913892,1.0,0.0,0.0,0.0,1.0,0.0,0.0,0.0,1.0,-0.256845355034,-0.187746629119,-0.310295164585,1.21846967915e-07,0.0,0.0,0.0,1.21846967915e-07,0.0,0.0,0.0,1.21846967915e-07,0.2157463,1.04931155,11.1403544,9e-08,0.0,0.0,0.0,9e-08,0.0,0.0,0.0,9e-08
1536690316281246751,4717,1536690316281002984,base_link,-0.0328147216375,-0.248543612118,-0.966251177753,-0.0592277672223,1.0,0.0,0.0,0.0,1.0,0.0,0.0,0.0,1.0,-0.543394327164,-0.188518211246,-0.120105721056,1.21846967915e-07,0.0,0.0,0.0,1.21846967915e-07,0.0,0.0,0.0,1.21846967915e-07,0.20593965,0.75511205,11.8072066,9e-08,0.0,0.0,0.0,9e-08,0.0,0.0,0.0,9e-08
1536690316750202916,4718,1536690316749964461,base_link,-0.0453494350994,-0.110040262729,-0.986952075127,-0.108444320816,1.0,0.0,0.0,0.0,1.0,0.0,0.0,0.0,1.0,-0.480695724487,-0.0352589525282,-0.147053033113,1.21846967915e-07,0.0,0.0,0.0,1.21846967915e-07,0.0,0.0,0.0,1.21846967915e-07,-0.3138128,0.588399,11.81701325,9e-08,0.0,0.0,0.0,9e-08,0.0,0.0,0.0,9e-08
1536690317125104241,4719,1536690317122818054,base_link,-0.034588914029,-0.0354220414009,-0.989607579994,-0.135002680072,1.0,0.0,0.0,0.0,1.0,0.0,0.0,0.0,1.0,-0.351186990738,0.0455369278789,-0.106502696872,1.21846967915e-07,0.0,0.0,0.0,1.21846967915e-07,0.0,0.0,0.0,1.21846967915e-07,-0.588399,0.51975245,10.30678915,9e-08,0.0,0.0,0.0,9e-08,0.0,0.0,0.0,9e-08
1536690317559278072,4720,1536690317558931557,base_link,-0.00636015684486,0.0287973309414,-0.98945312516,-0.141819516451,1.0,0.0,0.0,0.0,1.0,0.0,0.0,0.0,1.0,-0.172980129719,0.119879171252,0.0722060501575,1.21846967915e-07,0.0,0.0,0.0,1.21846967915e-07,0.0,0.0,0.0,1.21846967915e-07,-0.7256921,0.0196133,7.67860695,9e-08,0.0,0.0,0.0,9e-08,0.0,0.0,0.0,9e-08
1536690317860207082,4721,1536690317859926389,base_link,0.0170065413083,0.0431241474434,-0.990835742433,-0.126868502703,1.0,0.0,0.0,0.0,1.0,0.0,0.0,0.0,1.0,-0.0622089169919,0.171224445105,0.114463590086,1.21846967915e-07,0.0,0.0,0.0,1.21846967915e-07,0.0,0.0,0.0,1.21846967915e-07,-0.89240515,0.3726527,7.52170055,9e-08,0.0,0.0,0.0,9e-08,0.0,0.0,0.0,9e-08
1536690318326050146,4722,1536690318325716686,base_link,0.0657449517465,0.0504697739435,-0.988662860216,-0.125204441084,1.0,0.0,0.0,0.0,1.0,0.0,0.0,0.0,1.0,0.0216043479741,0.258058965206,-0.0752265304327,1.21846967915e-07,0.0,0.0,0.0,1.21846967915e-07,0.0,0.0,0.0,1.21846967915e-07,-1.06892485,0.30400615,5.9232166,9e-08,0.0,0.0,0.0,9e-08,0.0,0.0,0.0,9e-08
1536690318824502441,4723,1536690318823408913,base_link,0.0967641256235,-0.0226700538952,-0.98543102094,-0.138016215052,1.0,0.0,0.0,0.0,1.0,0.0,0.0,0.0,1.0,0.0622815452516,0.0496970936656,0.0772076100111,1.21846967915e-07,0.0,0.0,0.0,1.21846967915e-07,0.0,0.0,0.0,1.21846967915e-07,-0.95124505,0.0784532,5.16810455,9e-08,0.0,0.0,0.0,9e-08,0.0,0.0,0.0,9e-08
1536690319201002300,4724,1536690319200785188,base_link,0.102993877301,-0.0159938152337,-0.988820040357,-0.106636705221,1.0,0.0,0.0,0.0,1.0,0.0,0.0,0.0,1.0,-0.215969115496,0.0086286328733,0.173428714275,1.21846967915e-07,0.0,0.0,0.0,1.21846967915e-07,0.0,0.0,0.0,1.21846967915e-07,-0.87279185,0.34323275,8.6102387,9e-08,0.0,0.0,0.0,9e-08,0.0,0.0,0.0,9e-08
1536690319657849055,4725,1536690319657311698,base_link,0.11711891879,0.0198112154755,-0.989727167097,-0.0795663830582,1.0,0.0,0.0,0.0,1.0,0.0,0.0,0.0,1.0,-0.10814845562,0.0319822132587,0.029693480581,1.21846967915e-07,0.0,0.0,0.0,1.21846967915e-07,0.0,0.0,0.0,1.21846967915e-07,-0.81395195,0.18632635,8.9240515,9e-08,0.0,0.0,0.0,9e-08,0.0,0.0,0.0,9e-08
1536690320119616589,4726,1536690320119224699,base_link,0.102352421796,0.0309412340161,-0.991934989777,-0.0680558435905,1.0,0.0,0.0,0.0,1.0,0.0,0.0,0.0,1.0,-0.136956110597,0.00942478142679,-0.0238660573959,1.21846967915e-07,0.0,0.0,0.0,1.21846967915e-07,0.0,0.0,0.0,1.21846967915e-07,-0.57859235,0.588399,10.1204628,9e-08,0.0,0.0,0.0,9e-08,0.0,0.0,0.0,9e-08
1536690320396714637,4727,1536690320396266366,base_link,0.0942479380813,0.0448309203857,-0.992292677278,-0.0668038723754,1.0,0.0,0.0,0.0,1.0,0.0,0.0,0.0,1.0,-0.0113503113389,-0.0801083445549,0.0295695848763,1.21846967915e-07,0.0,0.0,0.0,1.21846967915e-07,0.0,0.0,0.0,1.21846967915e-07,-0.40207265,0.04903325,11.20900095,9e-08,0.0,0.0,0.0,9e-08,0.0,0.0,0.0,9e-08
1536690320893517776,4728,1536690320893188988,base_link,0.0535804806549,0.0265914751487,-0.997354969051,-0.0412927506012,1.0,0.0,0.0,0.0,1.0,0.0,0.0,0.0,1.0,0.0297674909234,-0.134111493826,0.136961713433,1.21846967915e-07,0.0,0.0,0.0,1.21846967915e-07,0.0,0.0,0.0,1.21846967915e-07,-0.1372931,0.2353596,12.1994726,9e-08,0.0,0.0,0.0,9e-08,0.0,0.0,0.0,9e-08
1536690321245593383,4729,1536690321245021148,base_link,0.0343306585491,0.0202084909239,-0.999147285234,-0.0108501238905,1.0,0.0,0.0,0.0,1.0,0.0,0.0,0.0,1.0,0.0321852378547,-0.133640170097,0.118136964738,1.21846967915e-07,0.0,0.0,0.0,1.21846967915e-07,0.0,0.0,0.0,1.21846967915e-07,0.0784532,0.63743225,12.38579895,9e-08,0.0,0.0,0.0,9e-08,0.0,0.0,0.0,9e-08
1536690321597480068,4730,1536690321597187407,base_link,0.00681774748967,0.0124112481786,-0.999899375653,0.00084723429174,1.0,0.0,0.0,0.0,1.0,0.0,0.0,0.0,1.0,0.186552792788,-0.152416169643,0.0262598302215,1.21846967915e-07,0.0,0.0,0.0,1.21846967915e-07,0.0,0.0,0.0,1.21846967915e-07,0.22555295,0.40207265,13.42530385,9e-08,0.0,0.0,0.0,9e-08,0.0,0.0,0.0,9e-08
1536690322067459428,4731,1536690322066717887,base_link,-0.012791090138,-0.0210737691767,-0.999650980675,0.00949742600372,1.0,0.0,0.0,0.0,1.0,0.0,0.0,0.0,1.0,0.168915078044,-0.0867074355483,0.0517872050405,1.21846967915e-07,0.0,0.0,0.0,1.21846967915e-07,0.0,0.0,0.0,1.21846967915e-07,0.24516625,0.3138128,11.46397385,9e-08,0.0,0.0,0.0,9e-08,0.0,0.0,0.0,9e-08
1536690322361177984,4732,1536690322360887083,base_link,-0.0265446009846,-0.0312752121181,-0.998975305138,0.019120276937,1.0,0.0,0.0,0.0,1.0,0.0,0.0,0.0,1.0,0.0681244879961,-0.0794785991311,0.0423436909914,1.21846967915e-07,0.0,0.0,0.0,1.21846967915e-07,0.0,0.0,0.0,1.21846967915e-07,0.26477955,0.392266,10.36562905,9e-08,0.0,0.0,0.0,9e-08,0.0,0.0,0.0,9e-08
1536690322856076138,4733,1536690322855795028,base_link,-0.0234122955537,-0.0249630989081,-0.999329923547,0.0129773653867,1.0,0.0,0.0,0.0,1.0,0.0,0.0,0.0,1.0,-0.0538810193539,0.0471085682511,-0.0629943534732,1.21846967915e-07,0.0,0.0,0.0,1.21846967915e-07,0.0,0.0,0.0,1.21846967915e-07,0.14709975,0.26477955,10.95402805,9e-08,0.0,0.0,0.0,9e-08,0.0,0.0,0.0,9e-08
1536690323216501197,4734,1536690323216019390,base_link,-0.0167218276455,-0.0504282086707,-0.998542902636,0.00945768715283,1.0,0.0,0.0,0.0,1.0,0.0,0.0,0.0,1.0,0.138434886932,0.0186530016363,0.0483478680253,1.21846967915e-07,0.0,0.0,0.0,1.21846967915e-07,0.0,0.0,0.0,1.21846967915e-07,0.2157463,-0.08825985,9.2967042,9e-08,0.0,0.0,0.0,9e-08,0.0,0.0,0.0,9e-08
1536690323660756479,4735,1536690323660443115,base_link,-0.0190165257943,-0.0754024026699,-0.996714742381,0.0226400472475,1.0,0.0,0.0,0.0,1.0,0.0,0.0,0.0,1.0,0.112814545631,0.0721762031317,0.000165953068063,1.21846967915e-07,0.0,0.0,0.0,1.21846967915e-07,0.0,0.0,0.0,1.21846967915e-07,0.16671305,0.8041453,9.8851032,9e-08,0.0,0.0,0.0,9e-08,0.0,0.0,0.0,9e-08
1536690324036841570,4736,1536690324036395538,base_link,-0.00496825778713,-0.0843584226864,-0.996365450518,0.0107173667551,1.0,0.0,0.0,0.0,1.0,0.0,0.0,0.0,1.0,0.0846352726221,0.0894876942039,-0.129169985652,1.21846967915e-07,0.0,0.0,0.0,1.21846967915e-07,0.0,0.0,0.0,1.21846967915e-07,0.0196133,0.51975245,8.71811185,9e-08,0.0,0.0,0.0,9e-08,0.0,0.0,0.0,9e-08
1536690324460893885,4737,1536690324460578216,base_link,-0.00273574119641,-0.101573212537,-0.994747376099,-0.0123715786882,1.0,0.0,0.0,0.0,1.0,0.0,0.0,0.0,1.0,0.00229473691434,0.0182608608156,-0.0978314653039,1.21846967915e-07,0.0,0.0,0.0,1.21846967915e-07,0.0,0.0,0.0,1.21846967915e-07,0.10787315,0.38245935,10.42446895,9e-08,0.0,0.0,0.0,9e-08,0.0,0.0,0.0,9e-08
1536690324910906748,4738,1536690324910543913,base_link,-0.00116863631172,-0.108880485545,-0.993727245644,-0.0254918697092,1.0,0.0,0.0,0.0,1.0,0.0,0.0,0.0,1.0,0.00669291662052,0.0162211488932,-0.0611580573022,1.21846967915e-07,0.0,0.0,0.0,1.21846967915e-07,0.0,0.0,0.0,1.21846967915e-07,0.2353596,0.5491724,9.60071035,9e-08,0.0,0.0,0.0,9e-08,0.0,0.0,0.0,9e-08
1536690325215924568,4739,1536690325212961765,base_link,0.00284470147303,-0.0918615878004,-0.995084202546,-0.0368888357641,1.0,0.0,0.0,0.0,1.0,0.0,0.0,0.0,1.0,-0.0954502820969,0.0611212030053,-0.0640276521444,1.21846967915e-07,0.0,0.0,0.0,1.21846967915e-07,0.0,0.0,0.0,1.21846967915e-07,0.12748645,0.50013915,9.87529655,9e-08,0.0,0.0,0.0,9e-08,0.0,0.0,0.0,9e-08
1536690325513394826,4740,1536690325511940095,base_link,0.011712084342,-0.0773913583309,-0.995833468146,-0.0467879092901,1.0,0.0,0.0,0.0,1.0,0.0,0.0,0.0,1.0,-0.163016170263,0.0272471606731,-0.0729729533195,1.21846967915e-07,0.0,0.0,0.0,1.21846967915e-07,0.0,0.0,0.0,1.21846967915e-07,0.22555295,0.5295591,9.91452315,9e-08,0.0,0.0,0.0,9e-08,0.0,0.0,0.0,9e-08
1536690325924697947,4741,1536690325924388934,base_link,0.0177800287051,-0.0495849574996,-0.996868869336,-0.0589716874205,1.0,0.0,0.0,0.0,1.0,0.0,0.0,0.0,1.0,-0.00196782872081,0.0528611578047,-0.0702638998628,1.21846967915e-07,0.0,0.0,0.0,1.21846967915e-07,0.0,0.0,0.0,1.21846967915e-07,0.1765197,0.588399,10.0616229,9e-08,0.0,0.0,0.0,9e-08,0.0,0.0,0.0,9e-08
1536690326399865275,4742,1536690326399253617,base_link,0.0186391582033,-0.048834694023,-0.996535777399,-0.064685383234,1.0,0.0,0.0,0.0,1.0,0.0,0.0,0.0,1.0,0.0298942122608,-0.0489902421832,0.0614950023592,1.21846967915e-07,0.0,0.0,0.0,1.21846967915e-07,0.0,0.0,0.0,1.21846967915e-07,0.24516625,-0.02941995,9.99297635,9e-08,0.0,0.0,0.0,9e-08,0.0,0.0,0.0,9e-08
1536690326874036352,4743,1536690326873644174,base_link,0.00898323966519,-0.0315085940329,-0.998257870407,-0.0490686669713,1.0,0.0,0.0,0.0,1.0,0.0,0.0,0.0,1.0,-0.115528889,-0.0362361744046,0.0428295843303,1.21846967915e-07,0.0,0.0,0.0,1.21846967915e-07,0.0,0.0,0.0,1.21846967915e-07,0.3138128,0.4707192,10.8265416,9e-08,0.0,0.0,0.0,9e-08,0.0,0.0,0.0,9e-08
1536690327253596482,4744,1536690327253327628,base_link,-0.00045681724148,-0.0204953458043,-0.998547813424,-0.0498196389499,1.0,0.0,0.0,0.0,1.0,0.0,0.0,0.0,1.0,0.0824296325445,-0.0360500104725,-0.0179121326655,1.21846967915e-07,0.0,0.0,0.0,1.21846967915e-07,0.0,0.0,0.0,1.21846967915e-07,0.2745862,0.32361945,11.66010685,9e-08,0.0,0.0,0.0,9e-08,0.0,0.0,0.0,9e-08
1536690327621499793,4745,1536690327620825354,base_link,-0.000598299660549,-0.0197109348082,-0.998463732913,-0.0517812238466,1.0,0.0,0.0,0.0,1.0,0.0,0.0,0.0,1.0,0.00815638527274,0.0471227243543,-0.0294429454952,1.21846967915e-07,0.0,0.0,0.0,1.21846967915e-07,0.0,0.0,0.0,1.21846967915e-07,0.10787315,0.3138128,9.22805765,9e-08,0.0,0.0,0.0,9e-08,0.0,0.0,0.0,9e-08
1536690328079861469,4746,1536690328079534825,base_link,-6.91381302184e-05,-0.0217837354551,-0.998465258542,-0.0509174977202,1.0,0.0,0.0,0.0,1.0,0.0,0.0,0.0,1.0,-0.0584829114377,-0.0470057204366,0.0471635311842,1.21846967915e-07,0.0,0.0,0.0,1.21846967915e-07,0.0,0.0,0.0,1.21846967915e-07,0.12748645,0.26477955,8.93385815,9e-08,0.0,0.0,0.0,9e-08,0.0,0.0,0.0,9e-08
1536690328575770177,4747,1536690328575408078,base_link,-0.00822094009906,-0.0322643654111,-0.998248149234,-0.0489086844897,1.0,0.0,0.0,0.0,1.0,0.0,0.0,0.0,1.0,0.0569520816207,-0.0301077831537,0.021161865443,1.21846967915e-07,0.0,0.0,0.0,1.21846967915e-07,0.0,0.0,0.0,1.21846967915e-07,0.20593965,0.38245935,10.11065615,9e-08,0.0,0.0,0.0,9e-08,0.0,0.0,0.0,9e-08
1536690328967743930,4748,1536690328965179096,base_link,-0.00925016142722,-0.0381553637707,-0.998482241747,-0.0386240293713,1.0,0.0,0.0,0.0,1.0,0.0,0.0,0.0,1.0,0.0271737761796,0.1511028409,0.0438475199044,1.21846967915e-07,0.0,0.0,0.0,1.21846967915e-07,0.0,0.0,0.0,1.21846967915e-07,0.0392266,0.16671305,10.54214875,9e-08,0.0,0.0,0.0,9e-08,0.0,0.0,0.0,9e-08
1536690329474034048,4749,1536690329473679469,base_link,0.00437105845602,-0.0371062815999,-0.998859880013,-0.0297146060626,1.0,0.0,0.0,0.0,1.0,0.0,0.0,0.0,1.0,0.040880151093,0.0250948239118,-0.0173129811883,1.21846967915e-07,0.0,0.0,0.0,1.21846967915e-07,0.0,0.0,0.0,1.21846967915e-07,0.1176798,0.7649187,9.87529655,9e-08,0.0,0.0,0.0,9e-08,0.0,0.0,0.0,9e-08
1536690329864007906,4750,1536690329863751244,base_link,0.013049558281,-0.0506632107862,-0.997961469712,-0.0365493238125,1.0,0.0,0.0,0.0,1.0,0.0,0.0,0.0,1.0,0.15749643743,0.0663356930017,-0.0565554946661,1.21846967915e-07,0.0,0.0,0.0,1.21846967915e-07,0.0,0.0,0.0,1.21846967915e-07,0.0980665,0.7060788,9.1594111,9e-08,0.0,0.0,0.0,9e-08,0.0,0.0,0.0,9e-08
1536690330308229366,4751,1536690330307933121,base_link,0.0140299047812,-0.0933183505947,-0.994479829622,-0.0458771804849,1.0,0.0,0.0,0.0,1.0,0.0,0.0,0.0,1.0,0.234805375338,0.0249069649726,0.0216610059142,1.21846967915e-07,0.0,0.0,0.0,1.21846967915e-07,0.0,0.0,0.0,1.21846967915e-07,0.4314926,-0.04903325,13.64105015,9e-08,0.0,0.0,0.0,9e-08,0.0,0.0,0.0,9e-08
1536690330619040669,4752,1536690330618741640,base_link,0.0121740083049,-0.0879639202691,-0.995714280148,-0.0258304967431,1.0,0.0,0.0,0.0,1.0,0.0,0.0,0.0,1.0,-0.22095118463,0.0395442843437,0.119788646698,1.21846967915e-07,0.0,0.0,0.0,1.21846967915e-07,0.0,0.0,0.0,1.21846967915e-07,0.1372931,0.8041453,10.6892485,9e-08,0.0,0.0,0.0,9e-08,0.0,0.0,0.0,9e-08
1536690330962497745,4753,1536690330962102880,base_link,0.00724520534705,-0.0493652088884,-0.998591624503,-0.0180374782899,1.0,0.0,0.0,0.0,1.0,0.0,0.0,0.0,1.0,-0.170022681355,-0.0445993058383,-0.0127335479483,1.21846967915e-07,0.0,0.0,0.0,1.21846967915e-07,0.0,0.0,0.0,1.21846967915e-07,-0.12748645,0.7256921,8.40429905,9e-08,0.0,0.0,0.0,9e-08,0.0,0.0,0.0,9e-08
1536690331364959208,4754,1536690331364451802,base_link,0.00407388356923,-0.0148603551952,-0.999265783793,-0.0350780081665,1.0,0.0,0.0,0.0,1.0,0.0,0.0,0.0,1.0,-0.0850498303771,-0.00543464068323,-0.0781928673387,1.21846967915e-07,0.0,0.0,0.0,1.21846967915e-07,0.0,0.0,0.0,1.21846967915e-07,0.14709975,0.3530394,10.22833595,9e-08,0.0,0.0,0.0,9e-08,0.0,0.0,0.0,9e-08
1536690331772153552,4755,1536690331771658978,base_link,0.00194781106754,-0.0119529668304,-0.999231770415,-0.0372719949738,1.0,0.0,0.0,0.0,1.0,0.0,0.0,0.0,1.0,0.124148838222,0.0255359429866,-0.00143309542909,1.21846967915e-07,0.0,0.0,0.0,1.21846967915e-07,0.0,0.0,0.0,1.21846967915e-07,0.2353596,0.4903325,9.93413645,9e-08,0.0,0.0,0.0,9e-08,0.0,0.0,0.0,9e-08
1536690332180457935,4756,1536690332179820839,base_link,0.0161013916702,-0.0640407010326,-0.996703920561,-0.0471256674941,1.0,0.0,0.0,0.0,1.0,0.0,0.0,0.0,1.0,0.331622332335,0.0511337071657,-0.0551258660853,1.21846967915e-07,0.0,0.0,0.0,1.21846967915e-07,0.0,0.0,0.0,1.21846967915e-07,0.0,0.18632635,8.62004535,9e-08,0.0,0.0,0.0,9e-08,0.0,0.0,0.0,9e-08
1536690332653648888,4757,1536690332653307461,base_link,0.0123513334587,-0.140576604339,-0.988416156371,-0.0558494825327,1.0,0.0,0.0,0.0,1.0,0.0,0.0,0.0,1.0,0.294651210308,0.0194557234645,-0.0231499932706,1.21846967915e-07,0.0,0.0,0.0,1.21846967915e-07,0.0,0.0,0.0,1.21846967915e-07,0.18632635,0.77472535,12.0817928,9e-08,0.0,0.0,0.0,9e-08,0.0,0.0,0.0,9e-08
1536690333063893296,4758,1536690333061137685,base_link,0.00942046760958,-0.209741768864,-0.9751987373,-0.0700504671857,1.0,0.0,0.0,0.0,1.0,0.0,0.0,0.0,1.0,0.35012793541,0.01753536053,-0.114724427462,1.21846967915e-07,0.0,0.0,0.0,1.21846967915e-07,0.0,0.0,0.0,1.21846967915e-07,0.0392266,0.7453054,11.0030613,9e-08,0.0,0.0,0.0,9e-08,0.0,0.0,0.0,9e-08
1536690333490483886,4759,1536690333490285717,base_link,0.0116547353566,-0.251664131455,-0.960585171169,-0.117496642563,1.0,0.0,0.0,0.0,1.0,0.0,0.0,0.0,1.0,0.169593349099,0.0218145493418,-0.274449706078,1.21846967915e-07,0.0,0.0,0.0,1.21846967915e-07,0.0,0.0,0.0,1.21846967915e-07,0.0,0.99047165,10.5323421,9e-08,0.0,0.0,0.0,9e-08,0.0,0.0,0.0,9e-08
1536690333891146246,4760,1536690333890860913,base_link,0.00382806396754,-0.302914130419,-0.9349255185,-0.184777299408,1.0,0.0,0.0,0.0,1.0,0.0,0.0,0.0,1.0,0.319939345121,-0.136045366526,-0.28985619545,1.21846967915e-07,0.0,0.0,0.0,1.21846967915e-07,0.0,0.0,0.0,1.21846967915e-07,0.02941995,0.0392266,7.91396655,9e-08,0.0,0.0,0.0,9e-08,0.0,0.0,0.0,9e-08
1536690334371954007,4761,1536690334371646658,base_link,-0.0416674424268,-0.354634058589,-0.902544260099,-0.240649885295,1.0,0.0,0.0,0.0,1.0,0.0,0.0,0.0,1.0,0.15970133245,-0.277134031057,-0.196126744151,1.21846967915e-07,0.0,0.0,0.0,1.21846967915e-07,0.0,0.0,0.0,1.21846967915e-07,0.67665885,1.26505785,12.1994726,9e-08,0.0,0.0,0.0,9e-08,0.0,0.0,0.0,9e-08
1536690334724213447,4762,1536690334723914258,base_link,-0.0675676590503,-0.35507573519,-0.883453976115,-0.298102173452,1.0,0.0,0.0,0.0,1.0,0.0,0.0,0.0,1.0,-0.0613103881478,-0.253729552031,-0.310276597738,1.21846967915e-07,0.0,0.0,0.0,1.21846967915e-07,0.0,0.0,0.0,1.21846967915e-07,0.9218251,0.8433719,12.0817928,9e-08,0.0,0.0,0.0,9e-08,0.0,0.0,0.0,9e-08
1536690335037469459,4763,1536690335036875337,base_link,-0.0935624121343,-0.351727970281,-0.858789299874,-0.360575163287,1.0,0.0,0.0,0.0,1.0,0.0,0.0,0.0,1.0,0.10575337708,-0.339556843042,-0.335457921028,1.21846967915e-07,0.0,0.0,0.0,1.21846967915e-07,0.0,0.0,0.0,1.21846967915e-07,1.0198916,0.89240515,12.9840046,9e-08,0.0,0.0,0.0,9e-08,0.0,0.0,0.0,9e-08
1536690335484383556,4764,1536690335481716486,base_link,-0.146989535103,-0.343823278756,-0.814683945901,-0.443249024642,1.0,0.0,0.0,0.0,1.0,0.0,0.0,0.0,1.0,0.045451220125,-0.399684995413,-0.263652831316,1.21846967915e-07,0.0,0.0,0.0,1.21846967915e-07,0.0,0.0,0.0,1.21846967915e-07,1.61809725,0.71588545,15.9848395,9e-08,0.0,0.0,0.0,9e-08,0.0,0.0,0.0,9e-08
1536690335776078859,4765,1536690335775824244,base_link,-0.188132867163,-0.32013031791,-0.781451077255,-0.501454701548,1.0,0.0,0.0,0.0,1.0,0.0,0.0,0.0,1.0,-0.0999084115028,-0.379620194435,-0.29464751482,1.21846967915e-07,0.0,0.0,0.0,1.21846967915e-07,0.0,0.0,0.0,1.21846967915e-07,1.372931,1.22583125,16.0044528,9e-08,0.0,0.0,0.0,9e-08,0.0,0.0,0.0,9e-08
1536690336158083315,4766,1536690336157820445,base_link,-0.22300862469,-0.279174693275,-0.73909553547,-0.571022270491,1.0,0.0,0.0,0.0,1.0,0.0,0.0,0.0,1.0,-0.0718116462231,-0.509580790997,-0.181314274669,1.21846967915e-07,0.0,0.0,0.0,1.21846967915e-07,0.0,0.0,0.0,1.21846967915e-07,1.4121576,0.2353596,14.85707475,9e-08,0.0,0.0,0.0,9e-08,0.0,0.0,0.0,9e-08
1536690336605262362,4767,1536690336604924295,base_link,-0.232575047605,-0.207638709933,-0.704098122004,-0.637997529744,1.0,0.0,0.0,0.0,1.0,0.0,0.0,0.0,1.0,-0.277859717607,-0.330511331558,-0.23676109314,1.21846967915e-07,0.0,0.0,0.0,1.21846967915e-07,0.0,0.0,0.0,1.21846967915e-07,0.97085835,0.6472389,14.77862155,9e-08,0.0,0.0,0.0,9e-08,0.0,0.0,0.0,9e-08
1536690337022785382,4768,1536690337021296509,base_link,-0.217775827751,-0.123359973203,-0.677559005678,-0.691570531243,1.0,0.0,0.0,0.0,1.0,0.0,0.0,0.0,1.0,-0.312827587128,-0.250505626202,-0.152377903461,1.21846967915e-07,0.0,0.0,0.0,1.21846967915e-07,0.0,0.0,0.0,1.21846967915e-07,0.4903325,0.91201845,15.1218543,9e-08,0.0,0.0,0.0,9e-08,0.0,0.0,0.0,9e-08
1536690337534862039,4769,1536690337531449268,base_link,-0.120281819324,-0.0307732697708,-0.641968736035,-0.756611810482,1.0,0.0,0.0,0.0,1.0,0.0,0.0,0.0,1.0,-0.561610221863,0.0789822861552,-0.21280606091,1.21846967915e-07,0.0,0.0,0.0,1.21846967915e-07,0.0,0.0,0.0,1.21846967915e-07,0.02941995,0.69627215,9.414384,9e-08,0.0,0.0,0.0,9e-08,0.0,0.0,0.0,9e-08
1536690337865134928,4770,1536690337864903097,base_link,-0.0493877611916,0.0188825657206,-0.614614943694,-0.787053218495,1.0,0.0,0.0,0.0,1.0,0.0,0.0,0.0,1.0,-0.38017770648,-0.0191607121378,-0.144626021385,1.21846967915e-07,0.0,0.0,0.0,1.21846967915e-07,0.0,0.0,0.0,1.21846967915e-07,-0.1372931,0.08825985,10.8853815,9e-08,0.0,0.0,0.0,9e-08,0.0,0.0,0.0,9e-08
1536690338353976921,4771,1536690338353401006,base_link,0.0168680720971,0.0427722618837,-0.606017818586,-0.794121152793,1.0,0.0,0.0,0.0,1.0,0.0,0.0,0.0,1.0,-0.254111379385,0.0414734743536,0.0589665323496,1.21846967915e-07,0.0,0.0,0.0,1.21846967915e-07,0.0,0.0,0.0,1.21846967915e-07,-0.4511059,0.1569064,8.1591328,9e-08,0.0,0.0,0.0,9e-08,0.0,0.0,0.0,9e-08
1536690338701327390,4772,1536690338701053640,base_link,0.041669181737,0.0494282298984,-0.613920689808,-0.786715905527,1.0,0.0,0.0,0.0,1.0,0.0,0.0,0.0,1.0,-0.148928835988,0.100242584944,0.0769933089614,1.21846967915e-07,0.0,0.0,0.0,1.21846967915e-07,0.0,0.0,0.0,1.21846967915e-07,-0.34323275,0.08825985,8.87501825,9e-08,0.0,0.0,0.0,9e-08,0.0,0.0,0.0,9e-08
1536690339134698562,4773,1536690339134133334,base_link,0.0622861445786,0.0198231015021,-0.626174354039,-0.776938323925,1.0,0.0,0.0,0.0,1.0,0.0,0.0,0.0,1.0,0.0209851972759,0.152312591672,0.0584550015628,1.21846967915e-07,0.0,0.0,0.0,1.21846967915e-07,0.0,0.0,0.0,1.21846967915e-07,-0.67665885,0.34323275,6.36451585,9e-08,0.0,0.0,0.0,9e-08,0.0,0.0,0.0,9e-08
1536690339553173962,4774,1536690339552623038,base_link,0.0731221310824,-0.0084980591568,-0.636568604543,-0.767698735603,1.0,0.0,0.0,0.0,1.0,0.0,0.0,0.0,1.0,0.0842536389828,0.196955382824,0.0547251030803,1.21846967915e-07,0.0,0.0,0.0,1.21846967915e-07,0.0,0.0,0.0,1.21846967915e-07,-0.65704555,0.10787315,8.2964259,9e-08,0.0,0.0,0.0,9e-08,0.0,0.0,0.0,9e-08
1536690339859266911,4775,1536690339859001256,base_link,0.0891980267642,-0.0366433049704,-0.638072442031,-0.763913960432,1.0,0.0,0.0,0.0,1.0,0.0,0.0,0.0,1.0,-0.0777950882912,0.132459104061,0.00952282827348,1.21846967915e-07,0.0,0.0,0.0,1.21846967915e-07,0.0,0.0,0.0,1.21846967915e-07,-0.8041453,0.4118793,7.09020795,9e-08,0.0,0.0,0.0,9e-08,0.0,0.0,0.0,9e-08
1536690340161139918,4776,1536690340160764028,base_link,0.0920627257049,-0.0487649719596,-0.642715179793,-0.758988557034,1.0,0.0,0.0,0.0,1.0,0.0,0.0,0.0,1.0,0.0535736307502,0.0617916807532,0.0751748383045,1.21846967915e-07,0.0,0.0,0.0,1.21846967915e-07,0.0,0.0,0.0,1.21846967915e-07,-0.77472535,0.32361945,8.65927195,9e-08,0.0,0.0,0.0,9e-08,0.0,0.0,0.0,9e-08
1536690340610839801,4777,1536690340610592130,base_link,0.0874826954179,-0.0663685629575,-0.662167581243,-0.741266541943,1.0,0.0,0.0,0.0,1.0,0.0,0.0,0.0,1.0,0.0186494290829,-0.022379392758,0.102188721299,1.21846967915e-07,0.0,0.0,0.0,1.21846967915e-07,0.0,0.0,0.0,1.21846967915e-07,-0.8629852,0.2745862,8.825985,9e-08,0.0,0.0,0.0,9e-08,0.0,0.0,0.0,9e-08
1536690341044052131,4778,1536690341043860618,base_link,0.0880219154553,-0.0735918364861,-0.667453646259,-0.735759481147,1.0,0.0,0.0,0.0,1.0,0.0,0.0,0.0,1.0,-0.0225573219359,0.0830966457725,-0.0466610901058,1.21846967915e-07,0.0,0.0,0.0,1.21846967915e-07,0.0,0.0,0.0,1.21846967915e-07,-0.93163175,0.392266,8.8652116,9e-08,0.0,0.0,0.0,9e-08,0.0,0.0,0.0,9e-08
1536690341458818868,4779,1536690341458331526,base_link,0.0740285723932,-0.0699195699496,-0.670077551671,-0.735273485823,1.0,0.0,0.0,0.0,1.0,0.0,0.0,0.0,1.0,0.106312386692,-0.0991349816322,0.0833190083504,1.21846967915e-07,0.0,0.0,0.0,1.21846967915e-07,0.0,0.0,0.0,1.21846967915e-07,-0.7060788,-0.12748645,10.42446895,9e-08,0.0,0.0,0.0,9e-08,0.0,0.0,0.0,9e-08
1536690341871501746,4780,1536690341871139487,base_link,0.0511739237293,-0.0586155577841,-0.698849667506,-0.711023619961,1.0,0.0,0.0,0.0,1.0,0.0,0.0,0.0,1.0,0.0552471615374,-0.151597693563,0.211033761501,1.21846967915e-07,0.0,0.0,0.0,1.21846967915e-07,0.0,0.0,0.0,1.21846967915e-07,-0.4707192,0.26477955,12.26811915,9e-08,0.0,0.0,0.0,9e-08,0.0,0.0,0.0,9e-08
1536690342278166094,4781,1536690342277952341,base_link,0.0418072585328,-0.0461676040565,-0.712952727724,-0.698440486727,1.0,0.0,0.0,0.0,1.0,0.0,0.0,0.0,1.0,0.0657303780317,-0.0806680545211,-0.0227081589401,1.21846967915e-07,0.0,0.0,0.0,1.21846967915e-07,0.0,0.0,0.0,1.21846967915e-07,-0.34323275,0.5491724,12.4152189,9e-08,0.0,0.0,0.0,9e-08,0.0,0.0,0.0,9e-08
1536690342682542493,4782,1536690342682278471,base_link,0.0256345303779,-0.0312108021879,-0.709903199875,-0.703140244536,1.0,0.0,0.0,0.0,1.0,0.0,0.0,0.0,1.0,0.0150595698506,-0.00694120395929,-0.0963945090771,1.21846967915e-07,0.0,0.0,0.0,1.21846967915e-07,0.0,0.0,0.0,1.21846967915e-07,-0.5295591,0.46091255,10.8853815,9e-08,0.0,0.0,0.0,9e-08,0.0,0.0,0.0,9e-08
1536690343019111503,4783,1536690343018743229,base_link,0.0169580506734,-0.0321120157049,-0.704699610313,-0.708575826704,1.0,0.0,0.0,0.0,1.0,0.0,0.0,0.0,1.0,0.264641940594,-0.044192828238,0.0310289412737,1.21846967915e-07,0.0,0.0,0.0,1.21846967915e-07,0.0,0.0,0.0,1.21846967915e-07,-0.63743225,0.0784532,10.2773692,9e-08,0.0,0.0,0.0,9e-08,0.0,0.0,0.0,9e-08
1536690343496468095,4784,1536690343496149035,base_link,-0.0147757113087,-0.0569876640982,-0.71334683772,-0.698333998607,1.0,0.0,0.0,0.0,1.0,0.0,0.0,0.0,1.0,-0.0603560060263,0.069966211915,0.0436747148633,1.21846967915e-07,0.0,0.0,0.0,1.21846967915e-07,0.0,0.0,0.0,1.21846967915e-07,-0.59820565,0.30400615,9.1594111,9e-08,0.0,0.0,0.0,9e-08,0.0,0.0,0.0,9e-08
1536690343924482984,4785,1536690343924158164,base_link,-0.00596337028589,-0.06183015528,-0.712661430853,-0.69875257072,1.0,0.0,0.0,0.0,1.0,0.0,0.0,0.0,1.0,0.0831770151854,0.0674400478601,-0.0671453773975,1.21846967915e-07,0.0,0.0,0.0,1.21846967915e-07,0.0,0.0,0.0,1.21846967915e-07,-0.588399,0.5491724,8.89463155,9e-08,0.0,0.0,0.0,9e-08,0.0,0.0,0.0,9e-08
1536690344209088116,4786,1536690344208676259,base_link,-0.0135934189921,-0.0655401319076,-0.704927554443,-0.706113909406,1.0,0.0,0.0,0.0,1.0,0.0,0.0,0.0,1.0,0.101974539459,-0.0634558647871,-0.0819716453552,1.21846967915e-07,0.0,0.0,0.0,1.21846967915e-07,0.0,0.0,0.0,1.21846967915e-07,-0.5295591,0.196133,9.1005712,9e-08,0.0,0.0,0.0,9e-08,0.0,0.0,0.0,9e-08
1536690344591049630,4787,1536690344590329752,base_link,-0.0329935213351,-0.0677601763376,-0.703606454992,-0.7065818725,1.0,0.0,0.0,0.0,1.0,0.0,0.0,0.0,1.0,-0.0266476273537,-0.0106671033427,0.0730955004692,1.21846967915e-07,0.0,0.0,0.0,1.21846967915e-07,0.0,0.0,0.0,1.21846967915e-07,-0.38245935,0.12748645,10.3558224,9e-08,0.0,0.0,0.0,9e-08,0.0,0.0,0.0,9e-08
1536690345016355019,4788,1536690345016127763,base_link,-0.00434097423806,-0.0541140968555,-0.706310911505,-0.705817056151,1.0,0.0,0.0,0.0,1.0,0.0,0.0,0.0,1.0,-0.101943567395,0.0703780204058,-0.0694436281919,1.21846967915e-07,0.0,0.0,0.0,1.21846967915e-07,0.0,0.0,0.0,1.21846967915e-07,-0.36284605,0.26477955,8.26700595,9e-08,0.0,0.0,0.0,9e-08,0.0,0.0,0.0,9e-08
1536690345466156721,4789,1536690345465926970,base_link,-0.00106023450892,-0.0525226911834,-0.697762680795,-0.714400086858,1.0,0.0,0.0,0.0,1.0,0.0,0.0,0.0,1.0,0.135845065117,0.0124339684844,-0.042908873409,1.21846967915e-07,0.0,0.0,0.0,1.21846967915e-07,0.0,0.0,0.0,1.21846967915e-07,-0.2549729,0.2353596,9.91452315,9e-08,0.0,0.0,0.0,9e-08,0.0,0.0,0.0,9e-08
1536690345866302813,4790,1536690345866031463,base_link,-0.027818214376,-0.0588058711629,-0.694293361183,-0.716745941797,1.0,0.0,0.0,0.0,1.0,0.0,0.0,0.0,1.0,0.102793447673,-0.108264960349,0.00804933533072,1.21846967915e-07,0.0,0.0,0.0,1.21846967915e-07,0.0,0.0,0.0,1.21846967915e-07,-0.2353596,0.16671305,10.8657682,9e-08,0.0,0.0,0.0,9e-08,0.0,0.0,0.0,9e-08
1536690346245326419,4791,1536690346242872206,base_link,-0.0513410208318,-0.0845106226172,-0.691557590737,-0.715520896228,1.0,0.0,0.0,0.0,1.0,0.0,0.0,0.0,1.0,0.277100890875,-0.0168536230922,-0.0617557615042,1.21846967915e-07,0.0,0.0,0.0,1.21846967915e-07,0.0,0.0,0.0,1.21846967915e-07,-0.10787315,0.5099458,9.7281968,9e-08,0.0,0.0,0.0,9e-08,0.0,0.0,0.0,9e-08
1536690346562777509,4792,1536690346562370900,base_link,-0.0784065969061,-0.11962603142,-0.677063160935,-0.721891608397,1.0,0.0,0.0,0.0,1.0,0.0,0.0,0.0,1.0,0.0590515658259,0.0372672714293,-0.101579882205,1.21846967915e-07,0.0,0.0,0.0,1.21846967915e-07,0.0,0.0,0.0,1.21846967915e-07,0.0392266,0.7453054,9.4928372,9e-08,0.0,0.0,0.0,9e-08,0.0,0.0,0.0,9e-08
1536690346977410939,4793,1536690346977099143,base_link,-0.120937472982,-0.14685275391,-0.648302532257,-0.73723281463,1.0,0.0,0.0,0.0,1.0,0.0,0.0,0.0,1.0,0.333331078291,-0.113192796707,-0.140154406428,1.21846967915e-07,0.0,0.0,0.0,1.21846967915e-07,0.0,0.0,0.0,1.21846967915e-07,0.1569064,0.6276256,11.18938765,9e-08,0.0,0.0,0.0,9e-08,0.0,0.0,0.0,9e-08
1536690347381671824,4794,1536690347381328348,base_link,-0.163569759391,-0.163989461726,-0.615734478901,-0.753142378139,1.0,0.0,0.0,0.0,1.0,0.0,0.0,0.0,1.0,0.186985462904,-0.161208301783,-0.227432340384,1.21846967915e-07,0.0,0.0,0.0,1.21846967915e-07,0.0,0.0,0.0,1.21846967915e-07,0.22555295,0.8433719,11.375714,9e-08,0.0,0.0,0.0,9e-08,0.0,0.0,0.0,9e-08
1536690347729970065,4795,1536690347729412038,base_link,-0.189062960136,-0.176819684153,-0.575645727507,-0.77564295446,1.0,0.0,0.0,0.0,1.0,0.0,0.0,0.0,1.0,0.207076370716,-0.0759543552995,-0.256316125393,1.21846967915e-07,0.0,0.0,0.0,1.21846967915e-07,0.0,0.0,0.0,1.21846967915e-07,0.1765197,0.3334261,9.7085835,9e-08,0.0,0.0,0.0,9e-08,0.0,0.0,0.0,9e-08
1536690348113640924,4796,1536690348113347399,base_link,-0.231686467916,-0.17880076484,-0.523713320023,-0.800047514532,1.0,0.0,0.0,0.0,1.0,0.0,0.0,0.0,1.0,0.142870932817,-0.23932634294,-0.209303677082,1.21846967915e-07,0.0,0.0,0.0,1.21846967915e-07,0.0,0.0,0.0,1.21846967915e-07,0.42168595,0.40207265,11.0815145,9e-08,0.0,0.0,0.0,9e-08,0.0,0.0,0.0,9e-08
1536690348502386732,4797,1536690348502148980,base_link,-0.262226692166,-0.167957224927,-0.474570615028,-0.823292331959,1.0,0.0,0.0,0.0,1.0,0.0,0.0,0.0,1.0,0.102917611599,-0.266394734383,-0.221182733774,1.21846967915e-07,0.0,0.0,0.0,1.21846967915e-07,0.0,0.0,0.0,1.21846967915e-07,0.42168595,0.6668522,12.09159945,9e-08,0.0,0.0,0.0,9e-08,0.0,0.0,0.0,9e-08
1536690348924306453,4798,1536690348922319647,base_link,-0.288711704698,-0.129945378728,-0.413509362654,-0.853680125758,1.0,0.0,0.0,0.0,1.0,0.0,0.0,0.0,1.0,-0.0418907999992,-0.291021347046,-0.25779274106,1.21846967915e-07,0.0,0.0,0.0,1.21846967915e-07,0.0,0.0,0.0,1.21846967915e-07,0.8433719,1.01008495,14.32751565,9e-08,0.0,0.0,0.0,9e-08,0.0,0.0,0.0,9e-08
1536690349387211545,4799,1536690349385930601,base_link,-0.30615027317,-0.0960492563093,-0.336917515149,-0.885174072477,1.0,0.0,0.0,0.0,1.0,0.0,0.0,0.0,1.0,-0.0558579266071,-0.199740797281,-0.327330976725,1.21846967915e-07,0.0,0.0,0.0,1.21846967915e-07,0.0,0.0,0.0,1.21846967915e-07,0.6668522,0.8629852,13.6312435,9e-08,0.0,0.0,0.0,9e-08,0.0,0.0,0.0,9e-08
1536690349771368242,4800,1536690349771111324,base_link,-0.299757062521,-0.0832433981296,-0.275472905888,-0.909577329455,1.0,0.0,0.0,0.0,1.0,0.0,0.0,0.0,1.0,0.0354139916599,-0.155837133527,-0.277297586203,1.21846967915e-07,0.0,0.0,0.0,1.21846967915e-07,0.0,0.0,0.0,1.21846967915e-07,0.53936575,0.5295591,10.69905515,9e-08,0.0,0.0,0.0,9e-08,0.0,0.0,0.0,9e-08
1536690350165566457,4801,1536690350165210022,base_link,-0.296126012693,-0.0675710003181,-0.216273360677,-0.927884355932,1.0,0.0,0.0,0.0,1.0,0.0,0.0,0.0,1.0,-0.0149446735159,-0.109794661403,-0.280847787857,1.21846967915e-07,0.0,0.0,0.0,1.21846967915e-07,0.0,0.0,0.0,1.21846967915e-07,0.2745862,0.61781895,10.395049,9e-08,0.0,0.0,0.0,9e-08,0.0,0.0,0.0,9e-08
1536690350524169663,4802,1536690350523924008,base_link,-0.285470157867,-0.0602869479872,-0.165478529689,-0.942066414369,1.0,0.0,0.0,0.0,1.0,0.0,0.0,0.0,1.0,-0.0704301670194,-0.0710539668798,-0.309360802174,1.21846967915e-07,0.0,0.0,0.0,1.21846967915e-07,0.0,0.0,0.0,1.21846967915e-07,0.53936575,0.51975245,10.46369555,9e-08,0.0,0.0,0.0,9e-08,0.0,0.0,0.0,9e-08
1536690350905971055,4803,1536690350905655066,base_link,-0.261102177913,-0.0467796561524,-0.114657753661,-0.957335320556,1.0,0.0,0.0,0.0,1.0,0.0,0.0,0.0,1.0,-0.093810133636,-0.154087454081,-0.153786227107,1.21846967915e-07,0.0,0.0,0.0,1.21846967915e-07,0.0,0.0,0.0,1.21846967915e-07,0.26477955,0.5687857,11.46397385,9e-08,0.0,0.0,0.0,9e-08,0.0,0.0,0.0,9e-08
1536690351234979223,4804,1536690351233477134,base_link,-0.224955096461,-0.0289988319767,-0.0852231929541,-0.970201669604,1.0,0.0,0.0,0.0,1.0,0.0,0.0,0.0,1.0,-0.341941773891,-0.0415316037834,-0.214890152216,1.21846967915e-07,0.0,0.0,0.0,1.21846967915e-07,0.0,0.0,0.0,1.21846967915e-07,0.18632635,1.04931155,11.20900095,9e-08,0.0,0.0,0.0,9e-08,0.0,0.0,0.0,9e-08
1536690351708847239,4805,1536690351708650767,base_link,-0.152204584586,-0.0312231747216,-0.018839798774,-0.987676029766,1.0,0.0,0.0,0.0,1.0,0.0,0.0,0.0,1.0,-0.245629519224,0.0379735156894,-0.298735588789,1.21846967915e-07,0.0,0.0,0.0,1.21846967915e-07,0.0,0.0,0.0,1.21846967915e-07,-0.1176798,0.7060788,8.58081875,9e-08,0.0,0.0,0.0,9e-08,0.0,0.0,0.0,9e-08
1536690352128399656,4806,1536690352128117107,base_link,-0.113969413748,-0.0318140496386,0.0204680889074,-0.992763766619,1.0,0.0,0.0,0.0,1.0,0.0,0.0,0.0,1.0,-0.158009678125,-0.0591215491295,-0.0949542298913,1.21846967915e-07,0.0,0.0,0.0,1.21846967915e-07,0.0,0.0,0.0,1.21846967915e-07,-0.16671305,0.2745862,8.71811185,9e-08,0.0,0.0,0.0,9e-08,0.0,0.0,0.0,9e-08
1536690352470612458,4807,1536690352470130940,base_link,-0.0847436508941,-0.02131943909,0.0308785932436,-0.99569599157,1.0,0.0,0.0,0.0,1.0,0.0,0.0,0.0,1.0,-0.165013834834,-0.0552863255143,-0.0357686206698,1.21846967915e-07,0.0,0.0,0.0,1.21846967915e-07,0.0,0.0,0.0,1.21846967915e-07,-0.12748645,0.3138128,10.62060195,9e-08,0.0,0.0,0.0,9e-08,0.0,0.0,0.0,9e-08
1536690352858105672,4808,1536690352857729142,base_link,-0.041241607158,-0.0123254681088,0.0403830229986,-0.998256692504,1.0,0.0,0.0,0.0,1.0,0.0,0.0,0.0,1.0,-0.166688114405,-0.0337324216962,-0.0585994794965,1.21846967915e-07,0.0,0.0,0.0,1.21846967915e-07,0.0,0.0,0.0,1.21846967915e-07,-0.10787315,0.42168595,9.81645665,9e-08,0.0,0.0,0.0,9e-08,0.0,0.0,0.0,9e-08
1536690353177101441,4809,1536690353176827883,base_link,-0.00250677802408,-0.00843851918582,0.0397069430746,-0.999172590762,1.0,0.0,0.0,0.0,1.0,0.0,0.0,0.0,1.0,-0.212919354439,-0.026723569259,0.0152812916785,1.21846967915e-07,0.0,0.0,0.0,1.21846967915e-07,0.0,0.0,0.0,1.21846967915e-07,-0.12748645,0.38245935,11.1599677,9e-08,0.0,0.0,0.0,9e-08,0.0,0.0,0.0,9e-08
1536690353680215996,4810,1536690353679418745,base_link,0.0236738938895,-0.0199363765733,0.0501525129927,-0.998261896036,1.0,0.0,0.0,0.0,1.0,0.0,0.0,0.0,1.0,0.0848212614655,-0.0181939825416,-0.00311177526601,1.21846967915e-07,0.0,0.0,0.0,1.21846967915e-07,0.0,0.0,0.0,1.21846967915e-07,-0.196133,0.06864655,9.62032365,9e-08,0.0,0.0,0.0,9e-08,0.0,0.0,0.0,9e-08
1536690354044488817,4811,1536690354039080728,base_link,-0.00200660573237,-0.0062234161174,0.0468205005738,-0.99888191662,1.0,0.0,0.0,0.0,1.0,0.0,0.0,0.0,1.0,0.255246311426,-0.0744013041258,0.0519924834371,1.21846967915e-07,0.0,0.0,0.0,1.21846967915e-07,0.0,0.0,0.0,1.21846967915e-07,-0.1569064,0.2941995,11.07170785,9e-08,0.0,0.0,0.0,9e-08,0.0,0.0,0.0,9e-08
1536690354290164599,4812,1536690354289835107,base_link,-0.0306974078308,0.000829421439885,0.0358047966055,-0.998886879358,1.0,0.0,0.0,0.0,1.0,0.0,0.0,0.0,1.0,0.113775461912,0.0272487550974,0.0875352546573,1.21846967915e-07,0.0,0.0,0.0,1.21846967915e-07,0.0,0.0,0.0,1.21846967915e-07,-0.28439285,0.28439285,10.0223963,9e-08,0.0,0.0,0.0,9e-08,0.0,0.0,0.0,9e-08
1536690354832199256,4813,1536690354829207782,base_link,-0.0103136474983,-0.0118004860304,0.0318312228662,-0.999370377015,1.0,0.0,0.0,0.0,1.0,0.0,0.0,0.0,1.0,-0.183204844594,-0.0474232360721,0.00391911622137,1.21846967915e-07,0.0,0.0,0.0,1.21846967915e-07,0.0,0.0,0.0,1.21846967915e-07,-0.12748645,0.3530394,11.0226746,9e-08,0.0,0.0,0.0,9e-08,0.0,0.0,0.0,9e-08
1536690355209191609,4814,1536690355208661805,base_link,0.0122267140987,-0.00399313581032,0.0243499614068,-0.999620748938,1.0,0.0,0.0,0.0,1.0,0.0,0.0,0.0,1.0,-0.139227852225,-0.00541380047798,0.0418668091297,1.21846967915e-07,0.0,0.0,0.0,1.21846967915e-07,0.0,0.0,0.0,1.21846967915e-07,-0.1372931,0.50013915,10.2773692,9e-08,0.0,0.0,0.0,9e-08,0.0,0.0,0.0,9e-08
1536690355675019665,4815,1536690355674452230,base_link,0.0276552637087,-0.00909901894516,0.0228014569047,-0.999316009982,1.0,0.0,0.0,0.0,1.0,0.0,0.0,0.0,1.0,0.151769205928,0.104708403349,0.0182915013283,1.21846967915e-07,0.0,0.0,0.0,1.21846967915e-07,0.0,0.0,0.0,1.21846967915e-07,-0.1372931,0.12748645,9.85568325,9e-08,0.0,0.0,0.0,9e-08,0.0,0.0,0.0,9e-08
1536690356097821979,4816,1536690356097235504,base_link,0.0145678124208,-0.0196668202993,0.00904057907729,-0.99965957353,1.0,0.0,0.0,0.0,1.0,0.0,0.0,0.0,1.0,0.0262133162469,0.13239748776,0.00379467126913,1.21846967915e-07,0.0,0.0,0.0,1.21846967915e-07,0.0,0.0,0.0,1.21846967915e-07,-0.1372931,0.5491724,9.3751574,9e-08,0.0,0.0,0.0,9e-08,0.0,0.0,0.0,9e-08
1536690356606632067,4817,1536690356606241714,base_link,0.018379439494,-0.0312640047995,0.0165300769478,-0.999205441721,1.0,0.0,0.0,0.0,1.0,0.0,0.0,0.0,1.0,-0.0695848092437,0.00701602594927,-0.0348180830479,1.21846967915e-07,0.0,0.0,0.0,1.21846967915e-07,0.0,0.0,0.0,1.21846967915e-07,-0.12748645,0.32361945,9.56148375,9e-08,0.0,0.0,0.0,9e-08,0.0,0.0,0.0,9e-08
1536690357058012944,4818,1536690357057664797,base_link,0.0188230213528,-0.0399277448822,0.0180359198633,-0.998862440304,1.0,0.0,0.0,0.0,1.0,0.0,0.0,0.0,1.0,0.0296529028565,0.107933863997,0.012079494074,1.21846967915e-07,0.0,0.0,0.0,1.21846967915e-07,0.0,0.0,0.0,1.21846967915e-07,-0.10787315,-0.1176798,9.28689755,9e-08,0.0,0.0,0.0,9e-08,0.0,0.0,0.0,9e-08
1536690357563878213,4819,1536690357563439318,base_link,-0.0130456728715,-0.0372564736851,-0.00667883531218,-0.999198257978,1.0,0.0,0.0,0.0,1.0,0.0,0.0,0.0,1.0,0.0873637795448,0.00147544476204,0.0958804860711,1.21846967915e-07,0.0,0.0,0.0,1.21846967915e-07,0.0,0.0,0.0,1.21846967915e-07,0.0196133,0.46091255,11.40513395,9e-08,0.0,0.0,0.0,9e-08,0.0,0.0,0.0,9e-08
1536690357985522777,4820,1536690357984330885,base_link,-0.00733981671008,-0.0456055302454,-0.00369743419505,-0.998925718801,1.0,0.0,0.0,0.0,1.0,0.0,0.0,0.0,1.0,-0.0816745087504,-0.0999489501119,-0.0625784620643,1.21846967915e-07,0.0,0.0,0.0,1.21846967915e-07,0.0,0.0,0.0,1.21846967915e-07,-0.0196133,0.36284605,8.83579165,9e-08,0.0,0.0,0.0,9e-08,0.0,0.0,0.0,9e-08
1536690358533375684,4821,1536690358530630441,base_link,-0.00126438740997,-0.0244792198311,-0.0241377323435,-0.999408094323,1.0,0.0,0.0,0.0,1.0,0.0,0.0,0.0,1.0,0.0103374943137,-0.0655112788081,0.0660662427545,1.21846967915e-07,0.0,0.0,0.0,1.21846967915e-07,0.0,0.0,0.0,1.21846967915e-07,0.0784532,0.5491724,9.7674234,9e-08,0.0,0.0,0.0,9e-08,0.0,0.0,0.0,9e-08
1536690358893695179,4822,1536690358887875425,base_link,-0.00119632623755,-0.0125256868656,-0.030106291013,-0.99946750183,1.0,0.0,0.0,0.0,1.0,0.0,0.0,0.0,1.0,-0.0458581484854,-0.0778374671936,-0.0160984583199,1.21846967915e-07,0.0,0.0,0.0,1.21846967915e-07,0.0,0.0,0.0,1.21846967915e-07,-0.1765197,0.4511059,8.8455983,9e-08,0.0,0.0,0.0,9e-08,0.0,0.0,0.0,9e-08
1536690359271182073,4823,1536690359270281787,base_link,-0.0208300926945,-0.00321674123326,-0.0284053114011,-0.99937425327,1.0,0.0,0.0,0.0,1.0,0.0,0.0,0.0,1.0,0.181375309825,-0.0697193145752,0.0013781695161,1.21846967915e-07,0.0,0.0,0.0,1.21846967915e-07,0.0,0.0,0.0,1.21846967915e-07,0.00980665,0.3726527,10.6107953,9e-08,0.0,0.0,0.0,9e-08,0.0,0.0,0.0,9e-08
1536690359748346544,4824,1536690359748032572,base_link,-0.0663916131103,-0.00179216568338,-0.0297337278544,-0.997348909499,1.0,0.0,0.0,0.0,1.0,0.0,0.0,0.0,1.0,0.379307866096,0.0478771366179,0.00996410194784,1.21846967915e-07,0.0,0.0,0.0,1.21846967915e-07,0.0,0.0,0.0,1.21846967915e-07,0.2353596,0.46091255,9.46341725,9e-08,0.0,0.0,0.0,9e-08,0.0,0.0,0.0,9e-08
1536690360116302718,4825,1536690360115800112,base_link,-0.0768798817168,-0.0125122557924,-0.0313042820996,-0.996470255032,1.0,0.0,0.0,0.0,1.0,0.0,0.0,0.0,1.0,-0.0946669504046,0.0193428937346,-0.0199983306229,1.21846967915e-07,0.0,0.0,0.0,1.21846967915e-07,0.0,0.0,0.0,1.21846967915e-07,-0.0588399,0.75511205,9.24767095,9e-08,0.0,0.0,0.0,9e-08,0.0,0.0,0.0,9e-08
1536690360465151979,4826,1536690360464515490,base_link,-0.0594150456268,-0.0206963502388,-0.0212622517375,-0.997792278027,1.0,0.0,0.0,0.0,1.0,0.0,0.0,0.0,1.0,-0.064797013998,0.0342992804945,-0.080120511353,1.21846967915e-07,0.0,0.0,0.0,1.21846967915e-07,0.0,0.0,0.0,1.21846967915e-07,-0.08825985,0.73549875,9.2574776,9e-08,0.0,0.0,0.0,9e-08,0.0,0.0,0.0,9e-08
1536690360976108901,4827,1536690360975855822,base_link,-0.0447248124844,-0.0108195158308,-0.0251307505656,-0.998624591426,1.0,0.0,0.0,0.0,1.0,0.0,0.0,0.0,1.0,0.0610979907215,0.0568203404546,0.0973487198353,1.21846967915e-07,0.0,0.0,0.0,1.21846967915e-07,0.0,0.0,0.0,1.21846967915e-07,0.00980665,0.12748645,10.93441475,9e-08,0.0,0.0,0.0,9e-08,0.0,0.0,0.0,9e-08
1536690361457416547,4828,1536690361457146829,base_link,-0.04380588139,-0.018403370033,-0.0201890474364,-0.998666492424,1.0,0.0,0.0,0.0,1.0,0.0,0.0,0.0,1.0,-0.0470829382539,0.0072465101257,-0.155186399817,1.21846967915e-07,0.0,0.0,0.0,1.21846967915e-07,0.0,0.0,0.0,1.21846967915e-07,-0.2353596,0.7060788,7.3549875,9e-08,0.0,0.0,0.0,9e-08,0.0,0.0,0.0,9e-08
1536690361776772623,4829,1536690361776418780,base_link,-0.0368302969047,-0.0148267725606,-0.00479044021455,-0.999200053907,1.0,0.0,0.0,0.0,1.0,0.0,0.0,0.0,1.0,-0.069751739502,-0.0668802112341,-0.0084205493331,1.21846967915e-07,0.0,0.0,0.0,1.21846967915e-07,0.0,0.0,0.0,1.21846967915e-07,-0.18632635,0.08825985,9.85568325,9e-08,0.0,0.0,0.0,9e-08,0.0,0.0,0.0,9e-08
1536690362230028502,4830,1536690362229809598,base_link,-0.0266084409381,-0.00625347989615,-0.0199914995322,-0.999426447922,1.0,0.0,0.0,0.0,1.0,0.0,0.0,0.0,1.0,0.0031450856477,-0.0516633018851,0.0710817426443,1.21846967915e-07,0.0,0.0,0.0,1.21846967915e-07,0.0,0.0,0.0,1.21846967915e-07,0.20593965,0.2549729,10.9246081,9e-08,0.0,0.0,0.0,9e-08,0.0,0.0,0.0,9e-08
1536690362722787470,4831,1536690362722383229,base_link,-0.0239334138639,0.0177033723692,-0.0325127491913,-0.999027879214,1.0,0.0,0.0,0.0,1.0,0.0,0.0,0.0,1.0,-0.0479940325022,-0.0995517373085,0.00198608264327,1.21846967915e-07,0.0,0.0,0.0,1.21846967915e-07,0.0,0.0,0.0,1.21846967915e-07,0.50013915,0.91201845,12.3171524,9e-08,0.0,0.0,0.0,9e-08,0.0,0.0,0.0,9e-08
1536690363020391676,4832,1536690363020004906,base_link,-0.015977598309,0.0282691604421,-0.0261792661588,-0.999129729787,1.0,0.0,0.0,0.0,1.0,0.0,0.0,0.0,1.0,-0.0289459712803,-0.081000931561,-0.0599967129529,1.21846967915e-07,0.0,0.0,0.0,1.21846967915e-07,0.0,0.0,0.0,1.21846967915e-07,0.48052585,0.8237586,12.03275955,9e-08,0.0,0.0,0.0,9e-08,0.0,0.0,0.0,9e-08
1536690363423754449,4833,1536690363420337999,base_link,-0.0376245674725,0.0353078266656,-0.0201396802664,-0.998464893012,1.0,0.0,0.0,0.0,1.0,0.0,0.0,0.0,1.0,0.172575473785,0.00554605387151,0.0785810053349,1.21846967915e-07,0.0,0.0,0.0,1.21846967915e-07,0.0,0.0,0.0,1.21846967915e-07,0.34323275,0.48052585,11.85623985,9e-08,0.0,0.0,0.0,9e-08,0.0,0.0,0.0,9e-08
1536690363856171960,4834,1536690363854373850,base_link,-0.0493416692227,0.0328042858864,-0.0266380719387,-0.997887614729,1.0,0.0,0.0,0.0,1.0,0.0,0.0,0.0,1.0,0.0469220168889,0.0409127399325,-0.0303413625807,1.21846967915e-07,0.0,0.0,0.0,1.21846967915e-07,0.0,0.0,0.0,1.21846967915e-07,0.1176798,0.3530394,9.8262633,9e-08,0.0,0.0,0.0,9e-08,0.0,0.0,0.0,9e-08
1536690364175264430,4835,1536690364175030614,base_link,-0.0772092887428,0.029257188737,-0.0218488362536,-0.996346009674,1.0,0.0,0.0,0.0,1.0,0.0,0.0,0.0,1.0,0.0823587551713,0.0105387866497,-0.0240343287587,1.21846967915e-07,0.0,0.0,0.0,1.21846967915e-07,0.0,0.0,0.0,1.21846967915e-07,0.1176798,0.4511059,9.42419065,9e-08,0.0,0.0,0.0,9e-08,0.0,0.0,0.0,9e-08
1536690364481648343,4836,1536690364480857108,base_link,-0.066407470889,0.0176709191761,-0.0233015957522,-0.997363936615,1.0,0.0,0.0,0.0,1.0,0.0,0.0,0.0,1.0,-0.108843788505,0.0982341989875,0.00815031863749,1.21846967915e-07,0.0,0.0,0.0,1.21846967915e-07,0.0,0.0,0.0,1.21846967915e-07,0.0196133,0.3530394,8.4729456,9e-08,0.0,0.0,0.0,9e-08,0.0,0.0,0.0,9e-08
1536690364898027821,4837,1536690364897749975,base_link,-0.0352957484358,-0.00477258616231,-0.020389817087,-0.999157489049,1.0,0.0,0.0,0.0,1.0,0.0,0.0,0.0,1.0,-0.11983333528,0.0680512860417,-0.0297889783978,1.21846967915e-07,0.0,0.0,0.0,1.21846967915e-07,0.0,0.0,0.0,1.21846967915e-07,-0.06864655,0.4903325,8.01203305,9e-08,0.0,0.0,0.0,9e-08,0.0,0.0,0.0,9e-08
1536690365357320662,4838,1536690365357078111,base_link,-0.0246509353449,-0.0153488546316,-0.0174075085772,-0.999426697008,1.0,0.0,0.0,0.0,1.0,0.0,0.0,0.0,1.0,-0.0563765093684,-0.0259164292365,0.0469943843782,1.21846967915e-07,0.0,0.0,0.0,1.21846967915e-07,0.0,0.0,0.0,1.21846967915e-07,-0.06864655,0.46091255,10.24794925,9e-08,0.0,0.0,0.0,9e-08,0.0,0.0,0.0,9e-08
1536690365852043846,4839,1536690365851837038,base_link,-0.00275584388159,-0.000589783662687,-0.0285451360851,-0.99958853169,1.0,0.0,0.0,0.0,1.0,0.0,0.0,0.0,1.0,-0.11778447777,-0.0362869165838,0.0440011434257,1.21846967915e-07,0.0,0.0,0.0,1.21846967915e-07,0.0,0.0,0.0,1.21846967915e-07,0.22555295,0.5687857,10.7480884,9e-08,0.0,0.0,0.0,9e-08,0.0,0.0,0.0,9e-08
1536690366219448200,4840,1536690366219172626,base_link,0.0198216583375,-0.00153146158218,-0.0348712642627,-0.99919405093,1.0,0.0,0.0,0.0,1.0,0.0,0.0,0.0,1.0,0.0174557883292,0.10260271281,0.0140166208148,1.21846967915e-07,0.0,0.0,0.0,1.21846967915e-07,0.0,0.0,0.0,1.21846967915e-07,0.14709975,0.4707192,10.52253545,9e-08,0.0,0.0,0.0,9e-08,0.0,0.0,0.0,9e-08
1536690366555354290,4841,1536690366554801158,base_link,0.00188956744895,-0.00980408006941,-0.0304475558366,-0.999486496103,1.0,0.0,0.0,0.0,1.0,0.0,0.0,0.0,1.0,0.0829813852906,0.066763587296,-0.0446996726096,1.21846967915e-07,0.0,0.0,0.0,1.21846967915e-07,0.0,0.0,0.0,1.21846967915e-07,0.14709975,0.77472535,9.36535075,9e-08,0.0,0.0,0.0,9e-08,0.0,0.0,0.0,9e-08
1536690366917864136,4842,1536690366917267198,base_link,-0.0288779958985,-0.0284405231831,-0.0150888931631,-0.999064323904,1.0,0.0,0.0,0.0,1.0,0.0,0.0,0.0,1.0,0.286403894424,0.0552020967007,-0.0982321426272,1.21846967915e-07,0.0,0.0,0.0,1.21846967915e-07,0.0,0.0,0.0,1.21846967915e-07,0.0196133,0.26477955,7.56092715,9e-08,0.0,0.0,0.0,9e-08,0.0,0.0,0.0,9e-08
1536690367355899456,4843,1536690367355391635,base_link,-0.0632032772646,-0.0343081543015,-0.00734416655217,-0.997383757392,1.0,0.0,0.0,0.0,1.0,0.0,0.0,0.0,1.0,-0.0319816023111,0.00117619661614,0.0547658056021,1.21846967915e-07,0.0,0.0,0.0,1.21846967915e-07,0.0,0.0,0.0,1.21846967915e-07,0.0784532,0.14709975,9.1986377,9e-08,0.0,0.0,0.0,9e-08,0.0,0.0,0.0,9e-08
1536690367845320500,4844,1536690367844731721,base_link,-0.0561742521299,-0.0257588337929,-0.0164946790897,-0.997952334253,1.0,0.0,0.0,0.0,1.0,0.0,0.0,0.0,1.0,-0.0787754058838,-0.0148556726053,-0.00353772356175,1.21846967915e-07,0.0,0.0,0.0,1.21846967915e-07,0.0,0.0,0.0,1.21846967915e-07,0.2941995,0.5295591,9.91452315,9e-08,0.0,0.0,0.0,9e-08,0.0,0.0,0.0,9e-08
1536690368322793215,4845,1536690368320080771,base_link,-0.0428641287135,-0.019632394671,-0.00754399682081,-0.998859511474,1.0,0.0,0.0,0.0,1.0,0.0,0.0,0.0,1.0,0.0688616782427,0.00288421660662,-0.0686201602221,1.21846967915e-07,0.0,0.0,0.0,1.21846967915e-07,0.0,0.0,0.0,1.21846967915e-07,0.4118793,0.4314926,10.3165958,9e-08,0.0,0.0,0.0,9e-08,0.0,0.0,0.0,9e-08
1536690368736944199,4846,1536690368736698384,base_link,-0.082395269246,-0.0319575302676,0.00924154547343,-0.996044341233,1.0,0.0,0.0,0.0,1.0,0.0,0.0,0.0,1.0,0.545027792454,-0.0325164534152,-0.141569346189,1.21846967915e-07,0.0,0.0,0.0,1.21846967915e-07,0.0,0.0,0.0,1.21846967915e-07,0.04903325,0.588399,8.5121722,9e-08,0.0,0.0,0.0,9e-08,0.0,0.0,0.0,9e-08
1536690369056609959,4847,1536690369055089919,base_link,-0.155738425218,-0.0205496382352,0.0345096299924,-0.98698142876,1.0,0.0,0.0,0.0,1.0,0.0,0.0,0.0,1.0,0.429623872042,-0.142688691616,-0.106728971004,1.21846967915e-07,0.0,0.0,0.0,1.21846967915e-07,0.0,0.0,0.0,1.21846967915e-07,0.18632635,-0.00980665,10.32640245,9e-08,0.0,0.0,0.0,9e-08,0.0,0.0,0.0,9e-08
1536690369498578894,4848,1536690369498279290,base_link,-0.229429373586,-0.0122499068333,0.0620113828347,-0.971270657807,1.0,0.0,0.0,0.0,1.0,0.0,0.0,0.0,1.0,0.230262443423,-0.0790598988533,-0.194401860237,1.21846967915e-07,0.0,0.0,0.0,1.21846967915e-07,0.0,0.0,0.0,1.21846967915e-07,0.2353596,0.4903325,9.3359308,9e-08,0.0,0.0,0.0,9e-08,0.0,0.0,0.0,9e-08
1536690369827724818,4849,1536690369819320327,base_link,-0.259934923075,0.0101610661834,0.0984727055876,-0.960538242213,1.0,0.0,0.0,0.0,1.0,0.0,0.0,0.0,1.0,0.209744736552,-0.26281028986,-0.203175440431,1.21846967915e-07,0.0,0.0,0.0,1.21846967915e-07,0.0,0.0,0.0,1.21846967915e-07,0.46091255,0.69627215,12.22889255,9e-08,0.0,0.0,0.0,9e-08,0.0,0.0,0.0,9e-08
1536690370270082827,4850,1536690370269849363,base_link,-0.2952153978,0.0440652454168,0.149610254617,-0.942614923901,1.0,0.0,0.0,0.0,1.0,0.0,0.0,0.0,1.0,0.101062498987,-0.282900750637,-0.228455424309,1.21846967915e-07,0.0,0.0,0.0,1.21846967915e-07,0.0,0.0,0.0,1.21846967915e-07,0.8629852,0.93163175,12.52309205,9e-08,0.0,0.0,0.0,9e-08,0.0,0.0,0.0,9e-08
1536690370621385534,4851,1536690370620140267,base_link,-0.305044480284,0.0746176511477,0.205324176603,-0.92694231411,1.0,0.0,0.0,0.0,1.0,0.0,0.0,0.0,1.0,-0.0436331704259,-0.175264567137,-0.306573003531,1.21846967915e-07,0.0,0.0,0.0,1.21846967915e-07,0.0,0.0,0.0,1.21846967915e-07,1.1179581,0.85317855,13.3566573,9e-08,0.0,0.0,0.0,9e-08,0.0,0.0,0.0,9e-08
1536690371063065359,4852,1536690371062788954,base_link,-0.322978375841,0.103123824829,0.270488461045,-0.90104741159,1.0,0.0,0.0,0.0,1.0,0.0,0.0,0.0,1.0,0.0475903004408,-0.262043714523,-0.279978692532,1.21846967915e-07,0.0,0.0,0.0,1.21846967915e-07,0.0,0.0,0.0,1.21846967915e-07,1.02969825,0.8041453,13.5920169,9e-08,0.0,0.0,0.0,9e-08,0.0,0.0,0.0,9e-08
1536690371561091238,4853,1536690371560851183,base_link,-0.309776713079,0.171112498009,0.356828046887,-0.864541870596,1.0,0.0,0.0,0.0,1.0,0.0,0.0,0.0,1.0,0.129528433084,-0.305276304483,-0.202024742961,1.21846967915e-07,0.0,0.0,0.0,1.21846967915e-07,0.0,0.0,0.0,1.21846967915e-07,1.3337044,0.75511205,15.6318001,9e-08,0.0,0.0,0.0,9e-08,0.0,0.0,0.0,9e-08
1536690372019768901,4854,1536690372019291799,base_link,-0.302792261707,0.202183509083,0.415676790423,-0.833457545895,1.0,0.0,0.0,0.0,1.0,0.0,0.0,0.0,1.0,-0.227543503046,-0.197356417775,-0.317387640476,1.21846967915e-07,0.0,0.0,0.0,1.21846967915e-07,0.0,0.0,0.0,1.21846967915e-07,1.2160246,1.6279039,13.8273765,9e-08,0.0,0.0,0.0,9e-08,0.0,0.0,0.0,9e-08
1536690372450499275,4855,1536690372447674803,base_link,-0.300503262113,0.213630232095,0.492577425943,-0.788306661678,1.0,0.0,0.0,0.0,1.0,0.0,0.0,0.0,1.0,0.0158705748618,-0.210797935724,-0.383321464062,1.21846967915e-07,0.0,0.0,0.0,1.21846967915e-07,0.0,0.0,0.0,1.21846967915e-07,0.91201845,0.784532,11.26784085,9e-08,0.0,0.0,0.0,9e-08,0.0,0.0,0.0,9e-08
1536690372697488576,4856,1536690372697143309,base_link,-0.291165721897,0.229038190358,0.532086699214,-0.761346027946,1.0,0.0,0.0,0.0,1.0,0.0,0.0,0.0,1.0,-0.0434503816068,-0.333407759666,-0.202725768089,1.21846967915e-07,0.0,0.0,0.0,1.21846967915e-07,0.0,0.0,0.0,1.21846967915e-07,0.73549875,0.6472389,11.8268199,9e-08,0.0,0.0,0.0,9e-08,0.0,0.0,0.0,9e-08
1536690373123082115,4857,1536690373122530679,base_link,-0.241287402486,0.227708622451,0.588618949867,-0.737195296052,1.0,0.0,0.0,0.0,1.0,0.0,0.0,0.0,1.0,-0.237959504128,-0.131413146853,-0.266741842031,1.21846967915e-07,0.0,0.0,0.0,1.21846967915e-07,0.0,0.0,0.0,1.21846967915e-07,0.588399,0.6472389,11.91507975,9e-08,0.0,0.0,0.0,9e-08,0.0,0.0,0.0,9e-08
1536690373466808717,4858,1536690373466334590,base_link,-0.202621090813,0.223323792021,0.633484061637,-0.712579203407,1.0,0.0,0.0,0.0,1.0,0.0,0.0,0.0,1.0,-0.211998775601,-0.2798165977,-0.307518690825,1.21846967915e-07,0.0,0.0,0.0,1.21846967915e-07,0.0,0.0,0.0,1.21846967915e-07,0.30400615,0.9218251,11.91507975,9e-08,0.0,0.0,0.0,9e-08,0.0,0.0,0.0,9e-08
1536690373915282948,4859,1536690373914035442,base_link,0.134441617528,-0.194259349271,-0.693485612331,0.680636806372,1.0,0.0,0.0,0.0,1.0,0.0,0.0,0.0,1.0,-0.364902168512,-0.147951677442,-0.185870423913,1.21846967915e-07,0.0,0.0,0.0,1.21846967915e-07,0.0,0.0,0.0,1.21846967915e-07,0.12748645,0.4511059,11.07170785,9e-08,0.0,0.0,0.0,9e-08,0.0,0.0,0.0,9e-08
1536690374363996147,4860,1536690374363608065,base_link,0.0685368175956,-0.144082863797,-0.733213838598,0.661014598842,1.0,0.0,0.0,0.0,1.0,0.0,0.0,0.0,1.0,-0.426090061665,-0.0348029620945,-0.140406012535,1.21846967915e-07,0.0,0.0,0.0,1.21846967915e-07,0.0,0.0,0.0,1.21846967915e-07,-0.7060788,0.69627215,10.8461549,9e-08,0.0,0.0,0.0,9e-08,0.0,0.0,0.0,9e-08
1536690374732045565,4861,1536690374731389077,base_link,0.0287960192974,-0.081826788437,-0.760485846672,0.643534337063,1.0,0.0,0.0,0.0,1.0,0.0,0.0,0.0,1.0,-0.358097851276,0.0493287444115,-0.137688726187,1.21846967915e-07,0.0,0.0,0.0,1.21846967915e-07,0.0,0.0,0.0,1.21846967915e-07,-1.40235095,-0.46091255,8.8455983,9e-08,0.0,0.0,0.0,9e-08,0.0,0.0,0.0,9e-08
1536690375142712645,4862,1536690375142283093,base_link,0.0133522874811,-0.0276545233044,-0.772199811609,0.634637215038,1.0,0.0,0.0,0.0,1.0,0.0,0.0,0.0,1.0,-0.213717028499,0.102257311344,0.000762771582231,1.21846967915e-07,0.0,0.0,0.0,1.21846967915e-07,0.0,0.0,0.0,1.21846967915e-07,-1.2356379,0.30400615,7.1588545,9e-08,0.0,0.0,0.0,9e-08,0.0,0.0,0.0,9e-08
1536690375562175210,4863,1536690375561843734,base_link,-0.00949459488165,0.0183633211112,-0.771407117752,0.636006053263,1.0,0.0,0.0,0.0,1.0,0.0,0.0,0.0,1.0,-0.255700558424,0.0775026679039,-0.020398857072,1.21846967915e-07,0.0,0.0,0.0,1.21846967915e-07,0.0,0.0,0.0,1.21846967915e-07,-1.1375714,0.38245935,8.93385815,9e-08,0.0,0.0,0.0,9e-08,0.0,0.0,0.0,9e-08
1536690375920678323,4864,1536690375920175014,base_link,0.00111719464103,0.0451027126559,-0.767866734535,0.639018916137,1.0,0.0,0.0,0.0,1.0,0.0,0.0,0.0,1.0,-0.0330514833331,0.122784890234,0.0444106981158,1.21846967915e-07,0.0,0.0,0.0,1.21846967915e-07,0.0,0.0,0.0,1.21846967915e-07,-1.10815145,0.3726527,6.9823348,9e-08,0.0,0.0,0.0,9e-08,0.0,0.0,0.0,9e-08
1536690376362098543,4865,1536690376361842392,base_link,0.00691875677983,0.0764024991085,-0.761448971974,0.643669365446,1.0,0.0,0.0,0.0,1.0,0.0,0.0,0.0,1.0,-0.0611648261547,0.0130640873685,0.0315606184304,1.21846967915e-07,0.0,0.0,0.0,1.21846967915e-07,0.0,0.0,0.0,1.21846967915e-07,-1.06892485,0.0588399,7.71783355,9e-08,0.0,0.0,0.0,9e-08,0.0,0.0,0.0,9e-08
1536690376775771848,4866,1536690376775247420,base_link,0.00880340402646,0.0753328119511,-0.751020127613,0.655908709685,1.0,0.0,0.0,0.0,1.0,0.0,0.0,0.0,1.0,0.076511643827,-0.0126902097836,0.116024076939,1.21846967915e-07,0.0,0.0,0.0,1.21846967915e-07,0.0,0.0,0.0,1.21846967915e-07,-0.91201845,-0.00980665,9.4339973,9e-08,0.0,0.0,0.0,9e-08,0.0,0.0,0.0,9e-08
1536690377164467194,4867,1536690377164131942,base_link,0.0116686140721,0.0699923716098,-0.730819860397,0.678872037288,1.0,0.0,0.0,0.0,1.0,0.0,0.0,0.0,1.0,-0.0287287160754,-0.0186682380736,0.158448502421,1.21846967915e-07,0.0,0.0,0.0,1.21846967915e-07,0.0,0.0,0.0,1.21846967915e-07,-1.0198916,0.28439285,9.8262633,9e-08,0.0,0.0,0.0,9e-08,0.0,0.0,0.0,9e-08
1536690377472163763,4868,1536690377469375002,base_link,0.00564836244192,0.0588936815588,-0.718895627508,0.692595630238,1.0,0.0,0.0,0.0,1.0,0.0,0.0,0.0,1.0,0.127887636423,-0.109902985394,0.0992493927479,1.21846967915e-07,0.0,0.0,0.0,1.21846967915e-07,0.0,0.0,0.0,1.21846967915e-07,-0.8825985,-0.0588399,10.8853815,9e-08,0.0,0.0,0.0,9e-08,0.0,0.0,0.0,9e-08
1536690378042690587,4869,1536690378042353031,base_link,0.0158556223453,-0.0213450477227,0.686980228339,-0.726189475308,1.0,0.0,0.0,0.0,1.0,0.0,0.0,0.0,1.0,-0.109574906528,-0.137489914894,0.0875372439623,1.21846967915e-07,0.0,0.0,0.0,1.21846967915e-07,0.0,0.0,0.0,1.21846967915e-07,-0.48052585,0.2941995,13.68027675,9e-08,0.0,0.0,0.0,9e-08,0.0,0.0,0.0,9e-08
1536690378463615209,4870,1536690378463240663,base_link,0.033197895078,-0.00638401885964,0.6774591545,-0.734783123139,1.0,0.0,0.0,0.0,1.0,0.0,0.0,0.0,1.0,0.0986221656203,-0.0700391754508,0.0598187856376,1.21846967915e-07,0.0,0.0,0.0,1.21846967915e-07,0.0,0.0,0.0,1.21846967915e-07,-0.6080123,0.0588399,11.4149406,9e-08,0.0,0.0,0.0,9e-08,0.0,0.0,0.0,9e-08
1536690378986692805,4871,1536690378986365553,base_link,0.0331635687806,0.0210676697345,0.66031846328,-0.749957237481,1.0,0.0,0.0,0.0,1.0,0.0,0.0,0.0,1.0,0.0234746150672,-0.123847022653,0.0834714323282,1.21846967915e-07,0.0,0.0,0.0,1.21846967915e-07,0.0,0.0,0.0,1.21846967915e-07,-0.61781895,0.38245935,10.6500219,9e-08,0.0,0.0,0.0,9e-08,0.0,0.0,0.0,9e-08
1536690379359222442,4872,1536690379358051605,base_link,0.0302820851048,0.0322943560583,0.654362465295,-0.754883987048,1.0,0.0,0.0,0.0,1.0,0.0,0.0,0.0,1.0,0.090120524168,-0.0298862438649,0.0142582664266,1.21846967915e-07,0.0,0.0,0.0,1.21846967915e-07,0.0,0.0,0.0,1.21846967915e-07,-0.42168595,0.18632635,10.0223963,9e-08,0.0,0.0,0.0,9e-08,0.0,0.0,0.0,9e-08
1536690379763236327,4873,1536690379762985936,base_link,0.0127719418345,0.0436795022015,0.64890925784,-0.759503623216,1.0,0.0,0.0,0.0,1.0,0.0,0.0,0.0,1.0,-0.013165702112,0.0304633677006,0.0160251669586,1.21846967915e-07,0.0,0.0,0.0,1.21846967915e-07,0.0,0.0,0.0,1.21846967915e-07,-0.4511059,0.4118793,9.3163175,9e-08,0.0,0.0,0.0,9e-08,0.0,0.0,0.0,9e-08
1536690380279102828,4874,1536690380278794551,base_link,-0.0142068680858,0.0568657135925,0.654757632161,-0.753562803384,1.0,0.0,0.0,0.0,1.0,0.0,0.0,0.0,1.0,0.181051850319,0.0049052760005,-0.0608001612127,1.21846967915e-07,0.0,0.0,0.0,1.21846967915e-07,0.0,0.0,0.0,1.21846967915e-07,-0.30400615,0.2745862,8.8063717,9e-08,0.0,0.0,0.0,9e-08,0.0,0.0,0.0,9e-08
1536690380738648748,4875,1536690380738418644,base_link,-0.0345683875441,0.0706419925018,0.66723597533,-0.740682717972,1.0,0.0,0.0,0.0,1.0,0.0,0.0,0.0,1.0,0.0671066567302,-0.0222474522889,-0.0879765376449,1.21846967915e-07,0.0,0.0,0.0,1.21846967915e-07,0.0,0.0,0.0,1.21846967915e-07,-0.06864655,0.26477955,8.9828914,9e-08,0.0,0.0,0.0,9e-08,0.0,0.0,0.0,9e-08
1536690381070673125,4876,1536690381070382096,base_link,-0.0303238724548,0.0763096993073,0.676188359631,-0.732138371382,1.0,0.0,0.0,0.0,1.0,0.0,0.0,0.0,1.0,-0.0377595052123,-0.0939181223512,-0.070058144629,1.21846967915e-07,0.0,0.0,0.0,1.21846967915e-07,0.0,0.0,0.0,1.21846967915e-07,0.08825985,0.4118793,9.48303055,9e-08,0.0,0.0,0.0,9e-08,0.0,0.0,0.0,9e-08
1536690381456643547,4877,1536690381455201872,base_link,-0.00192503726091,0.0646695328143,0.68906113951,-0.721809456695,1.0,0.0,0.0,0.0,1.0,0.0,0.0,0.0,1.0,-0.230165332556,-0.00394735205919,-0.0827038958669,1.21846967915e-07,0.0,0.0,0.0,1.21846967915e-07,0.0,0.0,0.0,1.21846967915e-07,0.32361945,0.28439285,10.2773692,9e-08,0.0,0.0,0.0,9e-08,0.0,0.0,0.0,9e-08
1536690381900906446,4878,1536690381900452414,base_link,0.0101659973422,0.0673127899674,0.698272835074,-0.712587319984,1.0,0.0,0.0,0.0,1.0,0.0,0.0,0.0,1.0,0.0941541269422,-0.0605701655149,-0.0131553402171,1.21846967915e-07,0.0,0.0,0.0,1.21846967915e-07,0.0,0.0,0.0,1.21846967915e-07,0.2745862,0.1569064,9.89490985,9e-08,0.0,0.0,0.0,9e-08,0.0,0.0,0.0,9e-08
1536690382239759051,4879,1536690382239421432,base_link,0.0222724037606,0.0751428642095,0.694397741389,-0.715310608577,1.0,0.0,0.0,0.0,1.0,0.0,0.0,0.0,1.0,-0.0860422477126,0.000198793597519,0.0473658926785,1.21846967915e-07,0.0,0.0,0.0,1.21846967915e-07,0.0,0.0,0.0,1.21846967915e-07,0.75511205,0.28439285,10.3558224,9e-08,0.0,0.0,0.0,9e-08,0.0,0.0,0.0,9e-08
1536690382672655617,4880,1536690382671334609,base_link,-0.00246058418703,0.0101682272987,0.688821544192,-0.724855456581,1.0,0.0,0.0,0.0,1.0,0.0,0.0,0.0,1.0,-0.0234307087958,0.481235742569,0.0304507818073,1.21846967915e-07,0.0,0.0,0.0,1.21846967915e-07,0.0,0.0,0.0,1.21846967915e-07,0.08825985,0.4707192,7.0411747,9e-08,0.0,0.0,0.0,9e-08,0.0,0.0,0.0,9e-08
1536690383057775894,4881,1536690383057445698,base_link,-0.0505404447174,0.00854904498534,0.688302618646,-0.723610449373,1.0,0.0,0.0,0.0,1.0,0.0,0.0,0.0,1.0,0.325420081615,-0.138440966606,0.0111935297027,1.21846967915e-07,0.0,0.0,0.0,1.21846967915e-07,0.0,0.0,0.0,1.21846967915e-07,0.12748645,0.196133,9.18883105,9e-08,0.0,0.0,0.0,9e-08,0.0,0.0,0.0,9e-08
1536690383363042985,4882,1536690383360596611,base_link,-0.0511725492042,0.0768854796441,0.685321113438,-0.722360688786,1.0,0.0,0.0,0.0,1.0,0.0,0.0,0.0,1.0,0.204048320651,-0.343562662601,0.0270377267152,1.21846967915e-07,0.0,0.0,0.0,1.21846967915e-07,0.0,0.0,0.0,1.21846967915e-07,0.784532,0.5687857,11.71894675,9e-08,0.0,0.0,0.0,9e-08,0.0,0.0,0.0,9e-08
