%time,field.header.seq,field.header.stamp,field.header.frame_id,field.orientation.x,field.orientation.y,field.orientation.z,field.orientation.w,field.orientation_covariance0,field.orientation_covariance1,field.orientation_covariance2,field.orientation_covariance3,field.orientation_covariance4,field.orientation_covariance5,field.orientation_covariance6,field.orientation_covariance7,field.orientation_covariance8,field.angular_velocity.x,field.angular_velocity.y,field.angular_velocity.z,field.angular_velocity_covariance0,field.angular_velocity_covariance1,field.angular_velocity_covariance2,field.angular_velocity_covariance3,field.angular_velocity_covariance4,field.angular_velocity_covariance5,field.angular_velocity_covariance6,field.angular_velocity_covariance7,field.angular_velocity_covariance8,field.linear_acceleration.x,field.linear_acceleration.y,field.linear_acceleration.z,field.linear_acceleration_covariance0,field.linear_acceleration_covariance1,field.linear_acceleration_covariance2,field.linear_acceleration_covariance3,field.linear_acceleration_covariance4,field.linear_acceleration_covariance5,field.linear_acceleration_covariance6,field.linear_acceleration_covariance7,field.linear_acceleration_covariance8
1532985838307394344,4316,1532985838306873160,base_link,0.0349751323441,-0.102592230783,-0.993883956566,-0.0211247528012,1.0,0.0,0.0,0.0,1.0,0.0,0.0,0.0,1.0,0.513239443302,-0.0358709320426,-0.0781352594495,1.21846967915e-07,0.0,0.0,0.0,1.21846967915e-07,0.0,0.0,0.0,1.21846967915e-07,0.79433865,0.0980665,8.79656505,9e-08,0.0,0.0,0.0,9e-08,0.0,0.0,0.0,9e-08
1532985838649378573,4317,1532985838648923269,base_link,0.0204749189687,-0.205180206709,-0.977203575722,-0.0505473250021,1.0,0.0,0.0,0.0,1.0,0.0,0.0,0.0,1.0,0.57564240694,-0.0550452172756,-0.170559063554,1.21846967915e-07,0.0,0.0,0.0,1.21846967915e-07,0.0,0.0,0.0,1.21846967915e-07,0.8041453,0.48052585,9.8851032,9e-08,0.0,0.0,0.0,9e-08,0.0,0.0,0.0,9e-08
1532985838972582027,4318,1532985838970148980,base_link,0.0174455830977,-0.271281661112,-0.959025484342,-0.0798250108468,1.0,0.0,0.0,0.0,1.0,0.0,0.0,0.0,1.0,0.347746342421,-0.0415947884321,-0.198390498757,1.21846967915e-07,0.0,0.0,0.0,1.21846967915e-07,0.0,0.0,0.0,1.21846967915e-07,0.7060788,0.2549729,9.3751574,9e-08,0.0,0.0,0.0,9e-08,0.0,0.0,0.0,9e-08
1532985839348202404,4319,1532985839347590159,base_link,0.015968685491,-0.300398860848,-0.944609498311,-0.131218981803,1.0,0.0,0.0,0.0,1.0,0.0,0.0,0.0,1.0,0.159150242805,-0.1209551543,-0.287017732859,1.21846967915e-07,0.0,0.0,0.0,1.21846967915e-07,0.0,0.0,0.0,1.21846967915e-07,-0.1176798,0.51975245,9.1790244,9e-08,0.0,0.0,0.0,9e-08,0.0,0.0,0.0,9e-08
1532985839899152820,4320,1532985839898815612,base_link,-0.0154830099608,-0.275543432042,-0.935949969222,-0.218709278664,1.0,0.0,0.0,0.0,1.0,0.0,0.0,0.0,1.0,-0.194184735417,-0.180028155446,-0.231564432383,1.21846967915e-07,0.0,0.0,0.0,1.21846967915e-07,0.0,0.0,0.0,1.21846967915e-07,-0.95124505,0.28439285,11.85623985,9e-08,0.0,0.0,0.0,9e-08,0.0,0.0,0.0,9e-08
1532985840332218340,4321,1532985840328369392,base_link,-0.0123825006697,-0.204993791382,-0.938832289826,-0.276438330828,1.0,0.0,0.0,0.0,1.0,0.0,0.0,0.0,1.0,-0.331800252199,-0.0783804282546,-0.256283849478,1.21846967915e-07,0.0,0.0,0.0,1.21846967915e-07,0.0,0.0,0.0,1.21846967915e-07,-1.04931155,0.2941995,12.05237285,9e-08,0.0,0.0,0.0,9e-08,0.0,0.0,0.0,9e-08
1532985840827733938,4322,1532985840827346176,base_link,0.00582775659935,-0.146010195529,-0.934485906942,-0.32462770951,1.0,0.0,0.0,0.0,1.0,0.0,0.0,0.0,1.0,-0.223566278815,-0.0405068062246,-0.103770725429,1.21846967915e-07,0.0,0.0,0.0,1.21846967915e-07,0.0,0.0,0.0,1.21846967915e-07,-1.32389775,0.4511059,9.1005712,9e-08,0.0,0.0,0.0,9e-08,0.0,0.0,0.0,9e-08
1532985841213215418,4323,1532985841212715221,base_link,0.0282437513003,-0.0840396493076,-0.937943498088,-0.335263511662,1.0,0.0,0.0,0.0,1.0,0.0,0.0,0.0,1.0,-0.332435846329,0.0607288554311,-0.0468732714653,1.21846967915e-07,0.0,0.0,0.0,1.21846967915e-07,0.0,0.0,0.0,1.21846967915e-07,-1.0983448,0.1569064,9.7674234,9e-08,0.0,0.0,0.0,9e-08,0.0,0.0,0.0,9e-08
1532985841566928028,4324,1532985841566639902,base_link,0.057784102371,-0.0345305075837,-0.93814243598,-0.33964306466,1.0,0.0,0.0,0.0,1.0,0.0,0.0,0.0,1.0,-0.219162926078,0.0886047333479,-0.0523215346038,1.21846967915e-07,0.0,0.0,0.0,1.21846967915e-07,0.0,0.0,0.0,1.21846967915e-07,-1.08853815,0.4314926,8.50236555,9e-08,0.0,0.0,0.0,9e-08,0.0,0.0,0.0,9e-08
1532985841932967146,4325,1532985841932737190,base_link,0.0874898579985,-0.00912296507295,-0.935234594778,-0.342926448362,1.0,0.0,0.0,0.0,1.0,0.0,0.0,0.0,1.0,-0.120863944292,0.099661052227,0.00918970629573,1.21846967915e-07,0.0,0.0,0.0,1.21846967915e-07,0.0,0.0,0.0,1.21846967915e-07,-1.176798,0.7649187,8.6886919,9e-08,0.0,0.0,0.0,9e-08,0.0,0.0,0.0,9e-08
1532985842435188851,4326,1532985842434760773,base_link,0.1236285279,0.019218581394,-0.934203604916,-0.334081214348,1.0,0.0,0.0,0.0,1.0,0.0,0.0,0.0,1.0,-0.0758437290788,0.0706995651126,0.0341442264616,1.21846967915e-07,0.0,0.0,0.0,1.21846967915e-07,0.0,0.0,0.0,1.21846967915e-07,-1.16699135,0.7256921,8.81617835,9e-08,0.0,0.0,0.0,9e-08,0.0,0.0,0.0,9e-08
1532985842968103091,4327,1532985842967545268,base_link,0.143496425807,-0.0091112495914,-0.936222591955,-0.320644693119,1.0,0.0,0.0,0.0,1.0,0.0,0.0,0.0,1.0,0.244422495365,0.0831241458654,0.135726138949,1.21846967915e-07,0.0,0.0,0.0,1.21846967915e-07,0.0,0.0,0.0,1.21846967915e-07,-1.4317709,0.3138128,7.2176944,9e-08,0.0,0.0,0.0,9e-08,0.0,0.0,0.0,9e-08
1532985843298830553,4328,1532985843296741707,base_link,0.151337064077,-0.0306211321412,-0.9403493833,-0.30315421262,1.0,0.0,0.0,0.0,1.0,0.0,0.0,0.0,1.0,0.0165935717523,0.0886881127954,0.0970477759838,1.21846967915e-07,0.0,0.0,0.0,1.21846967915e-07,0.0,0.0,0.0,1.21846967915e-07,-1.4709975,-0.38245935,7.1000146,9e-08,0.0,0.0,0.0,9e-08,0.0,0.0,0.0,9e-08
1532985843620354042,4329,1532985843620136467,base_link,0.154292760757,-0.0502604757748,-0.939341767125,-0.302166631327,1.0,0.0,0.0,0.0,1.0,0.0,0.0,0.0,1.0,0.0926332995296,0.051576141268,-0.0607304051518,1.21846967915e-07,0.0,0.0,0.0,1.21846967915e-07,0.0,0.0,0.0,1.21846967915e-07,-1.48080415,-0.12748645,8.11009955,9e-08,0.0,0.0,0.0,9e-08,0.0,0.0,0.0,9e-08
1532985843841487070,4330,1532985843840922912,base_link,0.153273432802,-0.0579635180368,-0.936148765439,-0.311083548812,1.0,0.0,0.0,0.0,1.0,0.0,0.0,0.0,1.0,0.140478312969,-0.0120765455067,-0.0741272047162,1.21846967915e-07,0.0,0.0,0.0,1.21846967915e-07,0.0,0.0,0.0,1.21846967915e-07,-1.63771055,0.50013915,8.73772515,9e-08,0.0,0.0,0.0,9e-08,0.0,0.0,0.0,9e-08
1532985844248759632,4331,1532985844248488687,base_link,0.132919697078,-0.0875397883263,-0.932106324674,-0.325341265582,1.0,0.0,0.0,0.0,1.0,0.0,0.0,0.0,1.0,0.074512667954,-0.072061277926,0.0264656748623,1.21846967915e-07,0.0,0.0,0.0,1.21846967915e-07,0.0,0.0,0.0,1.21846967915e-07,-1.75539035,-0.95124505,10.5127288,9e-08,0.0,0.0,0.0,9e-08,0.0,0.0,0.0,9e-08
1532985844604277464,4332,1532985844603981498,base_link,0.117378717256,-0.0752853721711,-0.936833014386,-0.320777575008,1.0,0.0,0.0,0.0,1.0,0.0,0.0,0.0,1.0,-0.0182330366224,-0.1328882128,0.00413297442719,1.21846967915e-07,0.0,0.0,0.0,1.21846967915e-07,0.0,0.0,0.0,1.21846967915e-07,-1.6475172,1.0002783,11.95430635,9e-08,0.0,0.0,0.0,9e-08,0.0,0.0,0.0,9e-08
1532985844948175059,4333,1532985844947402027,base_link,0.104599375692,-0.0539750838618,-0.935165908282,-0.334081404621,1.0,0.0,0.0,0.0,1.0,0.0,0.0,0.0,1.0,0.114806227386,-0.126461595297,-0.134441912174,1.21846967915e-07,0.0,0.0,0.0,1.21846967915e-07,0.0,0.0,0.0,1.21846967915e-07,-1.85345685,0.44129925,10.6107953,9e-08,0.0,0.0,0.0,9e-08,0.0,0.0,0.0,9e-08
1532985845325044808,4334,1532985845324519492,base_link,0.0676473254066,-0.0799206202524,-0.933395648224,-0.343233299231,1.0,0.0,0.0,0.0,1.0,0.0,0.0,0.0,1.0,0.179076686502,-0.161648750305,0.0606636963785,1.21846967915e-07,0.0,0.0,0.0,1.21846967915e-07,0.0,0.0,0.0,1.21846967915e-07,-1.7455837,0.4511059,12.0621795,9e-08,0.0,0.0,0.0,9e-08,0.0,0.0,0.0,9e-08
1532985845750126192,4335,1532985845745117895,base_link,0.0220857939047,-0.102287705845,-0.931239707127,-0.349058807095,1.0,0.0,0.0,0.0,1.0,0.0,0.0,0.0,1.0,0.194563731551,-0.12983840704,-0.121331103146,1.21846967915e-07,0.0,0.0,0.0,1.21846967915e-07,0.0,0.0,0.0,1.21846967915e-07,-1.65732385,0.16671305,13.32723735,9e-08,0.0,0.0,0.0,9e-08,0.0,0.0,0.0,9e-08
1532985846145118619,4336,1532985846144840506,base_link,-0.0268567676798,-0.15669573077,-0.908455175275,-0.386567402279,1.0,0.0,0.0,0.0,1.0,0.0,0.0,0.0,1.0,0.558706045151,-0.156506001949,-0.21514262259,1.21846967915e-07,0.0,0.0,0.0,1.21846967915e-07,0.0,0.0,0.0,1.21846967915e-07,-1.52003075,0.12748645,13.26839745,9e-08,0.0,0.0,0.0,9e-08,0.0,0.0,0.0,9e-08
1532985846635728849,4337,1532985846635499018,base_link,-0.0900062518779,-0.230080728093,-0.870158971099,-0.426362636965,1.0,0.0,0.0,0.0,1.0,0.0,0.0,0.0,1.0,0.463628947735,-0.140529632568,-0.226713016629,1.21846967915e-07,0.0,0.0,0.0,1.21846967915e-07,0.0,0.0,0.0,1.21846967915e-07,-1.46119085,-0.08825985,10.44408225,9e-08,0.0,0.0,0.0,9e-08,0.0,0.0,0.0,9e-08
1532985847005918228,4338,1532985847005559676,base_link,-0.135228948772,-0.274658755826,-0.828717253795,-0.468511912895,1.0,0.0,0.0,0.0,1.0,0.0,0.0,0.0,1.0,-0.103909395635,-0.251753687859,-0.214957937598,1.21846967915e-07,0.0,0.0,0.0,1.21846967915e-07,0.0,0.0,0.0,1.21846967915e-07,-1.1571847,0.7256921,13.11149105,9e-08,0.0,0.0,0.0,9e-08,0.0,0.0,0.0,9e-08
1532985847442686583,4339,1532985847442422356,base_link,-0.17657521505,-0.282933623306,-0.783891871078,-0.523720624657,1.0,0.0,0.0,0.0,1.0,0.0,0.0,0.0,1.0,0.146938934922,-0.228237271309,-0.291347444057,1.21846967915e-07,0.0,0.0,0.0,1.21846967915e-07,0.0,0.0,0.0,1.21846967915e-07,-0.73549875,0.7256921,12.05237285,9e-08,0.0,0.0,0.0,9e-08,0.0,0.0,0.0,9e-08
1532985847869602204,4340,1532985847869182507,base_link,-0.208864571885,-0.289274006481,-0.722766793954,-0.591865104009,1.0,0.0,0.0,0.0,1.0,0.0,0.0,0.0,1.0,0.270987421274,-0.275484979153,-0.447386264801,1.21846967915e-07,0.0,0.0,0.0,1.21846967915e-07,0.0,0.0,0.0,1.21846967915e-07,-0.4511059,0.7060788,10.73828175,9e-08,0.0,0.0,0.0,9e-08,0.0,0.0,0.0,9e-08
1532985848317470169,4341,1532985848317050951,base_link,-0.256961642408,-0.275458447953,-0.644834971424,-0.665042267387,1.0,0.0,0.0,0.0,1.0,0.0,0.0,0.0,1.0,-0.0686677247286,-0.423621922731,-0.316253721714,1.21846967915e-07,0.0,0.0,0.0,1.21846967915e-07,0.0,0.0,0.0,1.21846967915e-07,0.20593965,0.1176798,13.1997509,9e-08,0.0,0.0,0.0,9e-08,0.0,0.0,0.0,9e-08
1532985848636915650,4342,1532985848636574664,base_link,-0.291479989267,-0.232999748774,-0.595439562081,-0.711478925083,1.0,0.0,0.0,0.0,1.0,0.0,0.0,0.0,1.0,-0.0615969412029,-0.460346490145,-0.291237741709,1.21846967915e-07,0.0,0.0,0.0,1.21846967915e-07,0.0,0.0,0.0,1.21846967915e-07,0.75511205,1.2160246,17.13221755,9e-08,0.0,0.0,0.0,9e-08,0.0,0.0,0.0,9e-08
1532985849145251800,4343,1532985849144790762,base_link,-0.341253906792,-0.196430394008,-0.47787963657,-0.785233675004,1.0,0.0,0.0,0.0,1.0,0.0,0.0,0.0,1.0,0.106881216168,-0.452424168587,-0.361019194126,1.21846967915e-07,0.0,0.0,0.0,1.21846967915e-07,0.0,0.0,0.0,1.21846967915e-07,0.48052585,0.2549729,16.54381855,9e-08,0.0,0.0,0.0,9e-08,0.0,0.0,0.0,9e-08
1532985849591174417,4344,1532985849590935115,base_link,-0.381646424285,-0.142317145073,-0.392290460987,-0.824742402976,1.0,0.0,0.0,0.0,1.0,0.0,0.0,0.0,1.0,0.219105392694,-0.493854850531,-0.292564719915,1.21846967915e-07,0.0,0.0,0.0,1.21846967915e-07,0.0,0.0,0.0,1.21846967915e-07,0.6080123,0.04903325,15.9063863,9e-08,0.0,0.0,0.0,9e-08,0.0,0.0,0.0,9e-08
1532985850011152142,4345,1532985850009617971,base_link,-0.407148435037,-0.0741170938671,-0.304915805347,-0.857766378388,1.0,0.0,0.0,0.0,1.0,0.0,0.0,0.0,1.0,-0.101457715034,-0.434070587158,-0.319174766541,1.21846967915e-07,0.0,0.0,0.0,1.21846967915e-07,0.0,0.0,0.0,1.21846967915e-07,0.55897905,0.83356525,15.9063863,9e-08,0.0,0.0,0.0,9e-08,0.0,0.0,0.0,9e-08
1532985850272143092,4346,1532985850271866642,base_link,-0.409507683085,-0.0402410838418,-0.244420933433,-0.878033325088,1.0,0.0,0.0,0.0,1.0,0.0,0.0,0.0,1.0,-0.0220030024648,-0.357080578804,-0.336484104395,1.21846967915e-07,0.0,0.0,0.0,1.21846967915e-07,0.0,0.0,0.0,1.21846967915e-07,0.85317855,0.46091255,15.81812645,9e-08,0.0,0.0,0.0,9e-08,0.0,0.0,0.0,9e-08
1532985850609243625,4347,1532985850608897102,base_link,-0.40822952671,-0.00783685563856,-0.171016248717,-0.896683154682,1.0,0.0,0.0,0.0,1.0,0.0,0.0,0.0,1.0,-0.0541928187013,-0.293919324875,-0.341401904821,1.21846967915e-07,0.0,0.0,0.0,1.21846967915e-07,0.0,0.0,0.0,1.21846967915e-07,0.61781895,0.69627215,13.20955755,9e-08,0.0,0.0,0.0,9e-08,0.0,0.0,0.0,9e-08
1532985851005236771,4348,1532985851004857003,base_link,-0.404861711904,0.0227109439792,-0.0741648446235,-0.911082204348,1.0,0.0,0.0,0.0,1.0,0.0,0.0,0.0,1.0,-0.0514477305114,-0.367356777191,-0.321806877851,1.21846967915e-07,0.0,0.0,0.0,1.21846967915e-07,0.0,0.0,0.0,1.21846967915e-07,0.97085835,0.4314926,13.93524965,9e-08,0.0,0.0,0.0,9e-08,0.0,0.0,0.0,9e-08
1532985851301134809,4349,1532985851300788093,base_link,-0.39080918985,0.0582004131581,-0.0172287743016,-0.918468321921,1.0,0.0,0.0,0.0,1.0,0.0,0.0,0.0,1.0,-0.148160606623,-0.342578619719,-0.288434684277,1.21846967915e-07,0.0,0.0,0.0,1.21846967915e-07,0.0,0.0,0.0,1.21846967915e-07,1.01008495,0.79433865,13.09187775,9e-08,0.0,0.0,0.0,9e-08,0.0,0.0,0.0,9e-08
1532985851700070263,4350,1532985851699693599,base_link,-0.36613158349,0.0785394015222,0.0743311957781,-0.924258675542,1.0,0.0,0.0,0.0,1.0,0.0,0.0,0.0,1.0,-0.192229032516,-0.197335034609,-0.402617305517,1.21846967915e-07,0.0,0.0,0.0,1.21846967915e-07,0.0,0.0,0.0,1.21846967915e-07,0.93163175,0.5687857,9.56148375,9e-08,0.0,0.0,0.0,9e-08,0.0,0.0,0.0,9e-08
1532985852058517750,4351,1532985852057954129,base_link,-0.297859495194,0.0885649195517,0.155810110496,-0.937634889291,1.0,0.0,0.0,0.0,1.0,0.0,0.0,0.0,1.0,-0.451753139496,-0.182788476348,-0.349536567926,1.21846967915e-07,0.0,0.0,0.0,1.21846967915e-07,0.0,0.0,0.0,1.21846967915e-07,0.89240515,1.0591182,12.944778,9e-08,0.0,0.0,0.0,9e-08,0.0,0.0,0.0,9e-08
1532985852546991421,4352,1532985852546651200,base_link,-0.201938175428,0.0834269022454,0.246532184046,-0.944183672553,1.0,0.0,0.0,0.0,1.0,0.0,0.0,0.0,1.0,-0.52247107029,-0.09966160357,-0.263777822256,1.21846967915e-07,0.0,0.0,0.0,1.21846967915e-07,0.0,0.0,0.0,1.21846967915e-07,0.22555295,0.61781895,9.5124505,9e-08,0.0,0.0,0.0,9e-08,0.0,0.0,0.0,9e-08
1532985852947761146,4353,1532985852947445819,base_link,-0.0973398829496,0.0551574470336,0.292287457416,-0.949763468165,1.0,0.0,0.0,0.0,1.0,0.0,0.0,0.0,1.0,-0.49691182375,0.00703327078372,-0.129245355725,1.21846967915e-07,0.0,0.0,0.0,1.21846967915e-07,0.0,0.0,0.0,1.21846967915e-07,0.196133,0.4314926,10.4735022,9e-08,0.0,0.0,0.0,9e-08,0.0,0.0,0.0,9e-08
1532985853406754766,4354,1532985853406146285,base_link,0.00436926048739,0.0177686151396,0.305905455709,-0.951886042573,1.0,0.0,0.0,0.0,1.0,0.0,0.0,0.0,1.0,-0.390232771635,0.0923295766115,0.044750854373,1.21846967915e-07,0.0,0.0,0.0,1.21846967915e-07,0.0,0.0,0.0,1.21846967915e-07,0.02941995,0.14709975,9.0025047,9e-08,0.0,0.0,0.0,9e-08,0.0,0.0,0.0,9e-08
1532985853749625419,4355,1532985853749341513,base_link,0.0697474655876,-0.0137020050599,0.304657530456,-0.949805946095,1.0,0.0,0.0,0.0,1.0,0.0,0.0,0.0,1.0,-0.304907560349,0.072607062757,-0.0142010897398,1.21846967915e-07,0.0,0.0,0.0,1.21846967915e-07,0.0,0.0,0.0,1.21846967915e-07,0.0392266,1.09168014224e-15,8.91424485,9e-08,0.0,0.0,0.0,9e-08,0.0,0.0,0.0,9e-08
1532985854297393792,4356,1532985854297088095,base_link,0.113954058037,-0.05238745972,0.279713721256,-0.951856218587,1.0,0.0,0.0,0.0,1.0,0.0,0.0,0.0,1.0,-0.241712361574,0.0782770067453,0.0810430049896,1.21846967915e-07,0.0,0.0,0.0,1.21846967915e-07,0.0,0.0,0.0,1.21846967915e-07,0.4118793,0.28439285,8.1787461,9e-08,0.0,0.0,0.0,9e-08,0.0,0.0,0.0,9e-08
1532985854705885630,4357,1532985854705577085,base_link,0.200273016898,-0.0921745773539,0.25174735483,-0.942346982448,1.0,0.0,0.0,0.0,1.0,0.0,0.0,0.0,1.0,0.0440016761422,0.0190926771611,0.141118481755,1.21846967915e-07,0.0,0.0,0.0,1.21846967915e-07,0.0,0.0,0.0,1.21846967915e-07,1.2160246,-0.5099458,10.6500219,9e-08,0.0,0.0,0.0,9e-08,0.0,0.0,0.0,9e-08
1532985855004208444,4358,1532985855003853184,base_link,0.214350829255,-0.0943232760282,0.225391515928,-0.945703709491,1.0,0.0,0.0,0.0,1.0,0.0,0.0,0.0,1.0,-0.212407499552,-0.0704586952925,0.0984073579311,1.21846967915e-07,0.0,0.0,0.0,1.21846967915e-07,0.0,0.0,0.0,1.21846967915e-07,1.26505785,0.4707192,12.3956056,9e-08,0.0,0.0,0.0,9e-08,0.0,0.0,0.0,9e-08
1532985855455913417,4359,1532985855455175220,base_link,0.118556015582,-0.0596605604504,0.224915942334,-0.965296797664,1.0,0.0,0.0,0.0,1.0,0.0,0.0,0.0,1.0,0.48371091485,-0.0197856929153,0.148218631744,1.21846967915e-07,0.0,0.0,0.0,1.21846967915e-07,0.0,0.0,0.0,1.21846967915e-07,0.5295591,-0.784532,8.52197885,9e-08,0.0,0.0,0.0,9e-08,0.0,0.0,0.0,9e-08
1532985855932007700,4360,1532985855930000863,base_link,0.0851731676363,-0.0553782136349,0.154630595711,-0.982735042542,1.0,0.0,0.0,0.0,1.0,0.0,0.0,0.0,1.0,0.119538933039,-0.0228663049638,0.232854619622,1.21846967915e-07,0.0,0.0,0.0,1.21846967915e-07,0.0,0.0,0.0,1.21846967915e-07,0.9610517,-0.00980665,11.28745415,9e-08,0.0,0.0,0.0,9e-08,0.0,0.0,0.0,9e-08
1532985856247643255,4361,1532985856247402799,base_link,0.0356552003254,-0.0546673992679,0.14176796756,-0.987745931665,1.0,0.0,0.0,0.0,1.0,0.0,0.0,0.0,1.0,0.312353253365,0.0432049967349,-0.0603849254549,1.21846967915e-07,0.0,0.0,0.0,1.21846967915e-07,0.0,0.0,0.0,1.21846967915e-07,0.1176798,0.57859235,6.42335575,9e-08,0.0,0.0,0.0,9e-08,0.0,0.0,0.0,9e-08
1532985856536751300,4362,1532985856536439011,base_link,-0.00953965137065,-0.0515127569503,0.140797939639,-0.988651288937,1.0,0.0,0.0,0.0,1.0,0.0,0.0,0.0,1.0,0.484074026346,-0.00491124950349,0.0617979355156,1.21846967915e-07,0.0,0.0,0.0,1.21846967915e-07,0.0,0.0,0.0,1.21846967915e-07,0.2745862,-0.63743225,8.44352565,9e-08,0.0,0.0,0.0,9e-08,0.0,0.0,0.0,9e-08
1532985856950718295,4363,1532985856950292961,base_link,-0.0224632056129,-0.0395250311545,0.106470581461,-0.993275989637,1.0,0.0,0.0,0.0,1.0,0.0,0.0,0.0,1.0,-0.21132209897,-0.01890873909,0.144690260291,1.21846967915e-07,0.0,0.0,0.0,1.21846967915e-07,0.0,0.0,0.0,1.21846967915e-07,0.4903325,-0.0784532,11.0619012,9e-08,0.0,0.0,0.0,9e-08,0.0,0.0,0.0,9e-08
1532985857217311911,4364,1532985857216962313,base_link,0.0044775659312,-0.0380008149492,0.0935403231547,-0.994879941204,1.0,0.0,0.0,0.0,1.0,0.0,0.0,0.0,1.0,-0.190224781632,-0.02170471102,0.040792927146,1.21846967915e-07,0.0,0.0,0.0,1.21846967915e-07,0.0,0.0,0.0,1.21846967915e-07,0.2941995,0.50013915,10.36562905,9e-08,0.0,0.0,0.0,9e-08,0.0,0.0,0.0,9e-08
1532985857545303138,4365,1532985857544523279,base_link,0.0221964856226,-0.0314343650516,0.0936895234314,-0.99485751237,1.0,0.0,0.0,0.0,1.0,0.0,0.0,0.0,1.0,-0.0195175651461,-0.0804407373071,0.0389598309994,1.21846967915e-07,0.0,0.0,0.0,1.21846967915e-07,0.0,0.0,0.0,1.21846967915e-07,0.12748645,-0.3530394,11.32668075,9e-08,0.0,0.0,0.0,9e-08,0.0,0.0,0.0,9e-08
1532985858018452723,4366,1532985858018160176,base_link,0.0331351724335,-0.0173009010464,0.0785061280038,-0.996212591286,1.0,0.0,0.0,0.0,1.0,0.0,0.0,0.0,1.0,-0.0626226663589,-0.0141793861985,-0.0128583684564,1.21846967915e-07,0.0,0.0,0.0,1.21846967915e-07,0.0,0.0,0.0,1.21846967915e-07,-0.38245935,0.26477955,9.30651085,9e-08,0.0,0.0,0.0,9e-08,0.0,0.0,0.0,9e-08
1532985858561249024,4367,1532985858559229605,base_link,0.0359037851187,-0.00894943446032,0.115617435296,-0.992604369572,1.0,0.0,0.0,0.0,1.0,0.0,0.0,0.0,1.0,0.49438932538,-0.0878606662154,-0.210424587131,1.21846967915e-07,0.0,0.0,0.0,1.21846967915e-07,0.0,0.0,0.0,1.21846967915e-07,-0.95124505,-0.08825985,9.5909037,9e-08,0.0,0.0,0.0,9e-08,0.0,0.0,0.0,9e-08
1532985858967542232,4368,1532985858967241717,base_link,-0.0334646847498,0.0145267274976,0.0982105958114,-0.994496741037,1.0,0.0,0.0,0.0,1.0,0.0,0.0,0.0,1.0,0.00246987584978,-0.00253755785525,0.215924620628,1.21846967915e-07,0.0,0.0,0.0,1.21846967915e-07,0.0,0.0,0.0,1.21846967915e-07,-0.4903325,0.61781895,12.56231865,9e-08,0.0,0.0,0.0,9e-08,0.0,0.0,0.0,9e-08
1532985859461817518,4369,1532985859460315583,base_link,-0.0744919494662,0.0198544271878,0.139162996244,-0.987264104312,1.0,0.0,0.0,0.0,1.0,0.0,0.0,0.0,1.0,0.719323396683,-0.04243228212,-0.258082091808,1.21846967915e-07,0.0,0.0,0.0,1.21846967915e-07,0.0,0.0,0.0,1.21846967915e-07,-0.4707192,0.04903325,11.58165365,9e-08,0.0,0.0,0.0,9e-08,0.0,0.0,0.0,9e-08
1532985859864570920,4370,1532985859863342142,base_link,-0.182154652932,0.0362925689539,0.152877625462,-0.970634309865,1.0,0.0,0.0,0.0,1.0,0.0,0.0,0.0,1.0,0.338882982731,0.0246519185603,0.0063231382519,1.21846967915e-07,0.0,0.0,0.0,1.21846967915e-07,0.0,0.0,0.0,1.21846967915e-07,-0.65704555,-0.0196133,10.13026945,9e-08,0.0,0.0,0.0,9e-08,0.0,0.0,0.0,9e-08
1532985860263334857,4371,1532985860262917073,base_link,-0.235022700788,0.0419568629285,0.166895434497,-0.95663465634,1.0,0.0,0.0,0.0,1.0,0.0,0.0,0.0,1.0,0.00293124374002,-0.0524987950921,-0.220499768853,1.21846967915e-07,0.0,0.0,0.0,1.21846967915e-07,0.0,0.0,0.0,1.21846967915e-07,-0.50013915,0.980665,6.2370294,9e-08,0.0,0.0,0.0,9e-08,0.0,0.0,0.0,9e-08
1532985860786567209,4372,1532985860786116276,base_link,-0.273858208915,0.0463531796987,0.220665602143,-0.934965109602,1.0,0.0,0.0,0.0,1.0,0.0,0.0,0.0,1.0,-0.111406594515,-0.0935068801045,-0.183071196079,1.21846967915e-07,0.0,0.0,0.0,1.21846967915e-07,0.0,0.0,0.0,1.21846967915e-07,-0.61781895,0.81395195,6.5900688,9e-08,0.0,0.0,0.0,9e-08,0.0,0.0,0.0,9e-08
1532985861144904691,4373,1532985861144574963,base_link,-0.259169379891,0.0418318483585,0.270501923061,-0.926234332451,1.0,0.0,0.0,0.0,1.0,0.0,0.0,0.0,1.0,-0.0370179787278,-0.125501051545,-0.312553614378,1.21846967915e-07,0.0,0.0,0.0,1.21846967915e-07,0.0,0.0,0.0,1.21846967915e-07,-0.1765197,1.0787315,10.99325465,9e-08,0.0,0.0,0.0,9e-08,0.0,0.0,0.0,9e-08
1532985861512004948,4374,1532985861510404715,base_link,-0.285983649104,0.0581269108607,0.33404503194,-0.89624133542,1.0,0.0,0.0,0.0,1.0,0.0,0.0,0.0,1.0,0.248537525535,-0.181754663587,-0.330526083708,1.21846967915e-07,0.0,0.0,0.0,1.21846967915e-07,0.0,0.0,0.0,1.21846967915e-07,-0.40207265,0.4511059,10.46369555,9e-08,0.0,0.0,0.0,9e-08,0.0,0.0,0.0,9e-08
1532985861935709535,4375,1532985861935070523,base_link,-0.294778933492,0.10700710453,0.387285655318,-0.866985975166,1.0,0.0,0.0,0.0,1.0,0.0,0.0,0.0,1.0,0.00233971327543,-0.299729645252,-0.123007848859,1.21846967915e-07,0.0,0.0,0.0,1.21846967915e-07,0.0,0.0,0.0,1.21846967915e-07,0.0392266,0.1176798,17.09299095,9e-08,0.0,0.0,0.0,9e-08,0.0,0.0,0.0,9e-08
1532985862439210609,4376,1532985862438931307,base_link,-0.269766222478,0.141347893297,0.440147419853,-0.844699477369,1.0,0.0,0.0,0.0,1.0,0.0,0.0,0.0,1.0,-0.236511155963,-0.201450705528,-0.269207686186,1.21846967915e-07,0.0,0.0,0.0,1.21846967915e-07,0.0,0.0,0.0,1.21846967915e-07,-0.3530394,0.67665885,12.2386992,9e-08,0.0,0.0,0.0,9e-08,0.0,0.0,0.0,9e-08
1532985862806209747,4377,1532985862805756253,base_link,-0.251700913625,0.143054833612,0.505899250551,-0.812556406013,1.0,0.0,0.0,0.0,1.0,0.0,0.0,0.0,1.0,0.0811878964305,-0.117138244212,-0.402035057545,1.21846967915e-07,0.0,0.0,0.0,1.21846967915e-07,0.0,0.0,0.0,1.21846967915e-07,-0.6472389,0.7256921,11.95430635,9e-08,0.0,0.0,0.0,9e-08,0.0,0.0,0.0,9e-08
1532985863107865519,4378,1532985863107574378,base_link,-0.270994856588,0.165910115703,0.552853839467,-0.770316982415,1.0,0.0,0.0,0.0,1.0,0.0,0.0,0.0,1.0,0.101291790605,-0.160941332579,-0.199469283223,1.21846967915e-07,0.0,0.0,0.0,1.21846967915e-07,0.0,0.0,0.0,1.21846967915e-07,-0.89240515,0.04903325,11.32668075,9e-08,0.0,0.0,0.0,9e-08,0.0,0.0,0.0,9e-08
1532985863504105281,4379,1532985863503665738,base_link,-0.217957296252,0.166513355356,0.593253030219,-0.756847911826,1.0,0.0,0.0,0.0,1.0,0.0,0.0,0.0,1.0,-0.178327322006,-0.243230178952,-0.173059731722,1.21846967915e-07,0.0,0.0,0.0,1.21846967915e-07,0.0,0.0,0.0,1.21846967915e-07,-0.7060788,0.2157463,13.44491715,9e-08,0.0,0.0,0.0,9e-08,0.0,0.0,0.0,9e-08
1532985863910847085,4380,1532985863910153453,base_link,-0.142041575841,0.119869340053,0.63813231697,-0.747156394664,1.0,0.0,0.0,0.0,1.0,0.0,0.0,0.0,1.0,-0.652546823025,0.0158354006708,-0.227965950966,1.21846967915e-07,0.0,0.0,0.0,1.21846967915e-07,0.0,0.0,0.0,1.21846967915e-07,-0.9022118,1.06892485,7.67860695,9e-08,0.0,0.0,0.0,9e-08,0.0,0.0,0.0,9e-08
1532985864404279881,4381,1532985864403837777,base_link,-0.0854382873547,0.034817865398,0.706016875113,-0.70215965945,1.0,0.0,0.0,0.0,1.0,0.0,0.0,0.0,1.0,-0.381638109684,0.0809733569622,-0.318940252066,1.21846967915e-07,0.0,0.0,0.0,1.21846967915e-07,0.0,0.0,0.0,1.21846967915e-07,-0.6864655,0.3138128,7.7668668,9e-08,0.0,0.0,0.0,9e-08,0.0,0.0,0.0,9e-08
1532985864832744985,4382,1532985864832227432,base_link,0.0895494138893,-0.0232079836396,-0.728694932256,0.678561705133,1.0,0.0,0.0,0.0,1.0,0.0,0.0,0.0,1.0,-0.313710689545,0.0250857789069,0.0818359553814,1.21846967915e-07,0.0,0.0,0.0,1.21846967915e-07,0.0,0.0,0.0,1.21846967915e-07,-0.10787315,-0.3334261,10.64021525,9e-08,0.0,0.0,0.0,9e-08,0.0,0.0,0.0,9e-08
1532985865295009800,4383,1532985865294492567,base_link,0.0304110948873,0.0490162285362,-0.713382453635,0.698396770821,1.0,0.0,0.0,0.0,1.0,0.0,0.0,0.0,1.0,-0.811754345894,0.0362457595766,-0.023990355432,1.21846967915e-07,0.0,0.0,0.0,1.21846967915e-07,0.0,0.0,0.0,1.21846967915e-07,-0.196133,0.53936575,9.7085835,9e-08,0.0,0.0,0.0,9e-08,0.0,0.0,0.0,9e-08
1532985865720981353,4384,1532985865720502580,base_link,0.0221938361225,0.0843128789121,-0.738166954187,0.66896062652,1.0,0.0,0.0,0.0,1.0,0.0,0.0,0.0,1.0,0.345494776964,0.035315155983,-0.200125470757,1.21846967915e-07,0.0,0.0,0.0,1.21846967915e-07,0.0,0.0,0.0,1.21846967915e-07,-0.4707192,-0.6080123,7.67860695,9e-08,0.0,0.0,0.0,9e-08,0.0,0.0,0.0,9e-08
1532985866011642739,4385,1532985866011402537,base_link,0.0548629494157,0.0392793438581,-0.739775655735,0.669461850376,1.0,0.0,0.0,0.0,1.0,0.0,0.0,0.0,1.0,0.518209278584,-0.0451861657202,0.172953635454,1.21846967915e-07,0.0,0.0,0.0,1.21846967915e-07,0.0,0.0,0.0,1.21846967915e-07,-0.3530394,-0.6080123,10.7677017,9e-08,0.0,0.0,0.0,9e-08,0.0,0.0,0.0,9e-08
1532985866504834159,4386,1532985866504468463,base_link,0.0560629922946,0.0135956723819,-0.717583616199,0.694079139833,1.0,0.0,0.0,0.0,1.0,0.0,0.0,0.0,1.0,-0.0610640160739,-0.046053878963,-0.00618462823331,1.21846967915e-07,0.0,0.0,0.0,1.21846967915e-07,0.0,0.0,0.0,1.21846967915e-07,-0.3530394,0.87279185,13.1997509,9e-08,0.0,0.0,0.0,9e-08,0.0,0.0,0.0,9e-08
1532985866851467580,4387,1532985866851016420,base_link,0.0378345066163,0.0222019628447,-0.729638345508,0.682424726779,1.0,0.0,0.0,0.0,1.0,0.0,0.0,0.0,1.0,-0.0592137351632,-0.00682093203068,-0.143382906914,1.21846967915e-07,0.0,0.0,0.0,1.21846967915e-07,0.0,0.0,0.0,1.21846967915e-07,-0.4118793,0.26477955,11.179581,9e-08,0.0,0.0,0.0,9e-08,0.0,0.0,0.0,9e-08
1532985867266685245,4388,1532985867265780236,base_link,0.0584383098269,-0.011471950132,-0.744964980366,0.664440017106,1.0,0.0,0.0,0.0,1.0,0.0,0.0,0.0,1.0,0.0114587470889,-0.0836633518338,-0.00807322748005,1.21846967915e-07,0.0,0.0,0.0,1.21846967915e-07,0.0,0.0,0.0,1.21846967915e-07,-0.20593965,-0.42168595,11.97391965,9e-08,0.0,0.0,0.0,9e-08,0.0,0.0,0.0,9e-08
1532985867732842377,4389,1532985867732428749,base_link,0.024140169598,0.0221961625067,-0.719458523043,0.693760777359,1.0,0.0,0.0,0.0,1.0,0.0,0.0,0.0,1.0,-0.162770420313,0.00834712479264,0.157381176949,1.21846967915e-07,0.0,0.0,0.0,1.21846967915e-07,0.0,0.0,0.0,1.21846967915e-07,-0.42168595,0.16671305,8.9240515,9e-08,0.0,0.0,0.0,9e-08,0.0,0.0,0.0,9e-08
1532985868166871366,4390,1532985868166355475,base_link,0.037088071797,0.0239346349063,-0.712681278805,0.700097852463,1.0,0.0,0.0,0.0,1.0,0.0,0.0,0.0,1.0,0.321178168058,0.0959749743342,-0.10794711858,1.21846967915e-07,0.0,0.0,0.0,1.21846967915e-07,0.0,0.0,0.0,1.21846967915e-07,-0.10787315,0.71588545,9.32612415,9e-08,0.0,0.0,0.0,9e-08,0.0,0.0,0.0,9e-08
1532985868670203882,4391,1532985868669890118,base_link,0.0345052899545,0.0558558511191,-0.731452850956,0.678723976067,1.0,0.0,0.0,0.0,1.0,0.0,0.0,0.0,1.0,0.0114590805024,0.0302521847188,-0.171582728624,1.21846967915e-07,0.0,0.0,0.0,1.21846967915e-07,0.0,0.0,0.0,1.21846967915e-07,-0.2941995,-0.2353596,5.93302325,9e-08,0.0,0.0,0.0,9e-08,0.0,0.0,0.0,9e-08
1532985869116588207,4392,1532985869116204304,base_link,0.0587992476571,0.0146610849276,-0.734468484339,0.675931761775,1.0,0.0,0.0,0.0,1.0,0.0,0.0,0.0,1.0,0.143480584025,-0.0866247415543,0.129117041826,1.21846967915e-07,0.0,0.0,0.0,1.21846967915e-07,0.0,0.0,0.0,1.21846967915e-07,-0.26477955,-0.04903325,11.22861425,9e-08,0.0,0.0,0.0,9e-08,0.0,0.0,0.0,9e-08
1532985869504629904,4393,1532985869504356296,base_link,0.0203015618077,0.0224558853725,-0.722302013355,0.690914887163,1.0,0.0,0.0,0.0,1.0,0.0,0.0,0.0,1.0,-0.223737001419,-0.0879515558481,0.00734500773251,1.21846967915e-07,0.0,0.0,0.0,1.21846967915e-07,0.0,0.0,0.0,1.21846967915e-07,-0.6276256,0.46091255,11.0030613,9e-08,0.0,0.0,0.0,9e-08,0.0,0.0,0.0,9e-08
1532985869805148181,4394,1532985869804810674,base_link,-0.000564482606951,0.0206709644279,-0.728810870251,0.684402738154,1.0,0.0,0.0,0.0,1.0,0.0,0.0,0.0,1.0,0.0260468609631,-0.0847580209374,-0.0958141535521,1.21846967915e-07,0.0,0.0,0.0,1.21846967915e-07,0.0,0.0,0.0,1.21846967915e-07,-0.4903325,-0.1372931,11.2972608,9e-08,0.0,0.0,0.0,9e-08,0.0,0.0,0.0,9e-08
1532985870209268943,4395,1532985870208964201,base_link,0.00485220779621,-0.0106648421464,-0.728633422923,0.684803659614,1.0,0.0,0.0,0.0,1.0,0.0,0.0,0.0,1.0,0.221697673202,-0.0931615382433,0.0584096461535,1.21846967915e-07,0.0,0.0,0.0,1.21846967915e-07,0.0,0.0,0.0,1.21846967915e-07,-0.5491724,-0.0196133,10.8265416,9e-08,0.0,0.0,0.0,9e-08,0.0,0.0,0.0,9e-08
1532985870643482436,4396,1532985870643214458,base_link,0.0115219133627,-0.0347206608156,-0.723197048881,0.689672204539,1.0,0.0,0.0,0.0,1.0,0.0,0.0,0.0,1.0,-0.206669420004,-0.018337726593,0.0303571894765,1.21846967915e-07,0.0,0.0,0.0,1.21846967915e-07,0.0,0.0,0.0,1.21846967915e-07,-0.5099458,0.3530394,10.3754357,9e-08,0.0,0.0,0.0,9e-08,0.0,0.0,0.0,9e-08
1532985871005728162,4397,1532985871005450297,base_link,0.0140760665884,-0.0345110647064,-0.727187737268,0.685426032136,1.0,0.0,0.0,0.0,1.0,0.0,0.0,0.0,1.0,-0.0465976931155,-0.0205688942224,-0.0126657616347,1.21846967915e-07,0.0,0.0,0.0,1.21846967915e-07,0.0,0.0,0.0,1.21846967915e-07,-0.2745862,-0.1765197,10.26756255,9e-08,0.0,0.0,0.0,9e-08,0.0,0.0,0.0,9e-08
1532985871498058594,4398,1532985871497700992,base_link,0.0190284721918,-0.0310108006454,-0.725845872983,0.686894472363,1.0,0.0,0.0,0.0,1.0,0.0,0.0,0.0,1.0,-0.189484760165,0.063361056149,0.00913867168128,1.21846967915e-07,0.0,0.0,0.0,1.21846967915e-07,0.0,0.0,0.0,1.21846967915e-07,0.1372931,0.14709975,8.4729456,9e-08,0.0,0.0,0.0,9e-08,0.0,0.0,0.0,9e-08
1532985871921514489,4399,1532985871920906380,base_link,0.00433797599146,0.00700503183351,-0.728282370311,0.685227626842,1.0,0.0,0.0,0.0,1.0,0.0,0.0,0.0,1.0,-0.121005907655,0.0838165730238,-0.0114478617907,1.21846967915e-07,0.0,0.0,0.0,1.21846967915e-07,0.0,0.0,0.0,1.21846967915e-07,0.48052585,0.18632635,8.40429905,9e-08,0.0,0.0,0.0,9e-08,0.0,0.0,0.0,9e-08
1532985872291714556,4400,1532985872291383992,base_link,-8.6991937013e-05,0.0271098926179,-0.728219973251,0.68480706532,1.0,0.0,0.0,0.0,1.0,0.0,0.0,0.0,1.0,-0.0536882989109,0.0248004645109,0.0150026716292,1.21846967915e-07,0.0,0.0,0.0,1.21846967915e-07,0.0,0.0,0.0,1.21846967915e-07,0.26477955,0.0784532,8.65927195,9e-08,0.0,0.0,0.0,9e-08,0.0,0.0,0.0,9e-08
1532985872733652978,4401,1532985872733319790,base_link,-0.00403468870239,0.0323800954827,-0.72257151239,0.690525640499,1.0,0.0,0.0,0.0,1.0,0.0,0.0,0.0,1.0,-0.242875546217,-0.0228393021971,0.0361654758453,1.21846967915e-07,0.0,0.0,0.0,1.21846967915e-07,0.0,0.0,0.0,1.21846967915e-07,0.2941995,0.196133,11.0422879,9e-08,0.0,0.0,0.0,9e-08,0.0,0.0,0.0,9e-08
1532985873136633185,4402,1532985873136368183,base_link,-0.003419376158,0.0228237965213,-0.712640806734,0.701149386904,1.0,0.0,0.0,0.0,1.0,0.0,0.0,0.0,1.0,0.145145997405,-0.042298540473,0.0850193798542,1.21846967915e-07,0.0,0.0,0.0,1.21846967915e-07,0.0,0.0,0.0,1.21846967915e-07,0.7256921,0.0196133,11.1991943,9e-08,0.0,0.0,0.0,9e-08,0.0,0.0,0.0,9e-08
1532985873497344563,4403,1532985873497067530,base_link,0.0236050473686,-0.0118963199865,-0.712608306167,0.701063963766,1.0,0.0,0.0,0.0,1.0,0.0,0.0,0.0,1.0,0.21828366816,-0.0403923466802,-0.0351416431367,1.21846967915e-07,0.0,0.0,0.0,1.21846967915e-07,0.0,0.0,0.0,1.21846967915e-07,0.6472389,0.0588399,11.28745415,9e-08,0.0,0.0,0.0,9e-08,0.0,0.0,0.0,9e-08
1532985873932787292,4404,1532985873932455191,base_link,0.0717692656165,-0.0670400190028,-0.722528439332,0.684329937034,1.0,0.0,0.0,0.0,1.0,0.0,0.0,0.0,1.0,0.505518615246,-0.032985329628,-0.114123016596,1.21846967915e-07,0.0,0.0,0.0,1.21846967915e-07,0.0,0.0,0.0,1.21846967915e-07,0.24516625,-0.26477955,8.73772515,9e-08,0.0,0.0,0.0,9e-08,0.0,0.0,0.0,9e-08
1532985874431084661,4405,1532985874430378670,base_link,0.105665536556,-0.123626481892,-0.732382460696,0.661186220836,1.0,0.0,0.0,0.0,1.0,0.0,0.0,0.0,1.0,0.210452243686,-0.0919703170657,-0.157949328423,1.21846967915e-07,0.0,0.0,0.0,1.21846967915e-07,0.0,0.0,0.0,1.21846967915e-07,0.4707192,0.7649187,10.52253545,9e-08,0.0,0.0,0.0,9e-08,0.0,0.0,0.0,9e-08
1532985874902070215,4406,1532985874901129139,base_link,0.131760759653,-0.182097828972,-0.751391239086,0.62039559051,1.0,0.0,0.0,0.0,1.0,0.0,0.0,0.0,1.0,0.152543455362,-0.134042471647,-0.151818618178,1.21846967915e-07,0.0,0.0,0.0,1.21846967915e-07,0.0,0.0,0.0,1.21846967915e-07,0.32361945,0.65704555,10.787315,9e-08,0.0,0.0,0.0,9e-08,0.0,0.0,0.0,9e-08
1532985875308907706,4407,1532985875308652942,base_link,0.129902766523,-0.210219525392,-0.774030237364,0.58293242665,1.0,0.0,0.0,0.0,1.0,0.0,0.0,0.0,1.0,0.246339976788,-0.118790857494,-0.200896188617,1.21846967915e-07,0.0,0.0,0.0,1.21846967915e-07,0.0,0.0,0.0,1.21846967915e-07,0.51975245,-0.02941995,10.3165958,9e-08,0.0,0.0,0.0,9e-08,0.0,0.0,0.0,9e-08
1532985875668847229,4408,1532985875668560820,base_link,0.133541347399,-0.23260550288,-0.792534827115,0.54767685397,1.0,0.0,0.0,0.0,1.0,0.0,0.0,0.0,1.0,0.00299405166879,-0.139604508877,-0.230023130774,1.21846967915e-07,0.0,0.0,0.0,1.21846967915e-07,0.0,0.0,0.0,1.21846967915e-07,0.32361945,0.7649187,10.0616229,9e-08,0.0,0.0,0.0,9e-08,0.0,0.0,0.0,9e-08
1532985876148888365,4409,1532985876148569862,base_link,0.118291223137,-0.239600764071,-0.832120015898,0.485978332364,1.0,0.0,0.0,0.0,1.0,0.0,0.0,0.0,1.0,-0.0802552774549,-0.140049278736,-0.292328894138,1.21846967915e-07,0.0,0.0,0.0,1.21846967915e-07,0.0,0.0,0.0,1.21846967915e-07,0.91201845,0.53936575,11.8856598,9e-08,0.0,0.0,0.0,9e-08,0.0,0.0,0.0,9e-08
1532985876603115055,4410,1532985876602765226,base_link,0.114281706836,-0.260444713108,-0.865348519299,0.412650194527,1.0,0.0,0.0,0.0,1.0,0.0,0.0,0.0,1.0,0.151166006923,-0.21058422327,-0.277337521315,1.21846967915e-07,0.0,0.0,0.0,1.21846967915e-07,0.0,0.0,0.0,1.21846967915e-07,0.4314926,0.5099458,10.87557485,9e-08,0.0,0.0,0.0,9e-08,0.0,0.0,0.0,9e-08
1532985876908421112,4411,1532985876908023543,base_link,0.104330592672,-0.295057725684,-0.875475204213,0.368238011014,1.0,0.0,0.0,0.0,1.0,0.0,0.0,0.0,1.0,0.13077904284,-0.270908087492,-0.208970651031,1.21846967915e-07,0.0,0.0,0.0,1.21846967915e-07,0.0,0.0,0.0,1.21846967915e-07,0.85317855,0.14709975,12.13082605,9e-08,0.0,0.0,0.0,9e-08,0.0,0.0,0.0,9e-08
1532985877386853515,4412,1532985877386518117,base_link,0.0638474379395,-0.313296897235,-0.898399242976,0.301076998577,1.0,0.0,0.0,0.0,1.0,0.0,0.0,0.0,1.0,-0.0703969448805,-0.231403589249,-0.250254511833,1.21846967915e-07,0.0,0.0,0.0,1.21846967915e-07,0.0,0.0,0.0,1.21846967915e-07,0.8629852,0.8433719,12.87613145,9e-08,0.0,0.0,0.0,9e-08,0.0,0.0,0.0,9e-08
1532985877736345633,4413,1532985877735943744,base_link,0.038239120949,-0.300802746847,-0.920651876496,0.245877203951,1.0,0.0,0.0,0.0,1.0,0.0,0.0,0.0,1.0,-0.191245645285,-0.203932493925,-0.326694786549,1.21846967915e-07,0.0,0.0,0.0,1.21846967915e-07,0.0,0.0,0.0,1.21846967915e-07,0.63743225,0.5295591,13.95486295,9e-08,0.0,0.0,0.0,9e-08,0.0,0.0,0.0,9e-08
1532985878156577510,4414,1532985878155193424,base_link,0.0082607438313,-0.296511876371,-0.939020961343,0.173931312419,1.0,0.0,0.0,0.0,1.0,0.0,0.0,0.0,1.0,-0.0516410879791,-0.234957844019,-0.214890778065,1.21846967915e-07,0.0,0.0,0.0,1.21846967915e-07,0.0,0.0,0.0,1.21846967915e-07,-0.06864655,0.2745862,12.24850585,9e-08,0.0,0.0,0.0,9e-08,0.0,0.0,0.0,9e-08
1532985878654791614,4415,1532985878654299172,base_link,-0.0286459374937,-0.233254474632,-0.96572904967,0.110177869617,1.0,0.0,0.0,0.0,1.0,0.0,0.0,0.0,1.0,-0.404100567102,-0.103060059249,-0.232310608029,1.21846967915e-07,0.0,0.0,0.0,1.21846967915e-07,0.0,0.0,0.0,1.21846967915e-07,-0.1372931,0.53936575,10.71866845,9e-08,0.0,0.0,0.0,9e-08,0.0,0.0,0.0,9e-08
1532985878984144591,4416,1532985878983926720,base_link,-0.0392517020557,-0.157684017354,-0.984574517918,0.0648696633492,1.0,0.0,0.0,0.0,1.0,0.0,0.0,0.0,1.0,-0.46688836813,-0.0416916757822,-0.19361487031,1.21846967915e-07,0.0,0.0,0.0,1.21846967915e-07,0.0,0.0,0.0,1.21846967915e-07,0.0784532,0.20593965,10.09104285,9e-08,0.0,0.0,0.0,9e-08,0.0,0.0,0.0,9e-08
1532985879422226742,4417,1532985879421367767,base_link,-0.0377093529846,-0.071056335693,-0.996369374849,0.0278759882139,1.0,0.0,0.0,0.0,1.0,0.0,0.0,0.0,1.0,-0.325132220984,0.0172794591635,-0.0953919067979,1.21846967915e-07,0.0,0.0,0.0,1.21846967915e-07,0.0,0.0,0.0,1.21846967915e-07,0.2157463,0.0980665,9.4339973,9e-08,0.0,0.0,0.0,9e-08,0.0,0.0,0.0,9e-08
1532985879937787219,4418,1532985879937294424,base_link,-0.0243272754438,-0.00242889556306,-0.999492103949,0.0204406037111,1.0,0.0,0.0,0.0,1.0,0.0,0.0,0.0,1.0,-0.246388107538,0.0769323408604,0.0165373980999,1.21846967915e-07,0.0,0.0,0.0,1.21846967915e-07,0.0,0.0,0.0,1.21846967915e-07,0.7453054,0.0392266,8.5121722,9e-08,0.0,0.0,0.0,9e-08,0.0,0.0,0.0,9e-08
1532985880367120543,4419,1532985880360028368,base_link,-0.00346081795994,0.0377152219428,-0.998957838043,0.0254719960802,1.0,0.0,0.0,0.0,1.0,0.0,0.0,0.0,1.0,-0.143643960357,0.10623010993,0.0621562488377,1.21846967915e-07,0.0,0.0,0.0,1.21846967915e-07,0.0,0.0,0.0,1.21846967915e-07,0.65704555,0.2745862,8.2768126,9e-08,0.0,0.0,0.0,9e-08,0.0,0.0,0.0,9e-08
1532985880711703612,4420,1532985880711311417,base_link,0.0106938533434,0.056537479332,-0.997742750197,0.0346202160582,1.0,0.0,0.0,0.0,1.0,0.0,0.0,0.0,1.0,-0.0807947590947,0.0731938481331,0.0544473230839,1.21846967915e-07,0.0,0.0,0.0,1.21846967915e-07,0.0,0.0,0.0,1.21846967915e-07,0.73549875,0.04903325,8.83579165,9e-08,0.0,0.0,0.0,9e-08,0.0,0.0,0.0,9e-08
1532985881111633344,4421,1532985881111046987,base_link,0.0195389760874,0.0527066806543,-0.997524878083,0.0422415888951,1.0,0.0,0.0,0.0,1.0,0.0,0.0,0.0,1.0,0.0555865764618,0.00689873192459,0.066105902195,1.21846967915e-07,0.0,0.0,0.0,1.21846967915e-07,0.0,0.0,0.0,1.21846967915e-07,0.7649187,-0.1765197,9.12999115,9e-08,0.0,0.0,0.0,9e-08,0.0,0.0,0.0,9e-08
1532985881343163913,4422,1532985881342476668,base_link,0.0201481748605,0.0432159377733,-0.997469374022,0.0527378579488,1.0,0.0,0.0,0.0,1.0,0.0,0.0,0.0,1.0,0.122657351196,0.00250578951091,0.100395172834,1.21846967915e-07,0.0,0.0,0.0,1.21846967915e-07,0.0,0.0,0.0,1.21846967915e-07,0.5295591,0.2745862,9.1201845,9e-08,0.0,0.0,0.0,9e-08,0.0,0.0,0.0,9e-08
1532985881673499080,4423,1532985881672927987,base_link,0.0181034336754,0.0260521605947,-0.997187050952,0.0679082913276,1.0,0.0,0.0,0.0,1.0,0.0,0.0,0.0,1.0,0.135500192642,-0.0108320564032,0.0833312422037,1.21846967915e-07,0.0,0.0,0.0,1.21846967915e-07,0.0,0.0,0.0,1.21846967915e-07,0.53936575,0.5099458,10.13026945,9e-08,0.0,0.0,0.0,9e-08,0.0,0.0,0.0,9e-08
1532985882064826932,4424,1532985882064070827,base_link,0.0167507551316,-0.00300395792662,-0.997092739203,0.0742728609078,1.0,0.0,0.0,0.0,1.0,0.0,0.0,0.0,1.0,0.136473044753,0.00899475626647,-0.000648183515295,1.21846967915e-07,0.0,0.0,0.0,1.21846967915e-07,0.0,0.0,0.0,1.21846967915e-07,0.53936575,0.4511059,9.1397978,9e-08,0.0,0.0,0.0,9e-08,0.0,0.0,0.0,9e-08
1532985882504242420,4425,1532985882504011045,base_link,0.0173725404738,-0.0181695234752,-0.997508922056,0.0659091319405,1.0,0.0,0.0,0.0,1.0,0.0,0.0,0.0,1.0,0.0777476280928,-0.0208391752094,-0.0489922426641,1.21846967915e-07,0.0,0.0,0.0,1.21846967915e-07,0.0,0.0,0.0,1.21846967915e-07,0.46091255,0.32361945,8.91424485,9e-08,0.0,0.0,0.0,9e-08,0.0,0.0,0.0,9e-08
1532985882840262254,4426,1532985882839940262,base_link,0.014831618586,-0.0290042086904,-0.997478494703,0.0630510235701,1.0,0.0,0.0,0.0,1.0,0.0,0.0,0.0,1.0,0.051265437156,-0.014387793839,0.00721546588466,1.21846967915e-07,0.0,0.0,0.0,1.21846967915e-07,0.0,0.0,0.0,1.21846967915e-07,0.6668522,-0.18632635,10.20872265,9e-08,0.0,0.0,0.0,9e-08,0.0,0.0,0.0,9e-08
1532985883238383202,4427,1532985883237858151,base_link,0.00867791269693,-0.027903908347,-0.997470098101,0.064803311061,1.0,0.0,0.0,0.0,1.0,0.0,0.0,0.0,1.0,-0.00837259925902,-0.00873312912881,-0.00472669210285,1.21846967915e-07,0.0,0.0,0.0,1.21846967915e-07,0.0,0.0,0.0,1.21846967915e-07,0.69627215,1.30064861831e-15,10.62060195,9e-08,0.0,0.0,0.0,9e-08,0.0,0.0,0.0,9e-08
1532985883529140168,4428,1532985883528891834,base_link,0.00471311806749,-0.0246891165329,-0.997783734025,0.0616105036339,1.0,0.0,0.0,0.0,1.0,0.0,0.0,0.0,1.0,-0.00619908934459,-0.0451958179474,-0.0446626394987,1.21846967915e-07,0.0,0.0,0.0,1.21846967915e-07,0.0,0.0,0.0,1.21846967915e-07,0.36284605,0.28439285,10.26756255,9e-08,0.0,0.0,0.0,9e-08,0.0,0.0,0.0,9e-08
1532985884002434056,4429,1532985884002054083,base_link,-0.00446265388972,-0.0208565547701,-0.998492017149,0.0505843902147,1.0,0.0,0.0,0.0,1.0,0.0,0.0,0.0,1.0,-0.0312046222389,-0.0585638210177,-0.0476552248001,1.21846967915e-07,0.0,0.0,0.0,1.21846967915e-07,0.0,0.0,0.0,1.21846967915e-07,0.4903325,-0.08825985,10.69905515,9e-08,0.0,0.0,0.0,9e-08,0.0,0.0,0.0,9e-08
1532985884439157242,4430,1532985884438766261,base_link,-0.0170823967305,-0.00608642682236,-0.998786030781,0.0457996926533,1.0,0.0,0.0,0.0,1.0,0.0,0.0,0.0,1.0,-0.0671667903662,-0.0302896536887,-0.0212937723845,1.21846967915e-07,0.0,0.0,0.0,1.21846967915e-07,0.0,0.0,0.0,1.21846967915e-07,0.6472389,0.04903325,10.93441475,9e-08,0.0,0.0,0.0,9e-08,0.0,0.0,0.0,9e-08
1532985884791589536,4431,1532985884790638403,base_link,-0.0244321693541,-0.0102893420892,-0.9987369677,0.0426810014958,1.0,0.0,0.0,0.0,1.0,0.0,0.0,0.0,1.0,0.00526772206649,-0.0332972705364,0.0214894339442,1.21846967915e-07,0.0,0.0,0.0,1.21846967915e-07,0.0,0.0,0.0,1.21846967915e-07,0.7649187,-0.28439285,10.2577559,9e-08,0.0,0.0,0.0,9e-08,0.0,0.0,0.0,9e-08
1532985885227742250,4432,1532985885227465342,base_link,-0.0279792910902,-0.00272153704557,-0.997928732075,0.0578618890599,1.0,0.0,0.0,0.0,1.0,0.0,0.0,0.0,1.0,-0.0302120484412,0.0212137252092,0.0471595302224,1.21846967915e-07,0.0,0.0,0.0,1.21846967915e-07,0.0,0.0,0.0,1.21846967915e-07,0.87279185,0.06864655,10.38524235,9e-08,0.0,0.0,0.0,9e-08,0.0,0.0,0.0,9e-08
1532985885508936329,4433,1532985885508623262,base_link,-0.0253345995444,0.00406086880234,-0.997864978373,0.060059573316,1.0,0.0,0.0,0.0,1.0,0.0,0.0,0.0,1.0,-0.0711196213961,0.0362504422665,-0.0259436033666,1.21846967915e-07,0.0,0.0,0.0,1.21846967915e-07,0.0,0.0,0.0,1.21846967915e-07,0.81395195,0.4903325,9.610517,9e-08,0.0,0.0,0.0,9e-08,0.0,0.0,0.0,9e-08
1532985885946072309,4434,1532985885945741037,base_link,-0.0165249991817,0.0103284073414,-0.998441565426,0.0522942524002,1.0,0.0,0.0,0.0,1.0,0.0,0.0,0.0,1.0,0.0540882535279,0.0528148896992,0.00913747772574,1.21846967915e-07,0.0,0.0,0.0,1.21846967915e-07,0.0,0.0,0.0,1.21846967915e-07,0.75511205,-0.0392266,9.0613446,9e-08,0.0,0.0,0.0,9e-08,0.0,0.0,0.0,9e-08
1532985886398895107,4435,1532985886398475775,base_link,-0.00736549012293,-0.0203178459848,-0.99834917813,0.0532151596524,1.0,0.0,0.0,0.0,1.0,0.0,0.0,0.0,1.0,0.0615328997374,0.028395107016,0.00493648974225,1.21846967915e-07,0.0,0.0,0.0,1.21846967915e-07,0.0,0.0,0.0,1.21846967915e-07,0.97085835,-0.12748645,8.7083052,9e-08,0.0,0.0,0.0,9e-08,0.0,0.0,0.0,9e-08
1532985886831712876,4436,1532985886827752029,base_link,0.00104780814234,-0.0289144779401,-0.998204308162,0.0524501118289,1.0,0.0,0.0,0.0,1.0,0.0,0.0,0.0,1.0,-0.0193702336401,0.0487481206656,-0.0122574083507,1.21846967915e-07,0.0,0.0,0.0,1.21846967915e-07,0.0,0.0,0.0,1.21846967915e-07,0.7060788,0.6276256,8.30623255,9e-08,0.0,0.0,0.0,9e-08,0.0,0.0,0.0,9e-08
1532985887226290633,4437,1532985887225944032,base_link,0.00429334340481,-0.0205670856029,-0.998925625672,0.0413056481448,1.0,0.0,0.0,0.0,1.0,0.0,0.0,0.0,1.0,0.0594138279557,0.00930067896843,-0.0749194324017,1.21846967915e-07,0.0,0.0,0.0,1.21846967915e-07,0.0,0.0,0.0,1.21846967915e-07,0.67665885,0.4118793,9.56148375,9e-08,0.0,0.0,0.0,9e-08,0.0,0.0,0.0,9e-08
1532985887566094709,4438,1532985887565704239,base_link,0.00109760753877,-0.0302325329554,-0.99886903206,0.0366803216993,1.0,0.0,0.0,0.0,1.0,0.0,0.0,0.0,1.0,-0.00334839755669,-0.0586191862822,0.00105208624154,1.21846967915e-07,0.0,0.0,0.0,1.21846967915e-07,0.0,0.0,0.0,1.21846967915e-07,0.8041453,0.26477955,9.30651085,9e-08,0.0,0.0,0.0,9e-08,0.0,0.0,0.0,9e-08
1532985887908012689,4439,1532985887907465142,base_link,-0.00822129479286,-0.0302870828293,-0.998870960464,0.0356638089236,1.0,0.0,0.0,0.0,1.0,0.0,0.0,0.0,1.0,-0.0720511451364,-0.0650064200163,-0.00900813937187,1.21846967915e-07,0.0,0.0,0.0,1.21846967915e-07,0.0,0.0,0.0,1.21846967915e-07,0.71588545,-0.0588399,11.2580342,9e-08,0.0,0.0,0.0,9e-08,0.0,0.0,0.0,9e-08
1532985888333365159,4440,1532985888333102681,base_link,-0.0207242337889,-0.0167209711806,-0.999244127261,0.028321182714,1.0,0.0,0.0,0.0,1.0,0.0,0.0,0.0,1.0,-0.075077213347,-0.0453951656818,-0.0216094665229,1.21846967915e-07,0.0,0.0,0.0,1.21846967915e-07,0.0,0.0,0.0,1.21846967915e-07,0.6472389,-0.08825985,10.4538889,9e-08,0.0,0.0,0.0,9e-08,0.0,0.0,0.0,9e-08
1532985888704758430,4441,1532985888704343225,base_link,-0.0336649303292,-0.00603960873838,-0.999001241793,0.028752643148,1.0,0.0,0.0,0.0,1.0,0.0,0.0,0.0,1.0,-0.0269302967936,-0.0768483579159,0.0228663422167,1.21846967915e-07,0.0,0.0,0.0,1.21846967915e-07,0.0,0.0,0.0,1.21846967915e-07,0.65704555,0.0784532,10.8461549,9e-08,0.0,0.0,0.0,9e-08,0.0,0.0,0.0,9e-08
1532985889143580771,4442,1532985889143321748,base_link,-0.0428214632586,-0.00983795819695,-0.998426781473,0.0348353111177,1.0,0.0,0.0,0.0,1.0,0.0,0.0,0.0,1.0,-0.027213530615,-0.0435150265694,0.0150491520762,1.21846967915e-07,0.0,0.0,0.0,1.21846967915e-07,0.0,0.0,0.0,1.21846967915e-07,0.42168595,0.38245935,10.1596894,9e-08,0.0,0.0,0.0,9e-08,0.0,0.0,0.0,9e-08
1532985889444020196,4443,1532985889441198718,base_link,-0.0441466356767,-0.00621403883249,-0.998251759451,0.0388057345462,1.0,0.0,0.0,0.0,1.0,0.0,0.0,0.0,1.0,0.0134255588055,0.00714733824134,0.0291999801993,1.21846967915e-07,0.0,0.0,0.0,1.21846967915e-07,0.0,0.0,0.0,1.21846967915e-07,0.4118793,0.0980665,9.95374975,9e-08,0.0,0.0,0.0,9e-08,0.0,0.0,0.0,9e-08
1532985889969850129,4444,1532985889969510727,base_link,-0.0395487793583,-0.00657837522029,-0.998309010972,0.0420920140112,1.0,0.0,0.0,0.0,1.0,0.0,0.0,0.0,1.0,0.041003242135,0.0738342180848,-0.0595823824406,1.21846967915e-07,0.0,0.0,0.0,1.21846967915e-07,0.0,0.0,0.0,1.21846967915e-07,0.85317855,0.32361945,9.5712904,9e-08,0.0,0.0,0.0,9e-08,0.0,0.0,0.0,9e-08
1532985890261525084,4445,1532985890259712850,base_link,-0.0295219675282,-0.0109836946745,-0.998959696472,0.0329747889858,1.0,0.0,0.0,0.0,1.0,0.0,0.0,0.0,1.0,-0.0173401534557,0.102383822203,-0.0760181844234,1.21846967915e-07,0.0,0.0,0.0,1.21846967915e-07,0.0,0.0,0.0,1.21846967915e-07,0.4707192,0.5491724,7.71783355,9e-08,0.0,0.0,0.0,9e-08,0.0,0.0,0.0,9e-08
1532985890597061042,4446,1532985890596636430,base_link,-0.0224926183642,-0.0128183945557,-0.999297266826,0.0271061504817,1.0,0.0,0.0,0.0,1.0,0.0,0.0,0.0,1.0,0.130660384893,-0.00820939615369,0.0537965707481,1.21846967915e-07,0.0,0.0,0.0,1.21846967915e-07,0.0,0.0,0.0,1.21846967915e-07,0.9022118,-0.44129925,10.7480884,9e-08,0.0,0.0,0.0,9e-08,0.0,0.0,0.0,9e-08
1532985891105895461,4447,1532985891105536188,base_link,-0.0311674733589,0.00219252426692,-0.998094973418,0.0531996755565,1.0,0.0,0.0,0.0,1.0,0.0,0.0,0.0,1.0,-0.117145426571,-0.0328696966171,0.0694244131446,1.21846967915e-07,0.0,0.0,0.0,1.21846967915e-07,0.0,0.0,0.0,1.21846967915e-07,0.5099458,0.5295591,12.4544455,9e-08,0.0,0.0,0.0,9e-08,0.0,0.0,0.0,9e-08
1532985891497154555,4448,1532985891494925995,base_link,-0.0275189774546,0.0205658209081,-0.997528298237,0.0612947559425,1.0,0.0,0.0,0.0,1.0,0.0,0.0,0.0,1.0,0.0073890350759,0.0422030836344,-0.0465300418437,1.21846967915e-07,0.0,0.0,0.0,1.21846967915e-07,0.0,0.0,0.0,1.21846967915e-07,0.1176798,0.6080123,9.218251,9e-08,0.0,0.0,0.0,9e-08,0.0,0.0,0.0,9e-08
1532985891843642328,4449,1532985891843027327,base_link,-0.0202297047496,-0.0371009347356,-0.998410505486,0.0372926564166,1.0,0.0,0.0,0.0,1.0,0.0,0.0,0.0,1.0,0.28254455328,0.0279767159373,-0.211392104626,1.21846967915e-07,0.0,0.0,0.0,1.21846967915e-07,0.0,0.0,0.0,1.21846967915e-07,0.48052585,0.3138128,9.54187045,9e-08,0.0,0.0,0.0,9e-08,0.0,0.0,0.0,9e-08
1532985892375821782,4450,1532985892375592229,base_link,0.000535126157423,-0.0524765108413,-0.998522693414,0.0140840401648,1.0,0.0,0.0,0.0,1.0,0.0,0.0,0.0,1.0,0.0407328940928,0.0949401780963,0.0604384839535,1.21846967915e-07,0.0,0.0,0.0,1.21846967915e-07,0.0,0.0,0.0,1.21846967915e-07,0.5687857,-0.10787315,5.48191735,9e-08,0.0,0.0,0.0,9e-08,0.0,0.0,0.0,9e-08
1532985892689239865,4451,1532985892687803509,base_link,0.010445087942,-0.0498019450792,-0.998440604003,0.0229570617296,1.0,0.0,0.0,0.0,1.0,0.0,0.0,0.0,1.0,0.0370025932789,0.0488993376493,0.0326455906034,1.21846967915e-07,0.0,0.0,0.0,1.21846967915e-07,0.0,0.0,0.0,1.21846967915e-07,1.02969825,0.08825985,8.65927195,9e-08,0.0,0.0,0.0,9e-08,0.0,0.0,0.0,9e-08
1532985893117189644,4452,1532985893115511061,base_link,0.0163377359528,-0.0277397420634,-0.999193944189,0.0239801374198,1.0,0.0,0.0,0.0,1.0,0.0,0.0,0.0,1.0,0.110001780093,0.0035014403984,0.00607305951416,1.21846967915e-07,0.0,0.0,0.0,1.21846967915e-07,0.0,0.0,0.0,1.21846967915e-07,0.6668522,0.1372931,9.28689755,9e-08,0.0,0.0,0.0,9e-08,0.0,0.0,0.0,9e-08
1532985893529047456,4453,1532985893527633880,base_link,0.0110658154654,-0.0381314083742,-0.9989257651,0.0238926608504,1.0,0.0,0.0,0.0,1.0,0.0,0.0,0.0,1.0,-0.199964687228,-0.0421505309641,-0.0234981384128,1.21846967915e-07,0.0,0.0,0.0,1.21846967915e-07,0.0,0.0,0.0,1.21846967915e-07,0.6472389,0.48052585,11.81701325,9e-08,0.0,0.0,0.0,9e-08,0.0,0.0,0.0,9e-08
1532985893985098559,4454,1532985893984828208,base_link,-0.00327440324918,-0.0182181607912,-0.999612693239,0.0207807703261,1.0,0.0,0.0,0.0,1.0,0.0,0.0,0.0,1.0,-0.00366517505608,-0.0539772957563,-0.0282874759287,1.21846967915e-07,0.0,0.0,0.0,1.21846967915e-07,0.0,0.0,0.0,1.21846967915e-07,0.12748645,0.20593965,11.32668075,9e-08,0.0,0.0,0.0,9e-08,0.0,0.0,0.0,9e-08
1532985894436130768,4455,1532985894435322114,base_link,-0.0144062376956,-0.00793856241563,-0.999733122232,0.0162210928986,1.0,0.0,0.0,0.0,1.0,0.0,0.0,0.0,1.0,-0.105218395591,-0.0348454676569,-0.0124836917967,1.21846967915e-07,0.0,0.0,0.0,1.21846967915e-07,0.0,0.0,0.0,1.21846967915e-07,-0.06864655,0.26477955,10.9246081,9e-08,0.0,0.0,0.0,9e-08,0.0,0.0,0.0,9e-08
1532985894787050050,4456,1532985894786824336,base_link,-0.0217693562693,-0.0129579540709,-0.999569575982,0.0147935568493,1.0,0.0,0.0,0.0,1.0,0.0,0.0,0.0,1.0,-0.0378158390522,-0.0221689324826,0.0111363083124,1.21846967915e-07,0.0,0.0,0.0,1.21846967915e-07,0.0,0.0,0.0,1.21846967915e-07,0.34323275,-0.06864655,10.5519554,9e-08,0.0,0.0,0.0,9e-08,0.0,0.0,0.0,9e-08
1532985895207813507,4457,1532985895207315490,base_link,-0.0215014721678,-0.01696693655,-0.999448182969,0.0187920014691,1.0,0.0,0.0,0.0,1.0,0.0,0.0,0.0,1.0,0.0709896609187,0.0307133141905,0.00116061978042,1.21846967915e-07,0.0,0.0,0.0,1.21846967915e-07,0.0,0.0,0.0,1.21846967915e-07,0.3530394,1.17334598346e-15,9.58109705,9e-08,0.0,0.0,0.0,9e-08,0.0,0.0,0.0,9e-08
1532985895588119457,4458,1532985895587594465,base_link,-0.019598204046,-0.0214311832216,-0.999482134566,0.0138592015735,1.0,0.0,0.0,0.0,1.0,0.0,0.0,0.0,1.0,-0.266507744789,0.00754861719906,-0.034562189132,1.21846967915e-07,0.0,0.0,0.0,1.21846967915e-07,0.0,0.0,0.0,1.21846967915e-07,0.8041453,0.06864655,10.6500219,9e-08,0.0,0.0,0.0,9e-08,0.0,0.0,0.0,9e-08
1532985895910050152,4459,1532985895909416559,base_link,-0.0184936923373,-0.0450832123757,-0.998772707383,0.00886376282825,1.0,0.0,0.0,0.0,1.0,0.0,0.0,0.0,1.0,0.465235888958,0.0117551255971,-0.0335769914091,1.21846967915e-07,0.0,0.0,0.0,1.21846967915e-07,0.0,0.0,0.0,1.21846967915e-07,0.46091255,0.20593965,10.62060195,9e-08,0.0,0.0,0.0,9e-08,0.0,0.0,0.0,9e-08
1532985896435404227,4460,1532985896434602355,base_link,-0.001784335377,-0.167292657627,-0.985898260117,0.00382145907287,1.0,0.0,0.0,0.0,1.0,0.0,0.0,0.0,1.0,0.441120415926,0.121004067361,-0.186746418476,1.21846967915e-07,0.0,0.0,0.0,1.21846967915e-07,0.0,0.0,0.0,1.21846967915e-07,0.08825985,0.7256921,5.295591,9e-08,0.0,0.0,0.0,9e-08,0.0,0.0,0.0,9e-08
1532985896792689867,4461,1532985896792468665,base_link,0.00758617145978,-0.249083459701,-0.967855598752,-0.0339914705581,1.0,0.0,0.0,0.0,1.0,0.0,0.0,0.0,1.0,0.399576961994,-0.0657496824861,-0.150171265006,1.21846967915e-07,0.0,0.0,0.0,1.21846967915e-07,0.0,0.0,0.0,1.21846967915e-07,0.7453054,-0.0980665,7.87473995,9e-08,0.0,0.0,0.0,9e-08,0.0,0.0,0.0,9e-08
1532985897131954269,4462,1532985897131498872,base_link,-0.00368884899157,-0.296615995593,-0.952696548279,-0.0661409891779,1.0,0.0,0.0,0.0,1.0,0.0,0.0,0.0,1.0,0.147177502513,-0.132314413786,-0.200740069151,1.21846967915e-07,0.0,0.0,0.0,1.21846967915e-07,0.0,0.0,0.0,1.21846967915e-07,0.93163175,0.5099458,10.002783,9e-08,0.0,0.0,0.0,9e-08,0.0,0.0,0.0,9e-08
1532985897600174432,4463,1532985897599134237,base_link,-0.0284199826478,-0.323332084623,-0.934713598753,-0.144772773497,1.0,0.0,0.0,0.0,1.0,0.0,0.0,0.0,1.0,0.105236105621,-0.249055325985,-0.334843963385,1.21846967915e-07,0.0,0.0,0.0,1.21846967915e-07,0.0,0.0,0.0,1.21846967915e-07,1.06892485,0.57859235,11.6110736,9e-08,0.0,0.0,0.0,9e-08,0.0,0.0,0.0,9e-08
1532985898039412760,4464,1532985898039068652,base_link,-0.059171178113,-0.317698133261,-0.916068401439,-0.237455999478,1.0,0.0,0.0,0.0,1.0,0.0,0.0,0.0,1.0,-0.00435545248911,-0.311274141073,-0.338306695223,1.21846967915e-07,0.0,0.0,0.0,1.21846967915e-07,0.0,0.0,0.0,1.21846967915e-07,0.4314926,1.1179581,13.22917085,9e-08,0.0,0.0,0.0,9e-08,0.0,0.0,0.0,9e-08
1532985898354746990,4465,1532985898354408066,base_link,-0.0883186425219,-0.320837988794,-0.892964743049,-0.303111811054,1.0,0.0,0.0,0.0,1.0,0.0,0.0,0.0,1.0,0.0703395903111,-0.340197384357,-0.380340278149,1.21846967915e-07,0.0,0.0,0.0,1.21846967915e-07,0.0,0.0,0.0,1.21846967915e-07,0.24516625,0.32361945,14.6119085,9e-08,0.0,0.0,0.0,9e-08,0.0,0.0,0.0,9e-08
1532985898757674946,4466,1532985898756635742,base_link,-0.137407997734,-0.302008760263,-0.86885331368,-0.36742845588,1.0,0.0,0.0,0.0,1.0,0.0,0.0,0.0,1.0,0.0713903531432,-0.341244667768,-0.223482102156,1.21846967915e-07,0.0,0.0,0.0,1.21846967915e-07,0.0,0.0,0.0,1.21846967915e-07,0.30400615,0.7649187,13.66066345,9e-08,0.0,0.0,0.0,9e-08,0.0,0.0,0.0,9e-08
1532985899124783849,4467,1532985899124499577,base_link,-0.172222460608,-0.296718423416,-0.835083987202,-0.430037597876,1.0,0.0,0.0,0.0,1.0,0.0,0.0,0.0,1.0,0.136450007558,-0.320567637682,-0.356428414583,1.21846967915e-07,0.0,0.0,0.0,1.21846967915e-07,0.0,0.0,0.0,1.21846967915e-07,0.392266,0.59820565,13.91563635,9e-08,0.0,0.0,0.0,9e-08,0.0,0.0,0.0,9e-08
1532985899472292262,4468,1532985899471542322,base_link,-0.218253188897,-0.310195766208,-0.785861902553,-0.488431369056,1.0,0.0,0.0,0.0,1.0,0.0,0.0,0.0,1.0,0.231570616364,-0.350521057844,-0.317096531391,1.21846967915e-07,0.0,0.0,0.0,1.21846967915e-07,0.0,0.0,0.0,1.21846967915e-07,0.42168595,0.6080123,12.748645,9e-08,0.0,0.0,0.0,9e-08,0.0,0.0,0.0,9e-08
1532985899835820072,4469,1532985899835396641,base_link,-0.250505154363,-0.288485287899,-0.747573965023,-0.543283142682,1.0,0.0,0.0,0.0,1.0,0.0,0.0,0.0,1.0,-0.13193154335,-0.300979822874,-0.237511277199,1.21846967915e-07,0.0,0.0,0.0,1.21846967915e-07,0.0,0.0,0.0,1.21846967915e-07,1.04931155,0.0980665,11.1991943,9e-08,0.0,0.0,0.0,9e-08,0.0,0.0,0.0,9e-08
1532985900161661321,4470,1532985900161185348,base_link,-0.270377875746,-0.256538506701,-0.721183641996,-0.583933175461,1.0,0.0,0.0,0.0,1.0,0.0,0.0,0.0,1.0,-0.214794099331,-0.322546809912,-0.228953450918,1.21846967915e-07,0.0,0.0,0.0,1.21846967915e-07,0.0,0.0,0.0,1.21846967915e-07,1.4121576,0.89240515,13.1016844,9e-08,0.0,0.0,0.0,9e-08,0.0,0.0,0.0,9e-08
1532985900592641179,4471,1532985900592292367,base_link,-0.259037390991,-0.216195622472,-0.668310449934,-0.662963215723,1.0,0.0,0.0,0.0,1.0,0.0,0.0,0.0,1.0,-0.303117513657,-0.212227016687,-0.407784253359,1.21846967915e-07,0.0,0.0,0.0,1.21846967915e-07,0.0,0.0,0.0,1.21846967915e-07,0.48052585,0.71588545,11.4541672,9e-08,0.0,0.0,0.0,9e-08,0.0,0.0,0.0,9e-08
1532985900881396640,4472,1532985900881095697,base_link,-0.244464731334,-0.171009601127,-0.635625709088,-0.712020132723,1.0,0.0,0.0,0.0,1.0,0.0,0.0,0.0,1.0,-0.48520770669,-0.308991849422,-0.167379826307,1.21846967915e-07,0.0,0.0,0.0,1.21846967915e-07,0.0,0.0,0.0,1.21846967915e-07,0.6080123,-0.3530394,12.75845165,9e-08,0.0,0.0,0.0,9e-08,0.0,0.0,0.0,9e-08
1532985901344150972,4473,1532985901343815247,base_link,-0.184458990455,-0.0744805639754,-0.619266709456,-0.759563209345,1.0,0.0,0.0,0.0,1.0,0.0,0.0,0.0,1.0,-0.74434953928,-0.0348655246198,-0.163232162595,1.21846967915e-07,0.0,0.0,0.0,1.21846967915e-07,0.0,0.0,0.0,1.21846967915e-07,0.3726527,0.73549875,12.356379,9e-08,0.0,0.0,0.0,9e-08,0.0,0.0,0.0,9e-08
1532985901695499292,4474,1532985901695136241,base_link,-0.116899921613,-0.0295298218069,-0.596653500624,-0.793389562664,1.0,0.0,0.0,0.0,1.0,0.0,0.0,0.0,1.0,-0.270809412003,0.019525308162,-0.161218956113,1.21846967915e-07,0.0,0.0,0.0,1.21846967915e-07,0.0,0.0,0.0,1.21846967915e-07,0.3334261,0.0588399,10.1204628,9e-08,0.0,0.0,0.0,9e-08,0.0,0.0,0.0,9e-08
1532985902169257178,4475,1532985902168835314,base_link,-0.0471984654336,0.00217280227544,-0.585100298599,-0.809583364682,1.0,0.0,0.0,0.0,1.0,0.0,0.0,0.0,1.0,-0.168162062764,0.0862913578749,-0.0681787803769,1.21846967915e-07,0.0,0.0,0.0,1.21846967915e-07,0.0,0.0,0.0,1.21846967915e-07,0.32361945,0.3138128,7.16866115,9e-08,0.0,0.0,0.0,9e-08,0.0,0.0,0.0,9e-08
1532985902639169221,4476,1532985902631179710,base_link,0.0221928920716,0.0214357599844,-0.572577048841,-0.819270106177,1.0,0.0,0.0,0.0,1.0,0.0,0.0,0.0,1.0,-0.233515888453,0.146739289165,-0.0212021805346,1.21846967915e-07,0.0,0.0,0.0,1.21846967915e-07,0.0,0.0,0.0,1.21846967915e-07,0.2941995,0.0980665,7.32556755,9e-08,0.0,0.0,0.0,9e-08,0.0,0.0,0.0,9e-08
1532985902906957990,4477,1532985902906236910,base_link,0.0522060505953,0.0224009468446,-0.573350127231,-0.817338581902,1.0,0.0,0.0,0.0,1.0,0.0,0.0,0.0,1.0,-0.193296909332,0.0742920935154,0.0444291979074,1.21846967915e-07,0.0,0.0,0.0,1.21846967915e-07,0.0,0.0,0.0,1.21846967915e-07,0.44129925,-0.28439285,7.38440745,9e-08,0.0,0.0,0.0,9e-08,0.0,0.0,0.0,9e-08
1532985903333139145,4478,1532985903332821210,base_link,0.0983171136291,0.0389590940342,-0.60062816285,-0.792503466334,1.0,0.0,0.0,0.0,1.0,0.0,0.0,0.0,1.0,-0.199832037091,0.00582543201745,0.264716506004,1.21846967915e-07,0.0,0.0,0.0,1.21846967915e-07,0.0,0.0,0.0,1.21846967915e-07,0.8237586,-0.4903325,11.2776475,9e-08,0.0,0.0,0.0,9e-08,0.0,0.0,0.0,9e-08
1532985903848917007,4479,1532985903848325103,base_link,0.105741391308,0.0486514387267,-0.638607111197,-0.760679139455,1.0,0.0,0.0,0.0,1.0,0.0,0.0,0.0,1.0,0.0195595677942,-0.0738891363144,0.0709543377161,1.21846967915e-07,0.0,0.0,0.0,1.21846967915e-07,0.0,0.0,0.0,1.21846967915e-07,0.48052585,0.1569064,10.4735022,9e-08,0.0,0.0,0.0,9e-08,0.0,0.0,0.0,9e-08
1532985904412044107,4480,1532985904411803096,base_link,0.067465782247,0.0358632549713,-0.648061933257,-0.757745290867,1.0,0.0,0.0,0.0,1.0,0.0,0.0,0.0,1.0,0.357862144709,-0.0743000656366,0.0489355064929,1.21846967915e-07,0.0,0.0,0.0,1.21846967915e-07,0.0,0.0,0.0,1.21846967915e-07,-0.42168595,-0.16671305,11.3561007,9e-08,0.0,0.0,0.0,9e-08,0.0,0.0,0.0,9e-08
1532985904813568057,4481,1532985904813237834,base_link,0.0191408505141,0.0105307827654,-0.672048327834,-0.740184960339,1.0,0.0,0.0,0.0,1.0,0.0,0.0,0.0,1.0,0.14926353097,-0.0452341139317,0.158454716206,1.21846967915e-07,0.0,0.0,0.0,1.21846967915e-07,0.0,0.0,0.0,1.21846967915e-07,-0.5295591,0.44129925,11.179581,9e-08,0.0,0.0,0.0,9e-08,0.0,0.0,0.0,9e-08
1532985905176808532,4482,1532985905176444487,base_link,0.020783819369,0.0187535413056,-0.681925400177,-0.730885822912,1.0,0.0,0.0,0.0,1.0,0.0,0.0,0.0,1.0,-0.0446812473238,0.0515499189496,-0.0332394577563,1.21846967915e-07,0.0,0.0,0.0,1.21846967915e-07,0.0,0.0,0.0,1.21846967915e-07,-0.4118793,0.63743225,11.179581,9e-08,0.0,0.0,0.0,9e-08,0.0,0.0,0.0,9e-08
1532985905439032539,4483,1532985905438626704,base_link,0.0178865203531,0.00837861456788,-0.670554476315,-0.741597306833,1.0,0.0,0.0,0.0,1.0,0.0,0.0,0.0,1.0,0.248505041003,0.0395999662578,-0.192316815257,1.21846967915e-07,0.0,0.0,0.0,1.21846967915e-07,0.0,0.0,0.0,1.21846967915e-07,-0.77472535,0.2745862,9.2967042,9e-08,0.0,0.0,0.0,9e-08,0.0,0.0,0.0,9e-08
1532985905945310249,4484,1532985905944910654,base_link,0.00954667034191,-0.0160997949541,-0.658018326687,-0.752769247135,1.0,0.0,0.0,0.0,1.0,0.0,0.0,0.0,1.0,-0.0175227802247,0.111708983779,0.0129221975803,1.21846967915e-07,0.0,0.0,0.0,1.21846967915e-07,0.0,0.0,0.0,1.21846967915e-07,-0.7453054,-0.10787315,7.6099604,9e-08,0.0,0.0,0.0,9e-08,0.0,0.0,0.0,9e-08
1532985906431993172,4485,1532985906431538923,base_link,-0.00153997029197,-0.0576628321678,-0.657102495799,-0.751590936809,1.0,0.0,0.0,0.0,1.0,0.0,0.0,0.0,1.0,-0.0240631513298,0.130851045251,-0.0381532460451,1.21846967915e-07,0.0,0.0,0.0,1.21846967915e-07,0.0,0.0,0.0,1.21846967915e-07,-0.34323275,0.3726527,7.5903471,9e-08,0.0,0.0,0.0,9e-08,0.0,0.0,0.0,9e-08
1532985906799667035,4486,1532985906798717580,base_link,0.00798674857119,-0.0691120106632,-0.649648094173,-0.75704497592,1.0,0.0,0.0,0.0,1.0,0.0,0.0,0.0,1.0,0.038348864764,0.0716083943844,-0.10432382673,1.21846967915e-07,0.0,0.0,0.0,1.21846967915e-07,0.0,0.0,0.0,1.21846967915e-07,-0.196133,0.46091255,7.85512665,9e-08,0.0,0.0,0.0,9e-08,0.0,0.0,0.0,9e-08
1532985907210253196,4487,1532985907209972218,base_link,0.0122125695061,-0.0781082316493,-0.634349279033,-0.768993465177,1.0,0.0,0.0,0.0,1.0,0.0,0.0,0.0,1.0,0.0268616937101,0.0119841918349,-0.07012142241,1.21846967915e-07,0.0,0.0,0.0,1.21846967915e-07,0.0,0.0,0.0,1.21846967915e-07,0.0,0.02941995,8.3552658,9e-08,0.0,0.0,0.0,9e-08,0.0,0.0,0.0,9e-08
1532985907567813431,4488,1532985907566925125,base_link,-0.0165442767526,-0.0953897917816,-0.628474746816,-0.771781424462,1.0,0.0,0.0,0.0,1.0,0.0,0.0,0.0,1.0,0.161022737622,-0.0384694188833,0.0594090186059,1.21846967915e-07,0.0,0.0,0.0,1.21846967915e-07,0.0,0.0,0.0,1.21846967915e-07,0.08825985,1.28383506276e-15,10.48330885,9e-08,0.0,0.0,0.0,9e-08,0.0,0.0,0.0,9e-08
1532985907997364378,4489,1532985907996692380,base_link,-0.0283609959078,-0.0879162645756,-0.634422998065,-0.767446313341,1.0,0.0,0.0,0.0,1.0,0.0,0.0,0.0,1.0,-0.272941231728,-0.0160916913301,-0.0880690515041,1.21846967915e-07,0.0,0.0,0.0,1.21846967915e-07,0.0,0.0,0.0,1.21846967915e-07,-0.02941995,1.18660465,11.0030613,9e-08,0.0,0.0,0.0,9e-08,0.0,0.0,0.0,9e-08
1532985908336810280,4490,1532985908336491512,base_link,-0.0267667543877,-0.0900711491213,-0.603538800106,-0.79177752287,1.0,0.0,0.0,0.0,1.0,0.0,0.0,0.0,1.0,0.355853766203,-0.0601964853704,-0.280349880457,1.21846967915e-07,0.0,0.0,0.0,1.21846967915e-07,0.0,0.0,0.0,1.21846967915e-07,-0.26477955,0.04903325,9.40457735,9e-08,0.0,0.0,0.0,9e-08,0.0,0.0,0.0,9e-08
1532985908604112435,4491,1532985908603843297,base_link,-0.0729880977139,-0.116035807392,-0.579280507917,-0.803518837454,1.0,0.0,0.0,0.0,1.0,0.0,0.0,0.0,1.0,0.600269317627,-0.0937127843499,-0.109861217439,1.21846967915e-07,0.0,0.0,0.0,1.21846967915e-07,0.0,0.0,0.0,1.21846967915e-07,-0.1765197,1.21297793582e-15,9.9047165,9e-08,0.0,0.0,0.0,9e-08,0.0,0.0,0.0,9e-08
1532985908847418010,4492,1532985908846878773,base_link,-0.137379082667,-0.141617093701,-0.562928687983,-0.802610041466,1.0,0.0,0.0,0.0,1.0,0.0,0.0,0.0,1.0,0.315181642771,-0.142456993461,-0.0232019424438,1.21846967915e-07,0.0,0.0,0.0,1.21846967915e-07,0.0,0.0,0.0,1.21846967915e-07,0.30400615,0.2941995,13.64105015,9e-08,0.0,0.0,0.0,9e-08,0.0,0.0,0.0,9e-08
1532985909205182059,4493,1532985909204930967,base_link,-0.167473021897,-0.143869307971,-0.539435025587,-0.812566466408,1.0,0.0,0.0,0.0,1.0,0.0,0.0,0.0,1.0,0.233323946595,-0.116494067013,-0.267009675503,1.21846967915e-07,0.0,0.0,0.0,1.21846967915e-07,0.0,0.0,0.0,1.21846967915e-07,-0.0196133,0.63743225,10.2969825,9e-08,0.0,0.0,0.0,9e-08,0.0,0.0,0.0,9e-08
1532985909604160082,4494,1532985909599085582,base_link,-0.233370260212,-0.165224254079,-0.476837805969,-0.831182876575,1.0,0.0,0.0,0.0,1.0,0.0,0.0,0.0,1.0,0.296549379826,-0.216729477048,-0.304002523422,1.21846967915e-07,0.0,0.0,0.0,1.21846967915e-07,0.0,0.0,0.0,1.21846967915e-07,-0.28439285,0.4707192,11.22861425,9e-08,0.0,0.0,0.0,9e-08,0.0,0.0,0.0,9e-08
1532985910062284043,4495,1532985910061542319,base_link,-0.284739803013,-0.139992109662,-0.404148697173,-0.857898178332,1.0,0.0,0.0,0.0,1.0,0.0,0.0,0.0,1.0,-0.0961207523942,-0.268429160118,-0.223305150867,1.21846967915e-07,0.0,0.0,0.0,1.21846967915e-07,0.0,0.0,0.0,1.21846967915e-07,0.0196133,0.55897905,12.64077185,9e-08,0.0,0.0,0.0,9e-08,0.0,0.0,0.0,9e-08
1532985910544114506,4496,1532985910543752219,base_link,-0.329704330715,-0.102288316912,-0.335584899089,-0.876478710543,1.0,0.0,0.0,0.0,1.0,0.0,0.0,0.0,1.0,0.195532098413,-0.290562093258,-0.24959744513,1.21846967915e-07,0.0,0.0,0.0,1.21846967915e-07,0.0,0.0,0.0,1.21846967915e-07,0.1176798,0.4511059,13.0428445,9e-08,0.0,0.0,0.0,9e-08,0.0,0.0,0.0,9e-08
1532985911004420839,4497,1532985911003524690,base_link,-0.368701230244,-0.0712840022132,-0.259392483505,-0.889771618645,1.0,0.0,0.0,0.0,1.0,0.0,0.0,0.0,1.0,-0.0490334369242,-0.268789798021,-0.294756144285,1.21846967915e-07,0.0,0.0,0.0,1.21846967915e-07,0.0,0.0,0.0,1.21846967915e-07,0.7256921,1.0395049,11.2776475,9e-08,0.0,0.0,0.0,9e-08,0.0,0.0,0.0,9e-08
1532985911306053631,4498,1532985911304488555,base_link,-0.359658813302,-0.058126320072,-0.198149947727,-0.909946958424,1.0,0.0,0.0,0.0,1.0,0.0,0.0,0.0,1.0,-0.19870083034,-0.18179872632,-0.419397801161,1.21846967915e-07,0.0,0.0,0.0,1.21846967915e-07,0.0,0.0,0.0,1.21846967915e-07,0.784532,1.08853815,10.38524235,9e-08,0.0,0.0,0.0,9e-08,0.0,0.0,0.0,9e-08
1532985911770461490,4499,1532985911767837425,base_link,-0.325503991447,-0.0293465467604,-0.100301677441,-0.939747575282,1.0,0.0,0.0,0.0,1.0,0.0,0.0,0.0,1.0,-0.203077271581,-0.294645100832,-0.312413722277,1.21846967915e-07,0.0,0.0,0.0,1.21846967915e-07,0.0,0.0,0.0,1.21846967915e-07,1.4317709,0.65704555,12.73883835,9e-08,0.0,0.0,0.0,9e-08,0.0,0.0,0.0,9e-08
1532985912224575420,4500,1532985912221401202,base_link,-0.279317005549,0.0175107908583,-0.0128854005214,-0.959952784812,1.0,0.0,0.0,0.0,1.0,0.0,0.0,0.0,1.0,-0.264922559261,-0.268426477909,-0.278634935617,1.21846967915e-07,0.0,0.0,0.0,1.21846967915e-07,0.0,0.0,0.0,1.21846967915e-07,0.67665885,0.87279185,13.4743371,9e-08,0.0,0.0,0.0,9e-08,0.0,0.0,0.0,9e-08
1532985912650160732,4501,1532985912649584888,base_link,-0.200601714729,0.0500946778426,0.060980100788,-0.976489069374,1.0,0.0,0.0,0.0,1.0,0.0,0.0,0.0,1.0,-0.3354421556,-0.153780475259,-0.225379705429,1.21846967915e-07,0.0,0.0,0.0,1.21846967915e-07,0.0,0.0,0.0,1.21846967915e-07,0.1372931,0.38245935,12.81729155,9e-08,0.0,0.0,0.0,9e-08,0.0,0.0,0.0,9e-08
1532985913057298961,4502,1532985913056989407,base_link,-0.129552096589,0.0608063640519,0.103403586522,-0.984289865159,1.0,0.0,0.0,0.0,1.0,0.0,0.0,0.0,1.0,-0.404839426279,-0.0775921940804,-0.13971182704,1.21846967915e-07,0.0,0.0,0.0,1.21846967915e-07,0.0,0.0,0.0,1.21846967915e-07,-0.0392266,0.26477955,11.1011278,9e-08,0.0,0.0,0.0,9e-08,0.0,0.0,0.0,9e-08
1532985913562287889,4503,1532985913561513109,base_link,-0.0453378310199,0.0517674820586,0.123925854639,-0.989902516126,1.0,0.0,0.0,0.0,1.0,0.0,0.0,0.0,1.0,-0.160347372293,0.0933570414782,-0.0323373936117,1.21846967915e-07,0.0,0.0,0.0,1.21846967915e-07,0.0,0.0,0.0,1.21846967915e-07,0.4118793,0.0392266,9.30651085,9e-08,0.0,0.0,0.0,9e-08,0.0,0.0,0.0,9e-08
1532985913965166321,4504,1532985913964314297,base_link,0.00578856814396,0.0229380429322,0.131085841549,-0.991088714904,1.0,0.0,0.0,0.0,1.0,0.0,0.0,0.0,1.0,-0.201951354742,0.16618360579,-0.0378858521581,1.21846967915e-07,0.0,0.0,0.0,1.21846967915e-07,0.0,0.0,0.0,1.21846967915e-07,0.2353596,0.53936575,7.28634095,9e-08,0.0,0.0,0.0,9e-08,0.0,0.0,0.0,9e-08
1532985914452461592,4505,1532985914451900721,base_link,0.0305594057537,-0.013329904526,0.133808538526,-0.990446218319,1.0,0.0,0.0,0.0,1.0,0.0,0.0,0.0,1.0,-0.0479108579457,0.138875409961,0.0236621554941,1.21846967915e-07,0.0,0.0,0.0,1.21846967915e-07,0.0,0.0,0.0,1.21846967915e-07,0.8825985,0.30400615,6.97252815,9e-08,0.0,0.0,0.0,9e-08,0.0,0.0,0.0,9e-08
1532985914761664595,4506,1532985914759411995,base_link,0.033632119977,-0.0352315313168,0.129595863818,-0.990369896447,1.0,0.0,0.0,0.0,1.0,0.0,0.0,0.0,1.0,-0.0433969385922,0.142614513636,0.0412533171475,1.21846967915e-07,0.0,0.0,0.0,1.21846967915e-07,0.0,0.0,0.0,1.21846967915e-07,0.89240515,-0.02941995,7.5903471,9e-08,0.0,0.0,0.0,9e-08,0.0,0.0,0.0,9e-08
1532985915127169679,4507,1532985915126853469,base_link,0.01731707199,-0.0532588127709,0.12331001595,-0.990786686349,1.0,0.0,0.0,0.0,1.0,0.0,0.0,0.0,1.0,0.146542489529,0.0984850153327,0.0189839024097,1.21846967915e-07,0.0,0.0,0.0,1.21846967915e-07,0.0,0.0,0.0,1.21846967915e-07,0.73549875,0.3138128,7.453054,9e-08,0.0,0.0,0.0,9e-08,0.0,0.0,0.0,9e-08
1532985915428976316,4508,1532985915428566670,base_link,0.00875313445881,-0.0574647431514,0.117479659853,-0.991372642074,1.0,0.0,0.0,0.0,1.0,0.0,0.0,0.0,1.0,-0.00592009723186,0.00648147519678,0.0666732341051,1.21846967915e-07,0.0,0.0,0.0,1.21846967915e-07,0.0,0.0,0.0,1.21846967915e-07,1.04931155,-0.2353596,8.6690786,9e-08,0.0,0.0,0.0,9e-08,0.0,0.0,0.0,9e-08
1532985915744175403,4509,1532985915743709472,base_link,0.0110595434183,-0.0571565308415,0.106474541197,-0.992609686412,1.0,0.0,0.0,0.0,1.0,0.0,0.0,0.0,1.0,-0.0479939617217,-0.00949024967849,0.0438092686236,1.21846967915e-07,0.0,0.0,0.0,1.21846967915e-07,0.0,0.0,0.0,1.21846967915e-07,0.6080123,0.57859235,8.91424485,9e-08,0.0,0.0,0.0,9e-08,0.0,0.0,0.0,9e-08
1532985916118930665,4510,1532985916118553178,base_link,0.0177227243375,-0.0470116148919,0.110064828351,-0.992653789933,1.0,0.0,0.0,0.0,1.0,0.0,0.0,0.0,1.0,0.0635133311152,-0.0895099341869,-0.0250141583383,1.21846967915e-07,0.0,0.0,0.0,1.21846967915e-07,0.0,0.0,0.0,1.21846967915e-07,0.4511059,0.2353596,10.50292215,9e-08,0.0,0.0,0.0,9e-08,0.0,0.0,0.0,9e-08
1532985916573807347,4511,1532985916573470146,base_link,0.0103256081145,-0.0101334793214,0.10222111582,-0.994656492411,1.0,0.0,0.0,0.0,1.0,0.0,0.0,0.0,1.0,-0.0330171324313,-0.150841653347,0.0484273061156,1.21846967915e-07,0.0,0.0,0.0,1.21846967915e-07,0.0,0.0,0.0,1.21846967915e-07,0.40207265,0.00980665,13.3174307,9e-08,0.0,0.0,0.0,9e-08,0.0,0.0,0.0,9e-08
1532985916966980664,4512,1532985916966664454,base_link,0.00806859261946,0.0150782641662,0.0974122103318,-0.995097183717,1.0,0.0,0.0,0.0,1.0,0.0,0.0,0.0,1.0,0.0843854248524,-0.10220643878,0.000743175391108,1.21846967915e-07,0.0,0.0,0.0,1.21846967915e-07,0.0,0.0,0.0,1.21846967915e-07,-0.06864655,0.1176798,12.3759923,9e-08,0.0,0.0,0.0,9e-08,0.0,0.0,0.0,9e-08
1532985917370844907,4513,1532985917370267173,base_link,-0.00153591273665,0.0292954077429,0.0972183538992,-0.994830644744,1.0,0.0,0.0,0.0,1.0,0.0,0.0,0.0,1.0,0.0407796055079,-0.0280568897724,-0.0112740825862,1.21846967915e-07,0.0,0.0,0.0,1.21846967915e-07,0.0,0.0,0.0,1.21846967915e-07,-0.3530394,0.3726527,9.9439431,9e-08,0.0,0.0,0.0,9e-08,0.0,0.0,0.0,9e-08
1532985917802992770,4514,1532985917802749676,base_link,-0.0311905580763,0.0338271716887,0.10016201434,-0.993906656797,1.0,0.0,0.0,0.0,1.0,0.0,0.0,0.0,1.0,-0.0332733802497,0.0400835908949,-0.0371348112822,1.21846967915e-07,0.0,0.0,0.0,1.21846967915e-07,0.0,0.0,0.0,1.21846967915e-07,-0.1176798,0.50013915,9.3555441,9e-08,0.0,0.0,0.0,9e-08,0.0,0.0,0.0,9e-08
1532985918203996220,4515,1532985918200745032,base_link,-0.0288228408213,0.0244519038455,0.105074311645,-0.9937458112,1.0,0.0,0.0,0.0,1.0,0.0,0.0,0.0,1.0,-0.0633328855038,0.0526346117258,-0.0255255848169,1.21846967915e-07,0.0,0.0,0.0,1.21846967915e-07,0.0,0.0,0.0,1.21846967915e-07,0.2549729,0.588399,9.67916355,9e-08,0.0,0.0,0.0,9e-08,0.0,0.0,0.0,9e-08
1532985918555210406,4516,1532985918554857685,base_link,-0.0237544461297,0.015122437545,0.107556775208,-0.993800069571,1.0,0.0,0.0,0.0,1.0,0.0,0.0,0.0,1.0,0.00196035765111,0.0601754114032,0.00145910633728,1.21846967915e-07,0.0,0.0,0.0,1.21846967915e-07,0.0,0.0,0.0,1.21846967915e-07,0.44129925,-0.22555295,9.32612415,9e-08,0.0,0.0,0.0,9e-08,0.0,0.0,0.0,9e-08
1532985918941322160,4517,1532985918940821893,base_link,-0.0117036534322,0.00388239062592,0.106418074972,-0.994245012489,1.0,0.0,0.0,0.0,1.0,0.0,0.0,0.0,1.0,-0.127429947257,0.0495529994369,-0.016220299527,1.21846967915e-07,0.0,0.0,0.0,1.21846967915e-07,0.0,0.0,0.0,1.21846967915e-07,0.2157463,0.46091255,9.6301303,9e-08,0.0,0.0,0.0,9e-08,0.0,0.0,0.0,9e-08
1532985919342893553,4518,1532985919342599869,base_link,-0.00433034374146,-0.00450354471811,0.10749894725,-0.994185567461,1.0,0.0,0.0,0.0,1.0,0.0,0.0,0.0,1.0,-0.0546870082617,0.0185906495899,0.0332616977394,1.21846967915e-07,0.0,0.0,0.0,1.21846967915e-07,0.0,0.0,0.0,1.21846967915e-07,0.24516625,0.2157463,8.42391235,9e-08,0.0,0.0,0.0,9e-08,0.0,0.0,0.0,9e-08
1532985919698803147,4519,1532985919698329152,base_link,0.00484094562851,-0.0111648977483,0.100752043349,-0.994837140473,1.0,0.0,0.0,0.0,1.0,0.0,0.0,0.0,1.0,-0.0993938744068,0.0362348742783,-0.00422183470801,1.21846967915e-07,0.0,0.0,0.0,1.21846967915e-07,0.0,0.0,0.0,1.21846967915e-07,0.57859235,0.24516625,8.87501825,9e-08,0.0,0.0,0.0,9e-08,0.0,0.0,0.0,9e-08
1532985920197975163,4520,1532985920197656968,base_link,0.00767035976745,-0.0150775372767,0.101147017166,-0.994727658392,1.0,0.0,0.0,0.0,1.0,0.0,0.0,0.0,1.0,-0.00704873353243,0.00641199853271,0.00103463651612,1.21846967915e-07,0.0,0.0,0.0,1.21846967915e-07,0.0,0.0,0.0,1.21846967915e-07,0.61781895,-0.22555295,8.7867584,9e-08,0.0,0.0,0.0,9e-08,0.0,0.0,0.0,9e-08
1532985920625349647,4521,1532985920624992830,base_link,0.0184153172579,-0.00916057220512,0.0940722517033,-0.995352887908,1.0,0.0,0.0,0.0,1.0,0.0,0.0,0.0,1.0,-0.00178951350972,-0.0142844542861,0.103062257171,1.21846967915e-07,0.0,0.0,0.0,1.21846967915e-07,0.0,0.0,0.0,1.21846967915e-07,0.55897905,-0.99047165,10.93441475,9e-08,0.0,0.0,0.0,9e-08,0.0,0.0,0.0,9e-08
1532985921011943533,4522,1532985921009334904,base_link,0.0240354669438,-0.000803546014974,0.0637121419512,-0.997678512152,1.0,0.0,0.0,0.0,1.0,0.0,0.0,0.0,1.0,0.0656750127673,-0.0444716513157,0.0938024893403,1.21846967915e-07,0.0,0.0,0.0,1.21846967915e-07,0.0,0.0,0.0,1.21846967915e-07,0.50013915,0.38245935,10.79712165,9e-08,0.0,0.0,0.0,9e-08,0.0,0.0,0.0,9e-08
1532985921336802290,4523,1532985921336474848,base_link,0.0180873225315,0.00535120923988,0.0580029823321,-0.998138200533,1.0,0.0,0.0,0.0,1.0,0.0,0.0,0.0,1.0,-0.0409219861031,-0.0234010014683,-0.00233773584478,1.21846967915e-07,0.0,0.0,0.0,1.21846967915e-07,0.0,0.0,0.0,1.21846967915e-07,0.44129925,0.1765197,11.3561007,9e-08,0.0,0.0,0.0,9e-08,0.0,0.0,0.0,9e-08
1532985921737260543,4524,1532985921736906253,base_link,-0.00809813387698,0.00702126582203,0.0662690047614,-0.997744226273,1.0,0.0,0.0,0.0,1.0,0.0,0.0,0.0,1.0,0.209553837776,0.0211169086397,-0.0510936267674,1.21846967915e-07,0.0,0.0,0.0,1.21846967915e-07,0.0,0.0,0.0,1.21846967915e-07,0.5099458,1.09648401525e-15,8.95347145,9e-08,0.0,0.0,0.0,9e-08,0.0,0.0,0.0,9e-08
1532985922096164242,4525,1532985922095767554,base_link,-0.0130450850706,0.00367323494625,0.0716699435799,-0.997336328571,1.0,0.0,0.0,0.0,1.0,0.0,0.0,0.0,1.0,-0.101280741394,0.0505013652146,-0.0246736183763,1.21846967915e-07,0.0,0.0,0.0,1.21846967915e-07,0.0,0.0,0.0,1.21846967915e-07,0.40207265,-0.2157463,9.40457735,9e-08,0.0,0.0,0.0,9e-08,0.0,0.0,0.0,9e-08
1532985922536852481,4526,1532985922536385619,base_link,-0.0230677260484,0.00142206791749,0.0640679490403,-0.997677881705,1.0,0.0,0.0,0.0,1.0,0.0,0.0,0.0,1.0,-0.0906752124429,-0.0695648789406,0.164321243763,1.21846967915e-07,0.0,0.0,0.0,1.21846967915e-07,0.0,0.0,0.0,1.21846967915e-07,0.588399,-0.2745862,12.66038515,9e-08,0.0,0.0,0.0,9e-08,0.0,0.0,0.0,9e-08
1532985923058247907,4527,1532985923057801877,base_link,-0.0188261761515,-0.00436647943604,0.0331275647267,-0.99926426605,1.0,0.0,0.0,0.0,1.0,0.0,0.0,0.0,1.0,-0.0169429518282,0.0740366727114,-0.0642812624574,1.21846967915e-07,0.0,0.0,0.0,1.21846967915e-07,0.0,0.0,0.0,1.21846967915e-07,0.08825985,0.4903325,9.6889702,9e-08,0.0,0.0,0.0,9e-08,0.0,0.0,0.0,9e-08
1532985923437443137,4528,1532985923436895319,base_link,-0.0232882229763,-0.0121194168239,0.0580041545813,-0.997971089991,1.0,0.0,0.0,0.0,1.0,0.0,0.0,0.0,1.0,0.0702321156859,-0.00264516659081,-0.0900945588946,1.21846967915e-07,0.0,0.0,0.0,1.21846967915e-07,0.0,0.0,0.0,1.21846967915e-07,-0.00980665,-0.18632635,9.2967042,9e-08,0.0,0.0,0.0,9e-08,0.0,0.0,0.0,9e-08
1532985923849826430,4529,1532985923848829030,base_link,-0.0315095021011,-0.0103414586776,0.0616623568212,-0.997545968495,1.0,0.0,0.0,0.0,1.0,0.0,0.0,0.0,1.0,-0.00160164292902,-0.00442828610539,0.0401369519532,1.21846967915e-07,0.0,0.0,0.0,1.21846967915e-07,0.0,0.0,0.0,1.21846967915e-07,-0.1765197,0.0980665,9.77723005,9e-08,0.0,0.0,0.0,9e-08,0.0,0.0,0.0,9e-08
1532985924262134319,4530,1532985924256929593,base_link,-0.018286162214,-0.0130717567749,0.0611311330597,-0.997876610617,1.0,0.0,0.0,0.0,1.0,0.0,0.0,0.0,1.0,0.0233281906694,0.0129514709115,-0.0396330952644,1.21846967915e-07,0.0,0.0,0.0,1.21846967915e-07,0.0,0.0,0.0,1.21846967915e-07,-0.24516625,0.0392266,9.77723005,9e-08,0.0,0.0,0.0,9e-08,0.0,0.0,0.0,9e-08
1532985924665596704,4531,1532985924665091795,base_link,-0.0226362412513,-0.0133784522745,0.0622025582415,-0.997717123911,1.0,0.0,0.0,0.0,1.0,0.0,0.0,0.0,1.0,-0.102388091385,-0.0123623628169,0.0171925183386,1.21846967915e-07,0.0,0.0,0.0,1.21846967915e-07,0.0,0.0,0.0,1.21846967915e-07,-0.40207265,0.0784532,9.4928372,9e-08,0.0,0.0,0.0,9e-08,0.0,0.0,0.0,9e-08
1532985925055879221,4532,1532985925055392712,base_link,0.000710208031741,-0.0192592126644,0.0575005571885,-0.998159438294,1.0,0.0,0.0,0.0,1.0,0.0,0.0,0.0,1.0,-0.129616633058,0.0681242123246,-0.00662878388539,1.21846967915e-07,0.0,0.0,0.0,1.21846967915e-07,0.0,0.0,0.0,1.21846967915e-07,-0.2353596,0.392266,9.28689755,9e-08,0.0,0.0,0.0,9e-08,0.0,0.0,0.0,9e-08
1532985925551211200,4533,1532985925550565465,base_link,0.0178914586499,-0.038418267345,0.07218789133,-0.99649026126,1.0,0.0,0.0,0.0,1.0,0.0,0.0,0.0,1.0,-0.0745135471225,0.0943881198764,-0.101734064519,1.21846967915e-07,0.0,0.0,0.0,1.21846967915e-07,0.0,0.0,0.0,1.21846967915e-07,-0.06864655,0.22555295,8.56120545,9e-08,0.0,0.0,0.0,9e-08,0.0,0.0,0.0,9e-08
1532985925937033285,4534,1532985925936726737,base_link,-0.00160300043519,-0.0474125994031,0.0895670709079,-0.994850348352,1.0,0.0,0.0,0.0,1.0,0.0,0.0,0.0,1.0,0.143516272306,0.0151222525164,-0.0122657194734,1.21846967915e-07,0.0,0.0,0.0,1.21846967915e-07,0.0,0.0,0.0,1.21846967915e-07,-0.1765197,-0.24516625,7.36479415,9e-08,0.0,0.0,0.0,9e-08,0.0,0.0,0.0,9e-08
1532985926327593327,4535,1532985926327235036,base_link,-0.0621514462897,-0.0451886687069,0.088147270101,-0.993139084277,1.0,0.0,0.0,0.0,1.0,0.0,0.0,0.0,1.0,0.841425180435,0.0355198904872,-0.0276569798589,1.21846967915e-07,0.0,0.0,0.0,1.21846967915e-07,0.0,0.0,0.0,1.21846967915e-07,-1.2944778,-0.3334261,8.0806796,9e-08,0.0,0.0,0.0,9e-08,0.0,0.0,0.0,9e-08
1532985926803744758,4536,1532985926803416418,base_link,-0.231892177441,-0.0358867277327,0.111149689833,-0.965703840349,1.0,0.0,0.0,0.0,1.0,0.0,0.0,0.0,1.0,0.323870331049,0.0307804346085,-0.185636907816,1.21846967915e-07,0.0,0.0,0.0,1.21846967915e-07,0.0,0.0,0.0,1.21846967915e-07,-1.36312435,0.5295591,8.73772515,9e-08,0.0,0.0,0.0,9e-08,0.0,0.0,0.0,9e-08
1532985927161739805,4537,1532985927161516325,base_link,-0.272263991877,-0.0429238681597,0.167579309296,-0.946544787828,1.0,0.0,0.0,0.0,1.0,0.0,0.0,0.0,1.0,0.324309587479,-0.0292491074651,-0.349230527878,1.21846967915e-07,0.0,0.0,0.0,1.21846967915e-07,0.0,0.0,0.0,1.21846967915e-07,-1.48080415,-0.2745862,7.5903471,9e-08,0.0,0.0,0.0,9e-08,0.0,0.0,0.0,9e-08
1532985927759680277,4538,1532985927758749496,base_link,-0.335390819269,-0.011202230158,0.26045970833,-0.905289041536,1.0,0.0,0.0,0.0,1.0,0.0,0.0,0.0,1.0,0.196713507175,-0.209857940674,-0.285516053438,1.21846967915e-07,0.0,0.0,0.0,1.21846967915e-07,0.0,0.0,0.0,1.21846967915e-07,-1.42196425,0.32361945,9.7281968,9e-08,0.0,0.0,0.0,9e-08,0.0,0.0,0.0,9e-08
1532985928030066066,4539,1532985928029707007,base_link,-0.348163479212,0.0115978113297,0.309507397487,-0.884789722712,1.0,0.0,0.0,0.0,1.0,0.0,0.0,0.0,1.0,0.210250332952,-0.252992212772,-0.316281914711,1.21846967915e-07,0.0,0.0,0.0,1.21846967915e-07,0.0,0.0,0.0,1.21846967915e-07,-1.50041745,0.08825985,9.8458766,9e-08,0.0,0.0,0.0,9e-08,0.0,0.0,0.0,9e-08
1532985928469417319,4540,1532985928469021109,base_link,-0.370652074237,0.0662355787593,0.384410995085,-0.842886750891,1.0,0.0,0.0,0.0,1.0,0.0,0.0,0.0,1.0,0.0869219079614,-0.372142851353,-0.268533051014,1.21846967915e-07,0.0,0.0,0.0,1.21846967915e-07,0.0,0.0,0.0,1.21846967915e-07,-1.2944778,0.0392266,12.58193195,9e-08,0.0,0.0,0.0,9e-08,0.0,0.0,0.0,9e-08
1532985928854735776,4541,1532985928854035001,base_link,-0.349429190166,0.113524682415,0.457208059292,-0.809921093725,1.0,0.0,0.0,0.0,1.0,0.0,0.0,0.0,1.0,0.0223018433899,-0.389483034611,-0.291366130114,1.21846967915e-07,0.0,0.0,0.0,1.21846967915e-07,0.0,0.0,0.0,1.21846967915e-07,-1.2748645,0.392266,14.1411893,9e-08,0.0,0.0,0.0,9e-08,0.0,0.0,0.0,9e-08
1532985929210110719,4542,1532985929209785898,base_link,-0.330034838865,0.149187171761,0.52267654544,-0.771770316716,1.0,0.0,0.0,0.0,1.0,0.0,0.0,0.0,1.0,0.0337726436555,-0.381993919611,-0.346806257963,1.21846967915e-07,0.0,0.0,0.0,1.21846967915e-07,0.0,0.0,0.0,1.21846967915e-07,-1.14737805,0.14709975,13.8862164,9e-08,0.0,0.0,0.0,9e-08,0.0,0.0,0.0,9e-08
1532985929595390294,4543,1532985929594815242,base_link,-0.308180713748,0.192920575557,0.596629199188,-0.715429869293,1.0,0.0,0.0,0.0,1.0,0.0,0.0,0.0,1.0,-0.00666388915852,-0.407465994358,-0.341051161289,1.21846967915e-07,0.0,0.0,0.0,1.21846967915e-07,0.0,0.0,0.0,1.21846967915e-07,-0.9414384,0.3530394,15.298374,9e-08,0.0,0.0,0.0,9e-08,0.0,0.0,0.0,9e-08
1532985929905071567,4544,1532985929904746778,base_link,-0.276329292034,0.214690622106,0.651525957458,-0.673100279232,1.0,0.0,0.0,0.0,1.0,0.0,0.0,0.0,1.0,-0.0582906007767,-0.397687852383,-0.322019606829,1.21846967915e-07,0.0,0.0,0.0,1.21846967915e-07,0.0,0.0,0.0,1.21846967915e-07,-0.89240515,0.2745862,15.0630144,9e-08,0.0,0.0,0.0,9e-08,0.0,0.0,0.0,9e-08
1532985930219070586,4545,1532985930218868865,base_link,0.245916962054,-0.241106646028,-0.699431691722,0.626248945412,1.0,0.0,0.0,0.0,1.0,0.0,0.0,0.0,1.0,-0.0686481073499,-0.329808175564,-0.305343896151,1.21846967915e-07,0.0,0.0,0.0,1.21846967915e-07,0.0,0.0,0.0,1.21846967915e-07,-1.18660465,0.59820565,12.5132854,9e-08,0.0,0.0,0.0,9e-08,0.0,0.0,0.0,9e-08
1532985930600417653,4546,1532985930599859816,base_link,0.191458369106,-0.224467126048,-0.75851736396,0.581041832224,1.0,0.0,0.0,0.0,1.0,0.0,0.0,0.0,1.0,-0.427579462528,-0.236169740558,-0.341913878918,1.21846967915e-07,0.0,0.0,0.0,1.21846967915e-07,0.0,0.0,0.0,1.21846967915e-07,-0.95124505,0.0784532,12.50347875,9e-08,0.0,0.0,0.0,9e-08,0.0,0.0,0.0,9e-08
1532985931002056010,4547,1532985931001417153,base_link,0.113874886514,-0.151835799184,-0.821706689266,0.537379304703,1.0,0.0,0.0,0.0,1.0,0.0,0.0,0.0,1.0,-0.528526902199,-0.0993535220623,-0.24500747025,1.21846967915e-07,0.0,0.0,0.0,1.21846967915e-07,0.0,0.0,0.0,1.21846967915e-07,-1.0198916,-0.02941995,12.09159945,9e-08,0.0,0.0,0.0,9e-08,0.0,0.0,0.0,9e-08
1532985931349248527,4548,1532985931348775743,base_link,0.0552861441907,-0.0700452155171,-0.851280975666,0.517066543603,1.0,0.0,0.0,0.0,1.0,0.0,0.0,0.0,1.0,-0.662847340107,-0.00412551872432,-0.131450623274,1.21846967915e-07,0.0,0.0,0.0,1.21846967915e-07,0.0,0.0,0.0,1.21846967915e-07,-0.99047165,0.1765197,10.89518815,9e-08,0.0,0.0,0.0,9e-08,0.0,0.0,0.0,9e-08
1532985931679659986,4549,1532985931679283999,base_link,0.0171379520301,0.0108776373883,-0.862962209272,0.504860567854,1.0,0.0,0.0,0.0,1.0,0.0,0.0,0.0,1.0,-0.522645115852,0.106583558023,-0.0257873907685,1.21846967915e-07,0.0,0.0,0.0,1.21846967915e-07,0.0,0.0,0.0,1.21846967915e-07,-1.2160246,-0.16671305,6.7077486,9e-08,0.0,0.0,0.0,9e-08,0.0,0.0,0.0,9e-08
1532985932034772956,4550,1532985932033887130,base_link,-0.00754736099461,0.0859257513372,-0.855901672773,0.509894233292,1.0,0.0,0.0,0.0,1.0,0.0,0.0,0.0,1.0,-0.375251978636,0.124776609242,0.0566957294941,1.21846967915e-07,0.0,0.0,0.0,1.21846967915e-07,0.0,0.0,0.0,1.21846967915e-07,-0.97085835,0.32361945,6.864655,9e-08,0.0,0.0,0.0,9e-08,0.0,0.0,0.0,9e-08
1532985932375841836,4551,1532985932375566645,base_link,-0.0123823594446,0.137952710109,-0.845279260089,0.516060751668,1.0,0.0,0.0,0.0,1.0,0.0,0.0,0.0,1.0,-0.181721672416,0.129712685943,0.114653259516,1.21846967915e-07,0.0,0.0,0.0,1.21846967915e-07,0.0,0.0,0.0,1.21846967915e-07,-0.99047165,-0.22555295,8.58081875,9e-08,0.0,0.0,0.0,9e-08,0.0,0.0,0.0,9e-08
1532985932786068133,4552,1532985932785808334,base_link,-0.00109678656049,0.171226874909,-0.82619915134,0.536726295884,1.0,0.0,0.0,0.0,1.0,0.0,0.0,0.0,1.0,-0.136829793453,0.0791670084,0.176460638642,1.21846967915e-07,0.0,0.0,0.0,1.21846967915e-07,0.0,0.0,0.0,1.21846967915e-07,-0.8825985,1.005210428e-15,8.20816605,9e-08,0.0,0.0,0.0,9e-08,0.0,0.0,0.0,9e-08
1532985933255182819,4553,1532985933254916940,base_link,-0.0088350638877,0.202183759277,-0.793044387311,0.574564416655,1.0,0.0,0.0,0.0,1.0,0.0,0.0,0.0,1.0,-0.0448274575174,-0.0607512108982,0.227548792958,1.21846967915e-07,0.0,0.0,0.0,1.21846967915e-07,0.0,0.0,0.0,1.21846967915e-07,-0.95124505,-0.0784532,8.237586,9e-08,0.0,0.0,0.0,9e-08,0.0,0.0,0.0,9e-08
1532985933643540275,4554,1532985933643217630,base_link,-0.00788446614056,0.187067069101,-0.77023414266,0.609658193033,1.0,0.0,0.0,0.0,1.0,0.0,0.0,0.0,1.0,0.0128029212356,-0.0915191546082,0.226760566235,1.21846967915e-07,0.0,0.0,0.0,1.21846967915e-07,0.0,0.0,0.0,1.21846967915e-07,-1.0395049,-0.34323275,10.0223963,9e-08,0.0,0.0,0.0,9e-08,0.0,0.0,0.0,9e-08
1532985934110181968,4555,1532985934109868314,base_link,-0.0115633710113,0.153479656159,-0.744071482702,0.65012915042,1.0,0.0,0.0,0.0,1.0,0.0,0.0,0.0,1.0,0.132834896445,-0.13065482676,0.150685444474,1.21846967915e-07,0.0,0.0,0.0,1.21846967915e-07,0.0,0.0,0.0,1.21846967915e-07,-0.8825985,0.00980665,11.77778665,9e-08,0.0,0.0,0.0,9e-08,0.0,0.0,0.0,9e-08
1532985934506662478,4556,1532985934506417334,base_link,-0.0084383006126,0.112050288383,-0.730533807086,0.673568025265,1.0,0.0,0.0,0.0,1.0,0.0,0.0,0.0,1.0,0.104081086814,-0.127845600247,0.0990337952971,1.21846967915e-07,0.0,0.0,0.0,1.21846967915e-07,0.0,0.0,0.0,1.21846967915e-07,-0.8825985,0.22555295,10.87557485,9e-08,0.0,0.0,0.0,9e-08,0.0,0.0,0.0,9e-08
1532985934895653439,4557,1532985934895233452,base_link,0.000406014664986,0.0727029296825,-0.725343555802,0.6845369568,1.0,0.0,0.0,0.0,1.0,0.0,0.0,0.0,1.0,0.241796284914,-0.133457094431,0.0515547245741,1.21846967915e-07,0.0,0.0,0.0,1.21846967915e-07,0.0,0.0,0.0,1.21846967915e-07,-0.6276256,0.0392266,13.44491715,9e-08,0.0,0.0,0.0,9e-08,0.0,0.0,0.0,9e-08
1532985935234149443,4558,1532985935229235999,base_link,-0.00426041529799,0.0578990834563,-0.716239053608,0.695435951819,1.0,0.0,0.0,0.0,1.0,0.0,0.0,0.0,1.0,-0.00708070024848,-0.0319363772869,0.0701799690723,1.21846967915e-07,0.0,0.0,0.0,1.21846967915e-07,0.0,0.0,0.0,1.21846967915e-07,-0.73549875,0.18632635,11.1991943,9e-08,0.0,0.0,0.0,9e-08,0.0,0.0,0.0,9e-08
1532985935693310515,4559,1532985935692896160,base_link,0.00757819281376,0.0432186080845,-0.711055802642,0.701765180411,1.0,0.0,0.0,0.0,1.0,0.0,0.0,0.0,1.0,0.126885131001,0.0302714891732,0.0181600041687,1.21846967915e-07,0.0,0.0,0.0,1.21846967915e-07,0.0,0.0,0.0,1.21846967915e-07,-0.8237586,0.20593965,9.7085835,9e-08,0.0,0.0,0.0,9e-08,0.0,0.0,0.0,9e-08
1532985936236928381,4560,1532985936236414573,base_link,0.041077494243,0.0248837110536,-0.710788383652,0.701764429176,1.0,0.0,0.0,0.0,1.0,0.0,0.0,0.0,1.0,0.102691479027,0.0498505979776,-0.00536339357495,1.21846967915e-07,0.0,0.0,0.0,1.21846967915e-07,0.0,0.0,0.0,1.21846967915e-07,-0.9414384,-0.0392266,9.63993695,9e-08,0.0,0.0,0.0,9e-08,0.0,0.0,0.0,9e-08
1532985936698168362,4561,1532985936697359843,base_link,0.0491084441082,0.0404890773106,-0.711406748812,0.699892443938,1.0,0.0,0.0,0.0,1.0,0.0,0.0,0.0,1.0,0.0168484859169,0.0975336804986,-4.25707548857e-05,1.21846967915e-07,0.0,0.0,0.0,1.21846967915e-07,0.0,0.0,0.0,1.21846967915e-07,-1.0591182,-0.12748645,9.2967042,9e-08,0.0,0.0,0.0,9e-08,0.0,0.0,0.0,9e-08
1532985937051391704,4562,1532985937050997060,base_link,0.0570342731895,0.0497539088952,-0.706713793733,0.70343958801,1.0,0.0,0.0,0.0,1.0,0.0,0.0,0.0,1.0,-0.0909599661827,0.0543042011559,0.050382155925,1.21846967915e-07,0.0,0.0,0.0,1.21846967915e-07,0.0,0.0,0.0,1.21846967915e-07,-1.1964113,0.0784532,8.30623255,9e-08,0.0,0.0,0.0,9e-08,0.0,0.0,0.0,9e-08
1532985937431883840,4563,1532985937426915672,base_link,0.048091221309,0.0637257899996,-0.704603440035,0.705095915754,1.0,0.0,0.0,0.0,1.0,0.0,0.0,0.0,1.0,-0.0753535404801,0.0130784474313,-0.0165999997407,1.21846967915e-07,0.0,0.0,0.0,1.21846967915e-07,0.0,0.0,0.0,1.21846967915e-07,-0.980665,0.22555295,8.69849855,9e-08,0.0,0.0,0.0,9e-08,0.0,0.0,0.0,9e-08
1532985937901286352,4564,1532985937900458665,base_link,-0.0346457391619,-0.0748881989083,0.702197397785,-0.707184731853,1.0,0.0,0.0,0.0,1.0,0.0,0.0,0.0,1.0,-0.0217219591141,-0.0243066158146,0.0417709052563,1.21846967915e-07,0.0,0.0,0.0,1.21846967915e-07,0.0,0.0,0.0,1.21846967915e-07,-1.0591182,0.2157463,8.67888525,9e-08,0.0,0.0,0.0,9e-08,0.0,0.0,0.0,9e-08
1532985938227952653,4565,1532985938227586072,base_link,-0.0126235983202,-0.085969171132,0.695620868239,-0.713135018108,1.0,0.0,0.0,0.0,1.0,0.0,0.0,0.0,1.0,-0.0187487974763,-0.0362763851881,0.0254637356848,1.21846967915e-07,0.0,0.0,0.0,1.21846967915e-07,0.0,0.0,0.0,1.21846967915e-07,-1.01008495,-0.0784532,10.42446895,9e-08,0.0,0.0,0.0,9e-08,0.0,0.0,0.0,9e-08
1532985938712141729,4566,1532985938711379992,base_link,-0.0225821854618,-0.0639337668703,0.692756051276,-0.717977417315,1.0,0.0,0.0,0.0,1.0,0.0,0.0,0.0,1.0,0.178897932172,-0.0628838986158,0.0276304371655,1.21846967915e-07,0.0,0.0,0.0,1.21846967915e-07,0.0,0.0,0.0,1.21846967915e-07,-1.1375714,-0.0392266,9.5516771,9e-08,0.0,0.0,0.0,9e-08,0.0,0.0,0.0,9e-08
1532985939132271328,4567,1532985939132002248,base_link,-0.0335489879831,-0.0449660274243,0.691638818517,-0.720061293574,1.0,0.0,0.0,0.0,1.0,0.0,0.0,0.0,1.0,0.115077547729,0.00877785868943,0.00987648777664,1.21846967915e-07,0.0,0.0,0.0,1.21846967915e-07,0.0,0.0,0.0,1.21846967915e-07,-0.9022118,0.0196133,10.1596894,9e-08,0.0,0.0,0.0,9e-08,0.0,0.0,0.0,9e-08
1532985939534593463,4568,1532985939534292032,base_link,-0.0450094398488,-0.0352752580958,0.692241496471,-0.71939663403,1.0,0.0,0.0,0.0,1.0,0.0,0.0,0.0,1.0,0.0617361031473,0.0020576743409,-0.0366184674203,1.21846967915e-07,0.0,0.0,0.0,1.21846967915e-07,0.0,0.0,0.0,1.21846967915e-07,-0.99047165,0.1372931,10.395049,9e-08,0.0,0.0,0.0,9e-08,0.0,0.0,0.0,9e-08
1532985940040540234,4569,1532985940040085463,base_link,-0.0736279911995,-0.0100323341454,0.702500938131,-0.70779283912,1.0,0.0,0.0,0.0,1.0,0.0,0.0,0.0,1.0,0.370392501354,0.0120992846787,-0.0495753511786,1.21846967915e-07,0.0,0.0,0.0,1.21846967915e-07,0.0,0.0,0.0,1.21846967915e-07,-0.8825985,0.04903325,8.9240515,9e-08,0.0,0.0,0.0,9e-08,0.0,0.0,0.0,9e-08
1532985940496732042,4570,1532985940496448915,base_link,-0.157967300917,0.0767356257001,0.701381930015,-0.690812104583,1.0,0.0,0.0,0.0,1.0,0.0,0.0,0.0,1.0,0.321563720703,-0.023721318692,-0.00274563650601,1.21846967915e-07,0.0,0.0,0.0,1.21846967915e-07,0.0,0.0,0.0,1.21846967915e-07,-0.79433865,0.3334261,10.6304086,9e-08,0.0,0.0,0.0,9e-08,0.0,0.0,0.0,9e-08
1532985940959919458,4571,1532985940959631754,base_link,0.179228805007,-0.102936536307,-0.720650485533,0.661773361998,1.0,0.0,0.0,0.0,1.0,0.0,0.0,0.0,1.0,0.136148780584,-0.0672607198358,-0.305082529783,1.21846967915e-07,0.0,0.0,0.0,1.21846967915e-07,0.0,0.0,0.0,1.21846967915e-07,-1.01008495,0.71588545,9.62032365,9e-08,0.0,0.0,0.0,9e-08,0.0,0.0,0.0,9e-08
1532985941398040821,4572,1532985941397703807,base_link,0.207680807452,-0.155544878066,-0.769820664615,0.583138591979,1.0,0.0,0.0,0.0,1.0,0.0,0.0,0.0,1.0,0.511730611324,-0.182268366218,-0.387642860413,1.21846967915e-07,0.0,0.0,0.0,1.21846967915e-07,0.0,0.0,0.0,1.21846967915e-07,-1.06892485,0.3726527,10.30678915,9e-08,0.0,0.0,0.0,9e-08,0.0,0.0,0.0,9e-08
1532985941897154192,4573,1532985941896782074,base_link,0.206456649961,-0.223586553508,-0.817791900565,0.488468128077,1.0,0.0,0.0,0.0,1.0,0.0,0.0,0.0,1.0,-0.00429488066584,-0.305597066879,-0.343915045261,1.21846967915e-07,0.0,0.0,0.0,1.21846967915e-07,0.0,0.0,0.0,1.21846967915e-07,-0.7256921,0.22555295,12.56231865,9e-08,0.0,0.0,0.0,9e-08,0.0,0.0,0.0,9e-08
1532985942297198520,4574,1532985942296936543,base_link,0.167191533268,-0.24006223508,-0.859081749693,0.419994835488,1.0,0.0,0.0,0.0,1.0,0.0,0.0,0.0,1.0,0.128119856119,-0.329261690378,-0.31919875741,1.21846967915e-07,0.0,0.0,0.0,1.21846967915e-07,0.0,0.0,0.0,1.21846967915e-07,-0.6472389,0.3138128,12.75845165,9e-08,0.0,0.0,0.0,9e-08,0.0,0.0,0.0,9e-08
1532985942737533995,4575,1532985942737253746,base_link,0.119505239925,-0.255422672652,-0.895621615456,0.344005345676,1.0,0.0,0.0,0.0,1.0,0.0,0.0,0.0,1.0,-0.209815949202,-0.32374638319,-0.284585088491,1.21846967915e-07,0.0,0.0,0.0,1.21846967915e-07,0.0,0.0,0.0,1.21846967915e-07,-0.6080123,0.28439285,13.81756985,9e-08,0.0,0.0,0.0,9e-08,0.0,0.0,0.0,9e-08
1532985943257298346,4576,1532985943256969139,base_link,0.0795220766977,-0.266509625526,-0.926570325701,0.253211947487,1.0,0.0,0.0,0.0,1.0,0.0,0.0,0.0,1.0,0.015129191801,-0.206782117486,-0.261564224958,1.21846967915e-07,0.0,0.0,0.0,1.21846967915e-07,0.0,0.0,0.0,1.21846967915e-07,-0.51975245,-0.12748645,11.4541672,9e-08,0.0,0.0,0.0,9e-08,0.0,0.0,0.0,9e-08
1532985943742232238,4577,1532985943742011732,base_link,0.050244286868,-0.297134514979,-0.936836494302,0.177549921403,1.0,0.0,0.0,0.0,1.0,0.0,0.0,0.0,1.0,-0.0717119053006,-0.181444242597,-0.286522388458,1.21846967915e-07,0.0,0.0,0.0,1.21846967915e-07,0.0,0.0,0.0,1.21846967915e-07,-0.5099458,0.2941995,11.79739995,9e-08,0.0,0.0,0.0,9e-08,0.0,0.0,0.0,9e-08
1532985944200857674,4578,1532985944200618993,base_link,0.023822954524,-0.276231722826,-0.956024776903,0.09563016307,1.0,0.0,0.0,0.0,1.0,0.0,0.0,0.0,1.0,-0.0854969248176,-0.136028796434,-0.296653091908,1.21846967915e-07,0.0,0.0,0.0,1.21846967915e-07,0.0,0.0,0.0,1.21846967915e-07,-0.30400615,0.2549729,11.7091401,9e-08,0.0,0.0,0.0,9e-08,0.0,0.0,0.0,9e-08
1532985944618281659,4579,1532985944617841895,base_link,0.00895527106542,-0.230460792852,-0.972538857068,0.031237758754,1.0,0.0,0.0,0.0,1.0,0.0,0.0,0.0,1.0,-0.564521491528,-0.0987613648176,-0.26371011138,1.21846967915e-07,0.0,0.0,0.0,1.21846967915e-07,0.0,0.0,0.0,1.21846967915e-07,-0.36284605,0.4118793,11.0226746,9e-08,0.0,0.0,0.0,9e-08,0.0,0.0,0.0,9e-08
