%time,field.header.seq,field.header.stamp,field.header.frame_id,field.orientation.x,field.orientation.y,field.orientation.z,field.orientation.w,field.orientation_covariance0,field.orientation_covariance1,field.orientation_covariance2,field.orientation_covariance3,field.orientation_covariance4,field.orientation_covariance5,field.orientation_covariance6,field.orientation_covariance7,field.orientation_covariance8,field.angular_velocity.x,field.angular_velocity.y,field.angular_velocity.z,field.angular_velocity_covariance0,field.angular_velocity_covariance1,field.angular_velocity_covariance2,field.angular_velocity_covariance3,field.angular_velocity_covariance4,field.angular_velocity_covariance5,field.angular_velocity_covariance6,field.angular_velocity_covariance7,field.angular_velocity_covariance8,field.linear_acceleration.x,field.linear_acceleration.y,field.linear_acceleration.z,field.linear_acceleration_covariance0,field.linear_acceleration_covariance1,field.linear_acceleration_covariance2,field.linear_acceleration_covariance3,field.linear_acceleration_covariance4,field.linear_acceleration_covariance5,field.linear_acceleration_covariance6,field.linear_acceleration_covariance7,field.linear_acceleration_covariance8
1539875267293238152,729,1539875267292778984,base_link,0.00579436164264,-0.0106051381883,-0.999807751717,-0.0154407261303,1.0,0.0,0.0,0.0,1.0,0.0,0.0,0.0,1.0,-0.00241747824475,0.029004631564,0.0607017427683,1.21846967915e-07,0.0,0.0,0.0,1.21846967915e-07,0.0,0.0,0.0,1.21846967915e-07,-0.0392266,0.392266,7.32556755,9e-08,0.0,0.0,0.0,9e-08,0.0,0.0,0.0,9e-08
1539875267796012104,730,1539875267795671080,base_link,0.0127366904673,-0.127202063226,-0.991668163294,-0.015863976031,1.0,0.0,0.0,0.0,1.0,0.0,0.0,0.0,1.0,1.06621074677,0.0651099532843,-0.0761066228151,1.21846967915e-07,0.0,0.0,0.0,1.21846967915e-07,0.0,0.0,0.0,1.21846967915e-07,-0.20593965,0.42168595,9.7085835,9e-08,0.0,0.0,0.0,9e-08,0.0,0.0,0.0,9e-08
1539875268159158120,731,1539875268158846760,base_link,0.0220185788654,-0.255590494348,-0.965946391465,-0.0337083105242,1.0,0.0,0.0,0.0,1.0,0.0,0.0,0.0,1.0,0.40443149209,0.049613289535,-0.145996376872,1.21846967915e-07,0.0,0.0,0.0,1.21846967915e-07,0.0,0.0,0.0,1.21846967915e-07,-0.6472389,0.83356525,8.26700595,9e-08,0.0,0.0,0.0,9e-08,0.0,0.0,0.0,9e-08
1539875268577025352,732,1539875268576400904,base_link,0.04533970588,-0.293149548626,-0.951874661379,-0.0770862000304,1.0,0.0,0.0,0.0,1.0,0.0,0.0,0.0,1.0,-0.00444015488029,0.0789425969124,-0.26655203104,1.21846967915e-07,0.0,0.0,0.0,1.21846967915e-07,0.0,0.0,0.0,1.21846967915e-07,-0.99047165,0.73549875,7.9433865,9e-08,0.0,0.0,0.0,9e-08,0.0,0.0,0.0,9e-08
1539875268966378504,733,1539875268966107880,base_link,0.0722268769522,-0.28880458919,-0.946484733135,-0.124666905998,1.0,0.0,0.0,0.0,1.0,0.0,0.0,0.0,1.0,-0.0412795469165,0.0626045316458,-0.294464528561,1.21846967915e-07,0.0,0.0,0.0,1.21846967915e-07,0.0,0.0,0.0,1.21846967915e-07,-1.2748645,0.6080123,7.4334407,9e-08,0.0,0.0,0.0,9e-08,0.0,0.0,0.0,9e-08
1539875269371114280,734,1539875269370910728,base_link,0.098030322847,-0.263922636273,-0.944739862086,-0.167932995122,1.0,0.0,0.0,0.0,1.0,0.0,0.0,0.0,1.0,-0.128956913948,0.0714182406664,-0.214877694845,1.21846967915e-07,0.0,0.0,0.0,1.21846967915e-07,0.0,0.0,0.0,1.21846967915e-07,-1.8240369,-0.00980665,7.52170055,9e-08,0.0,0.0,0.0,9e-08,0.0,0.0,0.0,9e-08
1539875269891933288,735,1539875269891635400,base_link,0.126985848827,-0.22422350009,-0.942647761878,-0.212164118624,1.0,0.0,0.0,0.0,1.0,0.0,0.0,0.0,1.0,-0.123098865151,0.0198955852538,-0.204147383571,1.21846967915e-07,0.0,0.0,0.0,1.21846967915e-07,0.0,0.0,0.0,1.21846967915e-07,-1.95152335,0.784532,7.85512665,9e-08,0.0,0.0,0.0,9e-08,0.0,0.0,0.0,9e-08
1539875270203398728,736,1539875270203005288,base_link,0.140147762141,-0.190418481721,-0.943043370933,-0.234026936751,1.0,0.0,0.0,0.0,1.0,0.0,0.0,0.0,1.0,-0.29193392396,0.0110000269487,-0.166220605373,1.21846967915e-07,0.0,0.0,0.0,1.21846967915e-07,0.0,0.0,0.0,1.21846967915e-07,-2.0397832,0.59820565,9.9439431,9e-08,0.0,0.0,0.0,9e-08,0.0,0.0,0.0,9e-08
1539875270639318888,737,1539875270639058024,base_link,0.15758750485,-0.15229990864,-0.940055414708,-0.261279033643,1.0,0.0,0.0,0.0,1.0,0.0,0.0,0.0,1.0,-0.0961305350065,0.0105521995574,-0.168176576495,1.21846967915e-07,0.0,0.0,0.0,1.21846967915e-07,0.0,0.0,0.0,1.21846967915e-07,-2.20649625,0.9218251,9.0417313,9e-08,0.0,0.0,0.0,9e-08,0.0,0.0,0.0,9e-08
1539875270889297896,738,1539875270888875176,base_link,0.162353329531,-0.14239890961,-0.936229534169,-0.277197053161,1.0,0.0,0.0,0.0,1.0,0.0,0.0,0.0,1.0,0.000225169584155,-0.0124994572252,-0.117955900729,1.21846967915e-07,0.0,0.0,0.0,1.21846967915e-07,0.0,0.0,0.0,1.21846967915e-07,-2.2359162,0.22555295,9.52225715,9e-08,0.0,0.0,0.0,9e-08,0.0,0.0,0.0,9e-08
1539875271292992392,739,1539875271292666664,base_link,0.153735151968,-0.136037687708,-0.937131835704,-0.282211220689,1.0,0.0,0.0,0.0,1.0,0.0,0.0,0.0,1.0,-0.102218449116,-0.0628696829081,0.0273535586894,1.21846967915e-07,0.0,0.0,0.0,1.21846967915e-07,0.0,0.0,0.0,1.21846967915e-07,-2.2555295,0.51975245,9.7674234,9e-08,0.0,0.0,0.0,9e-08,0.0,0.0,0.0,9e-08
1539875271571082184,740,1539875271570811240,base_link,0.153925022427,-0.108622070745,-0.941279168283,-0.280181834841,1.0,0.0,0.0,0.0,1.0,0.0,0.0,0.0,1.0,-0.206506326795,-0.0460636839271,-0.0466124452651,1.21846967915e-07,0.0,0.0,0.0,1.21846967915e-07,0.0,0.0,0.0,1.21846967915e-07,-2.16726965,0.63743225,11.179581,9e-08,0.0,0.0,0.0,9e-08,0.0,0.0,0.0,9e-08
1539875272071611048,741,1539875272070871816,base_link,0.147871921783,-0.0953211647222,-0.938461713493,-0.29721605376,1.0,0.0,0.0,0.0,1.0,0.0,0.0,0.0,1.0,0.0999312475324,-0.0794302374125,-0.0959936305881,1.21846967915e-07,0.0,0.0,0.0,1.21846967915e-07,0.0,0.0,0.0,1.21846967915e-07,-2.3339827,0.63743225,9.5516771,9e-08,0.0,0.0,0.0,9e-08,0.0,0.0,0.0,9e-08
1539875272529220264,742,1539875272524749512,base_link,0.122621111089,-0.104690313857,-0.935648710588,-0.313951416106,1.0,0.0,0.0,0.0,1.0,0.0,0.0,0.0,1.0,0.244140431285,-0.0957159474492,-0.0170803293586,1.21846967915e-07,0.0,0.0,0.0,1.21846967915e-07,0.0,0.0,0.0,1.21846967915e-07,-2.4124359,0.0784532,11.38552065,9e-08,0.0,0.0,0.0,9e-08,0.0,0.0,0.0,9e-08
1539875272857964744,743,1539875272857674248,base_link,0.10811496085,-0.103997764325,-0.936312110433,-0.317514176238,1.0,0.0,0.0,0.0,1.0,0.0,0.0,0.0,1.0,0.0378667414188,-0.0764193236828,-0.00282262382098,1.21846967915e-07,0.0,0.0,0.0,1.21846967915e-07,0.0,0.0,0.0,1.21846967915e-07,-2.4320492,0.06864655,8.629852,9e-08,0.0,0.0,0.0,9e-08,0.0,0.0,0.0,9e-08
1539875273210581576,744,1539875273210246184,base_link,0.0912939005203,-0.0941354775417,-0.939026786358,-0.317856304166,1.0,0.0,0.0,0.0,1.0,0.0,0.0,0.0,1.0,-0.10171649605,-0.0592226870358,-0.0148396324366,1.21846967915e-07,0.0,0.0,0.0,1.21846967915e-07,0.0,0.0,0.0,1.21846967915e-07,-2.28494945,0.9218251,12.05237285,9e-08,0.0,0.0,0.0,9e-08,0.0,0.0,0.0,9e-08
1539875273576700456,745,1539875273576216552,base_link,0.0769294378093,-0.105745719339,-0.937771843175,-0.321688785301,1.0,0.0,0.0,0.0,1.0,0.0,0.0,0.0,1.0,0.0460039898753,-0.0180860795081,0.0324501991272,1.21846967915e-07,0.0,0.0,0.0,1.21846967915e-07,0.0,0.0,0.0,1.21846967915e-07,-2.02997655,0.4118793,12.79767825,9e-08,0.0,0.0,0.0,9e-08,0.0,0.0,0.0,9e-08
1539875273884901672,746,1539875273884023496,base_link,0.0778626683803,-0.103832022006,-0.940498283432,-0.314037091663,1.0,0.0,0.0,0.0,1.0,0.0,0.0,0.0,1.0,-0.413314461708,0.127992257476,-0.0628375634551,1.21846967915e-07,0.0,0.0,0.0,1.21846967915e-07,0.0,0.0,0.0,1.21846967915e-07,-2.02997655,1.8044236,9.4339973,9e-08,0.0,0.0,0.0,9e-08,0.0,0.0,0.0,9e-08
1539875274346990440,747,1539875274346499592,base_link,0.112110316063,-0.0394057191697,-0.934525178999,-0.335471542975,1.0,0.0,0.0,0.0,1.0,0.0,0.0,0.0,1.0,-0.31318962574,-0.0277979709208,-0.0973830968142,1.21846967915e-07,0.0,0.0,0.0,1.21846967915e-07,0.0,0.0,0.0,1.21846967915e-07,-2.1378497,-0.0392266,9.77723005,9e-08,0.0,0.0,0.0,9e-08,0.0,0.0,0.0,9e-08
1539875274689549832,748,1539875274689164744,base_link,0.0894688466298,-0.0477036396984,-0.938030973168,-0.331387358872,1.0,0.0,0.0,0.0,1.0,0.0,0.0,0.0,1.0,0.104517668486,-0.150897249579,0.0772241279483,1.21846967915e-07,0.0,0.0,0.0,1.21846967915e-07,0.0,0.0,0.0,1.21846967915e-07,-1.6475172,0.48052585,9.91452315,9e-08,0.0,0.0,0.0,9e-08,0.0,0.0,0.0,9e-08
1539875275091938760,749,1539875275091690600,base_link,0.043058814121,-0.039359436325,-0.94846919159,-0.311452991483,1.0,0.0,0.0,0.0,1.0,0.0,0.0,0.0,1.0,-0.0720074698329,-0.25142544508,0.157143071294,1.21846967915e-07,0.0,0.0,0.0,1.21846967915e-07,0.0,0.0,0.0,1.21846967915e-07,-0.9218251,0.5295591,13.6508568,9e-08,0.0,0.0,0.0,9e-08,0.0,0.0,0.0,9e-08
1539875275436743240,750,1539875275436482472,base_link,0.00942111592701,-0.00374340534092,-0.955105611464,-0.296092047245,1.0,0.0,0.0,0.0,1.0,0.0,0.0,0.0,1.0,-0.154945537448,-0.211017519236,0.0160575341433,1.21846967915e-07,0.0,0.0,0.0,1.21846967915e-07,0.0,0.0,0.0,1.21846967915e-07,-0.1765197,1.2160246,14.83746145,9e-08,0.0,0.0,0.0,9e-08,0.0,0.0,0.0,9e-08
1539875275954528680,751,1539875275954258376,base_link,-0.0497961100814,-0.0188504347515,-0.951183735276,-0.303997549788,1.0,0.0,0.0,0.0,1.0,0.0,0.0,0.0,1.0,0.157239153981,-0.181080266833,-0.0128362514079,1.21846967915e-07,0.0,0.0,0.0,1.21846967915e-07,0.0,0.0,0.0,1.21846967915e-07,0.4118793,0.4903325,15.102241,9e-08,0.0,0.0,0.0,9e-08,0.0,0.0,0.0,9e-08
1539875276402184808,752,1539875276399819848,base_link,-0.0820951075309,-0.0201875680283,-0.952526928732,-0.292481290782,1.0,0.0,0.0,0.0,1.0,0.0,0.0,0.0,1.0,-0.0379568710923,-0.0732932910323,0.0611473284662,1.21846967915e-07,0.0,0.0,0.0,1.21846967915e-07,0.0,0.0,0.0,1.21846967915e-07,0.46091255,0.65704555,12.4544455,9e-08,0.0,0.0,0.0,9e-08,0.0,0.0,0.0,9e-08
1539875276716242472,753,1539875276715902312,base_link,-0.0803159918232,0.000894226287265,-0.953315412351,-0.29109837923,1.0,0.0,0.0,0.0,1.0,0.0,0.0,0.0,1.0,-0.1074135378,0.00240402109921,-0.0269352011383,1.21846967915e-07,0.0,0.0,0.0,1.21846967915e-07,0.0,0.0,0.0,1.21846967915e-07,0.2745862,0.8433719,10.07142955,9e-08,0.0,0.0,0.0,9e-08,0.0,0.0,0.0,9e-08
1539875277047718472,754,1539875277047351176,base_link,-0.0761648074345,-0.00318650004512,-0.952023072496,-0.296379550175,1.0,0.0,0.0,0.0,1.0,0.0,0.0,0.0,1.0,0.0231361258775,0.0467845238745,-0.000228299060836,1.21846967915e-07,0.0,0.0,0.0,1.21846967915e-07,0.0,0.0,0.0,1.21846967915e-07,0.28439285,0.57859235,9.73800345,9e-08,0.0,0.0,0.0,9e-08,0.0,0.0,0.0,9e-08
1539875277404736520,755,1539875277404511528,base_link,-0.0666816828793,0.000759494204166,-0.954188614162,-0.291679730081,1.0,0.0,0.0,0.0,1.0,0.0,0.0,0.0,1.0,-0.270213663578,0.0472275838256,0.0676016360521,1.21846967915e-07,0.0,0.0,0.0,1.21846967915e-07,0.0,0.0,0.0,1.21846967915e-07,0.14709975,0.4511059,9.1005712,9e-08,0.0,0.0,0.0,9e-08,0.0,0.0,0.0,9e-08
1539875277862010312,756,1539875277861034088,base_link,-0.0485621749715,-0.00332687489028,-0.959492047698,-0.277498932376,1.0,0.0,0.0,0.0,1.0,0.0,0.0,0.0,1.0,0.415824621916,0.117279984057,0.0310227535665,1.21846967915e-07,0.0,0.0,0.0,1.21846967915e-07,0.0,0.0,0.0,1.21846967915e-07,0.53936575,0.6668522,7.2961476,9e-08,0.0,0.0,0.0,9e-08,0.0,0.0,0.0,9e-08
1539875278329137256,757,1539875278328681192,base_link,-0.0296356596359,-0.0117715159884,-0.959754440871,-0.279024322091,1.0,0.0,0.0,0.0,1.0,0.0,0.0,0.0,1.0,-0.162802904844,0.095690511167,-0.0188263319433,1.21846967915e-07,0.0,0.0,0.0,1.21846967915e-07,0.0,0.0,0.0,1.21846967915e-07,0.55897905,0.46091255,11.20900095,9e-08,0.0,0.0,0.0,9e-08,0.0,0.0,0.0,9e-08
1539875278731781352,758,1539875278731263144,base_link,-0.010760759784,-0.00727780313268,-0.961209483731,-0.275513281016,1.0,0.0,0.0,0.0,1.0,0.0,0.0,0.0,1.0,0.00946983322501,0.0223399028182,0.0523473955691,1.21846967915e-07,0.0,0.0,0.0,1.21846967915e-07,0.0,0.0,0.0,1.21846967915e-07,0.59820565,0.0196133,7.30595425,9e-08,0.0,0.0,0.0,9e-08,0.0,0.0,0.0,9e-08
1539875279055866088,759,1539875279055580232,base_link,-0.010931109463,-0.0203966281738,-0.963794560086,-0.265639858366,1.0,0.0,0.0,0.0,1.0,0.0,0.0,0.0,1.0,-0.0093878665939,-0.0100547466427,0.0729274600744,1.21846967915e-07,0.0,0.0,0.0,1.21846967915e-07,0.0,0.0,0.0,1.21846967915e-07,0.55897905,0.4511059,9.2770909,9e-08,0.0,0.0,0.0,9e-08,0.0,0.0,0.0,9e-08
1539875279455515464,760,1539875279455242312,base_link,-0.00851167520692,-0.0243068529512,-0.965698044699,-0.258387334733,1.0,0.0,0.0,0.0,1.0,0.0,0.0,0.0,1.0,0.150717839599,0.0212774928659,0.00133179058321,1.21846967915e-07,0.0,0.0,0.0,1.21846967915e-07,0.0,0.0,0.0,1.21846967915e-07,0.32361945,0.59820565,8.5317855,9e-08,0.0,0.0,0.0,9e-08,0.0,0.0,0.0,9e-08
1539875279857397704,761,1539875279857050280,base_link,-0.00745206055385,-0.0148896675076,-0.966715179088,-0.255312606652,1.0,0.0,0.0,0.0,1.0,0.0,0.0,0.0,1.0,-0.0576823092997,-0.0142710283399,0.0382844172418,1.21846967915e-07,0.0,0.0,0.0,1.21846967915e-07,0.0,0.0,0.0,1.21846967915e-07,0.40207265,0.8237586,9.67916355,9e-08,0.0,0.0,0.0,9e-08,0.0,0.0,0.0,9e-08
1539875280163214536,762,1539875280161817192,base_link,-0.0101330698297,-0.00642059288037,-0.96705526048,-0.254283739279,1.0,0.0,0.0,0.0,1.0,0.0,0.0,0.0,1.0,-0.0659915357828,-0.0369331799448,-0.00750968512148,1.21846967915e-07,0.0,0.0,0.0,1.21846967915e-07,0.0,0.0,0.0,1.21846967915e-07,0.71588545,0.71588545,10.62060195,9e-08,0.0,0.0,0.0,9e-08,0.0,0.0,0.0,9e-08
1539875280492574600,763,1539875280491503016,base_link,-0.0136596516172,-0.00430282174812,-0.965227223532,-0.261019743689,1.0,0.0,0.0,0.0,1.0,0.0,0.0,0.0,1.0,0.107751846313,-0.0110106775537,-0.0499090924859,1.21846967915e-07,0.0,0.0,0.0,1.21846967915e-07,0.0,0.0,0.0,1.21846967915e-07,0.55897905,0.8041453,9.80665,9e-08,0.0,0.0,0.0,9e-08,0.0,0.0,0.0,9e-08
1539875280763661768,764,1539875280762991848,base_link,-0.0237023399551,-0.025100050491,-0.962413609744,-0.269384911094,1.0,0.0,0.0,0.0,1.0,0.0,0.0,0.0,1.0,0.116246514022,-0.0402195975184,-0.0547430552542,1.21846967915e-07,0.0,0.0,0.0,1.21846967915e-07,0.0,0.0,0.0,1.21846967915e-07,0.6472389,0.81395195,10.7284751,9e-08,0.0,0.0,0.0,9e-08,0.0,0.0,0.0,9e-08
1539875281206422312,765,1539875281206194568,base_link,-0.0349208989024,-0.0293106873296,-0.959864742458,-0.276732886759,1.0,0.0,0.0,0.0,1.0,0.0,0.0,0.0,1.0,0.0864213481545,-0.0409577786922,-0.021144375205,1.21846967915e-07,0.0,0.0,0.0,1.21846967915e-07,0.0,0.0,0.0,1.21846967915e-07,0.6276256,0.67665885,9.99297635,9e-08,0.0,0.0,0.0,9e-08,0.0,0.0,0.0,9e-08
1539875281659146984,766,1539875281658872712,base_link,-0.050940159279,-0.0527036021606,-0.958294858603,-0.276221640113,1.0,0.0,0.0,0.0,1.0,0.0,0.0,0.0,1.0,-0.0226315986365,-0.00946725625545,0.0486607812345,1.21846967915e-07,0.0,0.0,0.0,1.21846967915e-07,0.0,0.0,0.0,1.21846967915e-07,0.95124505,0.46091255,10.8853815,9e-08,0.0,0.0,0.0,9e-08,0.0,0.0,0.0,9e-08
1539875282071435016,767,1539875282069639144,base_link,-0.0421674921788,-0.0339466281618,-0.959789940033,-0.275450177075,1.0,0.0,0.0,0.0,1.0,0.0,0.0,0.0,1.0,-0.0230139214545,0.0410960055888,-0.0287697352469,1.21846967915e-07,0.0,0.0,0.0,1.21846967915e-07,0.0,0.0,0.0,1.21846967915e-07,0.83356525,0.7256921,9.4536106,9e-08,0.0,0.0,0.0,9e-08,0.0,0.0,0.0,9e-08
1539875282327584232,768,1539875282326850472,base_link,-0.0407100782243,-0.0399670323371,-0.958806625804,-0.278271773939,1.0,0.0,0.0,0.0,1.0,0.0,0.0,0.0,1.0,0.0226280912757,0.0275374054909,-0.00241109076887,1.21846967915e-07,0.0,0.0,0.0,1.21846967915e-07,0.0,0.0,0.0,1.21846967915e-07,1.01008495,0.55897905,9.1005712,9e-08,0.0,0.0,0.0,9e-08,0.0,0.0,0.0,9e-08
1539875282643084744,769,1539875282642696904,base_link,-0.0392880569053,-0.0422079555197,-0.959645201869,-0.275238121642,1.0,0.0,0.0,0.0,1.0,0.0,0.0,0.0,1.0,-0.0171117950231,0.0254170987755,0.0129974894226,1.21846967915e-07,0.0,0.0,0.0,1.21846967915e-07,0.0,0.0,0.0,1.21846967915e-07,0.980665,0.6276256,10.3165958,9e-08,0.0,0.0,0.0,9e-08,0.0,0.0,0.0,9e-08
1539875282977058632,770,1539875282976405224,base_link,-0.0365892163247,-0.0418924728034,-0.95934299838,-0.27670789911,1.0,0.0,0.0,0.0,1.0,0.0,0.0,0.0,1.0,0.0428085178137,0.00977410376072,-0.0166793838143,1.21846967915e-07,0.0,0.0,0.0,1.21846967915e-07,0.0,0.0,0.0,1.21846967915e-07,1.0198916,0.588399,10.97364135,9e-08,0.0,0.0,0.0,9e-08,0.0,0.0,0.0,9e-08
1539875283391025704,771,1539875283388358952,base_link,-0.0407734569485,-0.0599709804164,-0.956287313518,-0.283294159347,1.0,0.0,0.0,0.0,1.0,0.0,0.0,0.0,1.0,0.18041908741,0.00368436751887,-0.0219936724752,1.21846967915e-07,0.0,0.0,0.0,1.21846967915e-07,0.0,0.0,0.0,1.21846967915e-07,0.9610517,0.4118793,10.85596155,9e-08,0.0,0.0,0.0,9e-08,0.0,0.0,0.0,9e-08
1539875283748570728,772,1539875283747991944,base_link,-0.050226662029,-0.0889854483785,-0.951472966199,-0.290272401359,1.0,0.0,0.0,0.0,1.0,0.0,0.0,0.0,1.0,0.0698023214936,-0.0144753837958,-0.0658580511808,1.21846967915e-07,0.0,0.0,0.0,1.21846967915e-07,0.0,0.0,0.0,1.21846967915e-07,0.83356525,0.5099458,9.83606995,9e-08,0.0,0.0,0.0,9e-08,0.0,0.0,0.0,9e-08
1539875284119364008,773,1539875284110837128,base_link,-0.0583333334255,-0.111664350154,-0.945791291218,-0.299344498149,1.0,0.0,0.0,0.0,1.0,0.0,0.0,0.0,1.0,0.0698152333498,-0.0159913375974,-0.0752733796835,1.21846967915e-07,0.0,0.0,0.0,1.21846967915e-07,0.0,0.0,0.0,1.21846967915e-07,0.6668522,0.93163175,10.4538889,9e-08,0.0,0.0,0.0,9e-08,0.0,0.0,0.0,9e-08
1539875284534922088,774,1539875284534572680,base_link,-0.065423633775,-0.132027633898,-0.937546786725,-0.315110258057,1.0,0.0,0.0,0.0,1.0,0.0,0.0,0.0,1.0,0.10516897589,-0.000356060336344,-0.129137158394,1.21846967915e-07,0.0,0.0,0.0,1.21846967915e-07,0.0,0.0,0.0,1.21846967915e-07,0.7256921,1.1964113,10.62060195,9e-08,0.0,0.0,0.0,9e-08,0.0,0.0,0.0,9e-08
1539875284845580520,775,1539875284845336520,base_link,-0.0794971534701,-0.185983611262,-0.918209828126,-0.340559848579,1.0,0.0,0.0,0.0,1.0,0.0,0.0,0.0,1.0,0.781774163246,-0.0299423485994,-0.274265557528,1.21846967915e-07,0.0,0.0,0.0,1.21846967915e-07,0.0,0.0,0.0,1.21846967915e-07,0.59820565,0.5491724,10.2577559,9e-08,0.0,0.0,0.0,9e-08,0.0,0.0,0.0,9e-08
1539875285292567176,776,1539875285292084008,base_link,-0.149940870421,-0.298597257327,-0.865920923771,-0.372207424792,1.0,0.0,0.0,0.0,1.0,0.0,0.0,0.0,1.0,0.365198045969,-0.224161699414,-0.103622481227,1.21846967915e-07,0.0,0.0,0.0,1.21846967915e-07,0.0,0.0,0.0,1.21846967915e-07,0.71588545,0.83356525,11.7483667,9e-08,0.0,0.0,0.0,9e-08,0.0,0.0,0.0,9e-08
1539875285743404552,777,1539875285743162728,base_link,-0.181501952199,-0.302567361142,-0.837355395123,-0.417547572833,1.0,0.0,0.0,0.0,1.0,0.0,0.0,0.0,1.0,-0.0682959407568,-0.163288623095,-0.279196381569,1.21846967915e-07,0.0,0.0,0.0,1.21846967915e-07,0.0,0.0,0.0,1.21846967915e-07,0.7649187,1.55925735,11.24822755,9e-08,0.0,0.0,0.0,9e-08,0.0,0.0,0.0,9e-08
1539875286038434600,778,1539875286038207976,base_link,-0.185127587935,-0.293786656734,-0.812946915531,-0.467476725666,1.0,0.0,0.0,0.0,1.0,0.0,0.0,0.0,1.0,-0.0348868705332,-0.167702645063,-0.367594480515,1.21846967915e-07,0.0,0.0,0.0,1.21846967915e-07,0.0,0.0,0.0,1.21846967915e-07,0.71588545,1.6279039,9.71839015,9e-08,0.0,0.0,0.0,9e-08,0.0,0.0,0.0,9e-08
1539875286432341288,779,1539875286429527272,base_link,-0.194467038791,-0.290795936323,-0.770687255279,-0.532598769049,1.0,0.0,0.0,0.0,1.0,0.0,0.0,0.0,1.0,0.000722251366824,-0.229599833488,-0.387475460768,1.21846967915e-07,0.0,0.0,0.0,1.21846967915e-07,0.0,0.0,0.0,1.21846967915e-07,0.51975245,1.1375714,11.4541672,9e-08,0.0,0.0,0.0,9e-08,0.0,0.0,0.0,9e-08
1539875286847514024,780,1539875286847267272,base_link,-0.233844760402,-0.27845382514,-0.720867050257,-0.590026093619,1.0,0.0,0.0,0.0,1.0,0.0,0.0,0.0,1.0,-0.0504061765969,-0.281727820635,-0.209981247783,1.21846967915e-07,0.0,0.0,0.0,1.21846967915e-07,0.0,0.0,0.0,1.21846967915e-07,0.9610517,1.30428445,12.69961175,9e-08,0.0,0.0,0.0,9e-08,0.0,0.0,0.0,9e-08
1539875287245849736,781,1539875287245593576,base_link,-0.251382039062,-0.253450824607,-0.675502802717,-0.645186572601,1.0,0.0,0.0,0.0,1.0,0.0,0.0,0.0,1.0,0.02374618873,-0.260745435953,-0.311748325825,1.21846967915e-07,0.0,0.0,0.0,1.21846967915e-07,0.0,0.0,0.0,1.21846967915e-07,0.95124505,1.52003075,12.40541225,9e-08,0.0,0.0,0.0,9e-08,0.0,0.0,0.0,9e-08
1539875287632564040,782,1539875287632251176,base_link,-0.272435644306,-0.244923582499,-0.613719240164,-0.6993854107,1.0,0.0,0.0,0.0,1.0,0.0,0.0,0.0,1.0,0.046722650528,-0.274127274752,-0.359514206648,1.21846967915e-07,0.0,0.0,0.0,1.21846967915e-07,0.0,0.0,0.0,1.21846967915e-07,0.48052585,1.2748645,11.42474725,9e-08,0.0,0.0,0.0,9e-08,0.0,0.0,0.0,9e-08
1539875287955645480,783,1539875287955380648,base_link,-0.29507312267,-0.228946694565,-0.559561658802,-0.739868916312,1.0,0.0,0.0,0.0,1.0,0.0,0.0,0.0,1.0,0.0248583462089,-0.305320411921,-0.290693104267,1.21846967915e-07,0.0,0.0,0.0,1.21846967915e-07,0.0,0.0,0.0,1.21846967915e-07,0.5295591,1.12776475,13.30762405,9e-08,0.0,0.0,0.0,9e-08,0.0,0.0,0.0,9e-08
1539875288255872808,784,1539875288255605480,base_link,-0.315245451059,-0.201133329617,-0.514408710509,-0.771718451157,1.0,0.0,0.0,0.0,1.0,0.0,0.0,0.0,1.0,-0.0392492190003,-0.324445188046,-0.242004111409,1.21846967915e-07,0.0,0.0,0.0,1.21846967915e-07,0.0,0.0,0.0,1.21846967915e-07,0.73549875,1.3533177,14.4353888,9e-08,0.0,0.0,0.0,9e-08,0.0,0.0,0.0,9e-08
1539875288752824616,785,1539875288752518216,base_link,-0.338084298154,-0.161040337136,-0.429101728469,-0.821971242673,1.0,0.0,0.0,0.0,1.0,0.0,0.0,0.0,1.0,-0.0460430793464,-0.277394264936,-0.311603993177,1.21846967915e-07,0.0,0.0,0.0,1.21846967915e-07,0.0,0.0,0.0,1.21846967915e-07,0.40207265,1.2160246,12.62115855,9e-08,0.0,0.0,0.0,9e-08,0.0,0.0,0.0,9e-08
1539875289120019176,786,1539875289119568936,base_link,-0.361133850658,-0.144096947067,-0.360002231455,-0.848066509834,1.0,0.0,0.0,0.0,1.0,0.0,0.0,0.0,1.0,0.0628372058272,-0.279527246952,-0.298583298922,1.21846967915e-07,0.0,0.0,0.0,1.21846967915e-07,0.0,0.0,0.0,1.21846967915e-07,0.34323275,1.0983448,12.6309652,9e-08,0.0,0.0,0.0,9e-08,0.0,0.0,0.0,9e-08
1539875289572280616,787,1539875289572034472,base_link,-0.359129576025,-0.10950070671,-0.287513852682,-0.881119360456,1.0,0.0,0.0,0.0,1.0,0.0,0.0,0.0,1.0,-0.204080745578,-0.24428974092,-0.316186368465,1.21846967915e-07,0.0,0.0,0.0,1.21846967915e-07,0.0,0.0,0.0,1.21846967915e-07,0.4903325,1.32389775,12.69961175,9e-08,0.0,0.0,0.0,9e-08,0.0,0.0,0.0,9e-08
1539875289851807464,788,1539875289851464040,base_link,-0.349742407347,-0.0892160035765,-0.231539218194,-0.903388257421,1.0,0.0,0.0,0.0,1.0,0.0,0.0,0.0,1.0,-0.0275923423469,-0.237472176552,-0.322069734335,1.21846967915e-07,0.0,0.0,0.0,1.21846967915e-07,0.0,0.0,0.0,1.21846967915e-07,0.36284605,0.9414384,12.34657235,9e-08,0.0,0.0,0.0,9e-08,0.0,0.0,0.0,9e-08
1539875290285005896,789,1539875290284785224,base_link,-0.364514254423,-0.06650058104,-0.159226312182,-0.915070495947,1.0,0.0,0.0,0.0,1.0,0.0,0.0,0.0,1.0,-0.0455814376473,-0.253601580858,-0.26217213273,1.21846967915e-07,0.0,0.0,0.0,1.21846967915e-07,0.0,0.0,0.0,1.21846967915e-07,0.1176798,1.20621795,11.50320045,9e-08,0.0,0.0,0.0,9e-08,0.0,0.0,0.0,9e-08
1539875290665810376,790,1539875290665448136,base_link,-0.372841285862,-0.0391730683892,-0.092445553888,-0.922447107338,1.0,0.0,0.0,0.0,1.0,0.0,0.0,0.0,1.0,0.112810187042,-0.264683693647,-0.269407838583,1.21846967915e-07,0.0,0.0,0.0,1.21846967915e-07,0.0,0.0,0.0,1.21846967915e-07,0.18632635,1.01008495,12.6898051,9e-08,0.0,0.0,0.0,9e-08,0.0,0.0,0.0,9e-08
1539875291102086312,791,1539875291100642312,base_link,-0.394784151562,-0.00285287589339,-0.0163830447816,-0.918623388891,1.0,0.0,0.0,0.0,1.0,0.0,0.0,0.0,1.0,-0.047215230763,-0.24901664257,-0.287213385105,1.21846967915e-07,0.0,0.0,0.0,1.21846967915e-07,0.0,0.0,0.0,1.21846967915e-07,0.32361945,1.69655045,12.1994726,9e-08,0.0,0.0,0.0,9e-08,0.0,0.0,0.0,9e-08
1539875291472850280,792,1539875291472594216,base_link,-0.375740072197,0.01396842337,0.057867147112,-0.924811156171,1.0,0.0,0.0,0.0,1.0,0.0,0.0,0.0,1.0,-0.215352982283,-0.235257998109,-0.311436802149,1.21846967915e-07,0.0,0.0,0.0,1.21846967915e-07,0.0,0.0,0.0,1.21846967915e-07,0.588399,0.9610517,11.42474725,9e-08,0.0,0.0,0.0,9e-08,0.0,0.0,0.0,9e-08
1539875291942166600,793,1539875291941726024,base_link,-0.319105448783,0.0384408611948,0.135258639568,-0.937229487996,1.0,0.0,0.0,0.0,1.0,0.0,0.0,0.0,1.0,-0.372482866049,-0.22677308321,-0.232793807983,1.21846967915e-07,0.0,0.0,0.0,1.21846967915e-07,0.0,0.0,0.0,1.21846967915e-07,0.4314926,1.3140911,13.07226445,9e-08,0.0,0.0,0.0,9e-08,0.0,0.0,0.0,9e-08
1539875292446280104,794,1539875292445957128,base_link,-0.230153444394,0.0567987204961,0.20168846272,-0.950328922736,1.0,0.0,0.0,0.0,1.0,0.0,0.0,0.0,1.0,-0.190464019775,-0.164837509394,-0.15564379096,1.21846967915e-07,0.0,0.0,0.0,1.21846967915e-07,0.0,0.0,0.0,1.21846967915e-07,0.0392266,1.26505785,11.9837263,9e-08,0.0,0.0,0.0,9e-08,0.0,0.0,0.0,9e-08
1539875292815866152,795,1539875292812753480,base_link,-0.180028152179,0.0575397772932,0.24073390409,-0.952011673181,1.0,0.0,0.0,0.0,1.0,0.0,0.0,0.0,1.0,-0.259882748127,-0.0555809214711,-0.291752934456,1.21846967915e-07,0.0,0.0,0.0,1.21846967915e-07,0.0,0.0,0.0,1.21846967915e-07,0.10787315,1.93191005,12.32695905,9e-08,0.0,0.0,0.0,9e-08,0.0,0.0,0.0,9e-08
1539875293199156520,796,1539875293198971816,base_link,-0.17269654969,0.0632739183649,0.299844969987,-0.93609043738,1.0,0.0,0.0,0.0,1.0,0.0,0.0,0.0,1.0,0.278558164835,-0.14767177403,-0.261806130409,1.21846967915e-07,0.0,0.0,0.0,1.21846967915e-07,0.0,0.0,0.0,1.21846967915e-07,0.14709975,0.38245935,9.022118,9e-08,0.0,0.0,0.0,9e-08,0.0,0.0,0.0,9e-08
1539875293488298568,797,1539875293488049256,base_link,-0.207564623108,0.0939722578848,0.326445961429,-0.917343543199,1.0,0.0,0.0,0.0,1.0,0.0,0.0,0.0,1.0,0.252176582813,-0.173493877053,-0.122425623238,1.21846967915e-07,0.0,0.0,0.0,1.21846967915e-07,0.0,0.0,0.0,1.21846967915e-07,0.02941995,0.588399,12.87613145,9e-08,0.0,0.0,0.0,9e-08,0.0,0.0,0.0,9e-08
1539875293771748584,798,1539875293771493864,base_link,-0.215813508379,0.117154281205,0.343703430252,-0.906403528253,1.0,0.0,0.0,0.0,1.0,0.0,0.0,0.0,1.0,0.0521165207028,-0.153695702553,-0.12509123981,1.21846967915e-07,0.0,0.0,0.0,1.21846967915e-07,0.0,0.0,0.0,1.21846967915e-07,0.4118793,0.71588545,12.15043935,9e-08,0.0,0.0,0.0,9e-08,0.0,0.0,0.0,9e-08
1539875294198936360,799,1539875294198741064,base_link,-0.228203146742,0.143357248543,0.379119773198,-0.88523455687,1.0,0.0,0.0,0.0,1.0,0.0,0.0,0.0,1.0,0.0873867496848,-0.101426124573,-0.210692882538,1.21846967915e-07,0.0,0.0,0.0,1.21846967915e-07,0.0,0.0,0.0,1.21846967915e-07,0.3530394,1.36312435,10.99325465,9e-08,0.0,0.0,0.0,9e-08,0.0,0.0,0.0,9e-08
1539875294593888008,800,1539875294593682984,base_link,-0.240840201191,0.157565757519,0.427169233905,-0.857143789077,1.0,0.0,0.0,0.0,1.0,0.0,0.0,0.0,1.0,0.0984031111002,-0.113286584616,-0.278478294611,1.21846967915e-07,0.0,0.0,0.0,1.21846967915e-07,0.0,0.0,0.0,1.21846967915e-07,0.59820565,0.99047165,10.62060195,9e-08,0.0,0.0,0.0,9e-08,0.0,0.0,0.0,9e-08
1539875294976761032,801,1539875294975771240,base_link,-0.244924635282,0.170657684175,0.471958387014,-0.829543946269,1.0,0.0,0.0,0.0,1.0,0.0,0.0,0.0,1.0,0.13581456244,-0.152164176106,-0.267157375813,1.21846967915e-07,0.0,0.0,0.0,1.21846967915e-07,0.0,0.0,0.0,1.21846967915e-07,0.6864655,1.0198916,10.28717585,9e-08,0.0,0.0,0.0,9e-08,0.0,0.0,0.0,9e-08
1539875295318469256,802,1539875295318201832,base_link,-0.257763990841,0.20344051197,0.512204057511,-0.79360990832,1.0,0.0,0.0,0.0,1.0,0.0,0.0,0.0,1.0,0.230904087424,-0.232919454575,-0.214452072978,1.21846967915e-07,0.0,0.0,0.0,1.21846967915e-07,0.0,0.0,0.0,1.21846967915e-07,0.97085835,0.91201845,13.1605243,9e-08,0.0,0.0,0.0,9e-08,0.0,0.0,0.0,9e-08
1539875295652040904,803,1539875295651791976,base_link,-0.259793769939,0.241607745915,0.544384261102,-0.760117537279,1.0,0.0,0.0,0.0,1.0,0.0,0.0,0.0,1.0,-0.0304383598268,-0.257688820362,-0.198476314545,1.21846967915e-07,0.0,0.0,0.0,1.21846967915e-07,0.0,0.0,0.0,1.21846967915e-07,1.3925443,1.30428445,12.4740588,9e-08,0.0,0.0,0.0,9e-08,0.0,0.0,0.0,9e-08
1539875296095267624,804,1539875296092326664,base_link,-0.233345530569,0.261568719218,0.598775256592,-0.720138778697,1.0,0.0,0.0,0.0,1.0,0.0,0.0,0.0,1.0,-0.112844772637,-0.226501867175,-0.271665424109,1.21846967915e-07,0.0,0.0,0.0,1.21846967915e-07,0.0,0.0,0.0,1.21846967915e-07,1.8044236,1.5494507,12.30734575,9e-08,0.0,0.0,0.0,9e-08,0.0,0.0,0.0,9e-08
1539875296465673448,805,1539875296465412552,base_link,-0.203232834146,0.260358957402,0.650997112845,-0.683456207443,1.0,0.0,0.0,0.0,1.0,0.0,0.0,0.0,1.0,-0.203277781606,-0.221378207207,-0.252621591091,1.21846967915e-07,0.0,0.0,0.0,1.21846967915e-07,0.0,0.0,0.0,1.21846967915e-07,1.6475172,1.2944778,11.9837263,9e-08,0.0,0.0,0.0,9e-08,0.0,0.0,0.0,9e-08
1539875296848882696,806,1539875296846219656,base_link,0.160082748867,-0.254717035675,-0.70155866491,0.645993951165,1.0,0.0,0.0,0.0,1.0,0.0,0.0,0.0,1.0,-0.234644517303,-0.237873718143,-0.215593323112,1.21846967915e-07,0.0,0.0,0.0,1.21846967915e-07,0.0,0.0,0.0,1.21846967915e-07,1.0395049,1.5494507,12.99381125,9e-08,0.0,0.0,0.0,9e-08,0.0,0.0,0.0,9e-08
1539875297179778856,807,1539875297179519080,base_link,0.122969601729,-0.241799657086,-0.73752511042,0.618440065312,1.0,0.0,0.0,0.0,1.0,0.0,0.0,0.0,1.0,-0.333485841751,-0.156427308917,-0.214825481176,1.21846967915e-07,0.0,0.0,0.0,1.21846967915e-07,0.0,0.0,0.0,1.21846967915e-07,0.93163175,1.6082906,12.3759923,9e-08,0.0,0.0,0.0,9e-08,0.0,0.0,0.0,9e-08
1539875297583710056,808,1539875297583120968,base_link,0.0777149434942,-0.200797161413,-0.783391387473,0.583042727044,1.0,0.0,0.0,0.0,1.0,0.0,0.0,0.0,1.0,-0.184830188751,-0.104949995875,-0.225819498301,1.21846967915e-07,0.0,0.0,0.0,1.21846967915e-07,0.0,0.0,0.0,1.21846967915e-07,0.8433719,0.8433719,11.4541672,9e-08,0.0,0.0,0.0,9e-08,0.0,0.0,0.0,9e-08
1539875297809567944,809,1539875297807392680,base_link,0.0603380004476,-0.189022036885,-0.800973969313,0.564863431067,1.0,0.0,0.0,0.0,1.0,0.0,0.0,0.0,1.0,-0.272297769785,-0.108749344945,-0.174027949572,1.21846967915e-07,0.0,0.0,0.0,1.21846967915e-07,0.0,0.0,0.0,1.21846967915e-07,0.8629852,0.7649187,11.30706745,9e-08,0.0,0.0,0.0,9e-08,0.0,0.0,0.0,9e-08
1539875298141922120,810,1539875298141653320,base_link,0.0228563841552,-0.152478439855,-0.82255473205,0.547386174346,1.0,0.0,0.0,0.0,1.0,0.0,0.0,0.0,1.0,-0.354687780142,-0.0383846051991,-0.0865997970104,1.21846967915e-07,0.0,0.0,0.0,1.21846967915e-07,0.0,0.0,0.0,1.21846967915e-07,0.42168595,0.99047165,10.1204628,9e-08,0.0,0.0,0.0,9e-08,0.0,0.0,0.0,9e-08
1539875298618261416,811,1539875298617961416,base_link,-0.0256627927398,-0.0842468301186,-0.84438136601,0.528454351311,1.0,0.0,0.0,0.0,1.0,0.0,0.0,0.0,1.0,-0.225321888924,-0.0265827327967,-0.0322245247662,1.21846967915e-07,0.0,0.0,0.0,1.21846967915e-07,0.0,0.0,0.0,1.21846967915e-07,0.69627215,0.63743225,11.4345539,9e-08,0.0,0.0,0.0,9e-08,0.0,0.0,0.0,9e-08
1539875299044713384,812,1539875299044477992,base_link,-0.0403960111369,-0.0563980237483,-0.847764069415,0.525816990796,1.0,0.0,0.0,0.0,1.0,0.0,0.0,0.0,1.0,-0.166509181261,0.0435814298689,0.0172875337303,1.21846967915e-07,0.0,0.0,0.0,1.21846967915e-07,0.0,0.0,0.0,1.21846967915e-07,0.57859235,0.67665885,10.30678915,9e-08,0.0,0.0,0.0,9e-08,0.0,0.0,0.0,9e-08
1539875299371782536,813,1539875299371510024,base_link,-0.0380483703312,-0.0335644949362,-0.847245702546,0.528772603028,1.0,0.0,0.0,0.0,1.0,0.0,0.0,0.0,1.0,-0.140114873648,0.105337806046,0.0181745775044,1.21846967915e-07,0.0,0.0,0.0,1.21846967915e-07,0.0,0.0,0.0,1.21846967915e-07,0.3138128,0.44129925,9.34573745,9e-08,0.0,0.0,0.0,9e-08,0.0,0.0,0.0,9e-08
1539875299842950856,814,1539875299842683912,base_link,-0.027183463578,-0.00494994502532,-0.849595518108,0.526710559001,1.0,0.0,0.0,0.0,1.0,0.0,0.0,0.0,1.0,-0.0853591859341,0.126919478178,-0.00582045782357,1.21846967915e-07,0.0,0.0,0.0,1.21846967915e-07,0.0,0.0,0.0,1.21846967915e-07,0.3530394,0.42168595,9.414384,9e-08,0.0,0.0,0.0,9e-08,0.0,0.0,0.0,9e-08
1539875300153901864,815,1539875300153491816,base_link,-0.0235952372941,0.0297083569397,-0.84597709053,0.531867878898,1.0,0.0,0.0,0.0,1.0,0.0,0.0,0.0,1.0,-0.182824194431,0.123739786446,0.0566472746432,1.21846967915e-07,0.0,0.0,0.0,1.21846967915e-07,0.0,0.0,0.0,1.21846967915e-07,-0.0196133,0.69627215,7.14904785,9e-08,0.0,0.0,0.0,9e-08,0.0,0.0,0.0,9e-08
1539875300577960552,816,1539875300575290184,base_link,-0.0124778886907,0.0425090580959,-0.844024681495,0.534471345632,1.0,0.0,0.0,0.0,1.0,0.0,0.0,0.0,1.0,0.0947277918458,0.0263859182596,0.0173797942698,1.21846967915e-07,0.0,0.0,0.0,1.21846967915e-07,0.0,0.0,0.0,1.21846967915e-07,0.2549729,0.1372931,8.6494653,9e-08,0.0,0.0,0.0,9e-08,0.0,0.0,0.0,9e-08
1539875300905369896,817,1539875300904942728,base_link,0.00567137915709,0.0218916862635,-0.837850954509,0.545430442457,1.0,0.0,0.0,0.0,1.0,0.0,0.0,0.0,1.0,0.114361315966,0.0110314637423,0.098208270967,1.21846967915e-07,0.0,0.0,0.0,1.21846967915e-07,0.0,0.0,0.0,1.21846967915e-07,0.26477955,0.50013915,9.69877685,9e-08,0.0,0.0,0.0,9e-08,0.0,0.0,0.0,9e-08
1539875301361996680,818,1539875301360852040,base_link,0.00766921314931,0.0209274342531,-0.824604061933,0.565271055962,1.0,0.0,0.0,0.0,1.0,0.0,0.0,0.0,1.0,-0.0411775819957,-0.00308597367257,0.0742410495877,1.21846967915e-07,0.0,0.0,0.0,1.21846967915e-07,0.0,0.0,0.0,1.21846967915e-07,0.2157463,0.85317855,10.14988275,9e-08,0.0,0.0,0.0,9e-08,0.0,0.0,0.0,9e-08
1539875301686887528,819,1539875301686634344,base_link,0.0143997966962,0.0118077556217,-0.822593744306,0.568324515211,1.0,0.0,0.0,0.0,1.0,0.0,0.0,0.0,1.0,0.0924914106727,-0.0224606376141,-0.0114575773478,1.21846967915e-07,0.0,0.0,0.0,1.21846967915e-07,0.0,0.0,0.0,1.21846967915e-07,0.5491724,0.6668522,10.03220295,9e-08,0.0,0.0,0.0,9e-08,0.0,0.0,0.0,9e-08
1539875301980244296,820,1539875301979785224,base_link,0.0123065819894,0.00622824000688,-0.820784064976,0.571072040769,1.0,0.0,0.0,0.0,1.0,0.0,0.0,0.0,1.0,-0.0486564673483,-0.0447311885655,0.0405435226858,1.21846967915e-07,0.0,0.0,0.0,1.21846967915e-07,0.0,0.0,0.0,1.21846967915e-07,0.3334261,0.51975245,11.5914603,9e-08,0.0,0.0,0.0,9e-08,0.0,0.0,0.0,9e-08
1539875302503773832,821,1539875302503352328,base_link,0.0112093253307,-0.00677802347708,-0.811997898517,0.583513343658,1.0,0.0,0.0,0.0,1.0,0.0,0.0,0.0,1.0,0.0612625367939,-0.0534015856683,0.037614248693,1.21846967915e-07,0.0,0.0,0.0,1.21846967915e-07,0.0,0.0,0.0,1.21846967915e-07,0.44129925,0.588399,11.2188076,9e-08,0.0,0.0,0.0,9e-08,0.0,0.0,0.0,9e-08
1539875302923071656,822,1539875302922572488,base_link,0.00607229448507,-0.014602337322,-0.807043397722,0.590280317457,1.0,0.0,0.0,0.0,1.0,0.0,0.0,0.0,1.0,-0.0371051430702,-0.0242174454033,0.0323571786284,1.21846967915e-07,0.0,0.0,0.0,1.21846967915e-07,0.0,0.0,0.0,1.21846967915e-07,0.75511205,0.57859235,10.91480145,9e-08,0.0,0.0,0.0,9e-08,0.0,0.0,0.0,9e-08
1539875303342478440,823,1539875303342143112,base_link,0.00504458575291,-0.023328256292,-0.806534792332,0.590704641399,1.0,0.0,0.0,0.0,1.0,0.0,0.0,0.0,1.0,0.0347899384797,-0.0349604487419,-0.0030651204288,1.21846967915e-07,0.0,0.0,0.0,1.21846967915e-07,0.0,0.0,0.0,1.21846967915e-07,0.63743225,0.588399,10.4735022,9e-08,0.0,0.0,0.0,9e-08,0.0,0.0,0.0,9e-08
1539875303741643720,824,1539875303740530376,base_link,0.00169015825424,-0.0400431332042,-0.804375162872,0.592768325911,1.0,0.0,0.0,0.0,1.0,0.0,0.0,0.0,1.0,0.120750434697,-0.0447603724897,0.0535919703543,1.21846967915e-07,0.0,0.0,0.0,1.21846967915e-07,0.0,0.0,0.0,1.21846967915e-07,0.5295591,0.69627215,12.3759923,9e-08,0.0,0.0,0.0,9e-08,0.0,0.0,0.0,9e-08
1539875304164507688,825,1539875304161304680,base_link,0.00466452175445,-0.05064152143,-0.797121585362,0.60167338041,1.0,0.0,0.0,0.0,1.0,0.0,0.0,0.0,1.0,0.199284419417,0.0460407845676,0.0210584178567,1.21846967915e-07,0.0,0.0,0.0,1.21846967915e-07,0.0,0.0,0.0,1.21846967915e-07,0.34323275,0.7060788,10.0616229,9e-08,0.0,0.0,0.0,9e-08,0.0,0.0,0.0,9e-08
1539875304430848264,826,1539875304430483944,base_link,0.0201563802653,-0.0702667766993,-0.797126921397,0.599370479429,1.0,0.0,0.0,0.0,1.0,0.0,0.0,0.0,1.0,0.157658427954,0.0135333007202,-0.00789499469101,1.21846967915e-07,0.0,0.0,0.0,1.21846967915e-07,0.0,0.0,0.0,1.21846967915e-07,0.4314926,0.4314926,10.34601575,9e-08,0.0,0.0,0.0,9e-08,0.0,0.0,0.0,9e-08
1539875304867091944,827,1539875304866820712,base_link,0.0511654770076,-0.110202964995,-0.791323339278,0.599203448908,1.0,0.0,0.0,0.0,1.0,0.0,0.0,0.0,1.0,0.0850852131844,0.0254760924727,0.0341849587858,1.21846967915e-07,0.0,0.0,0.0,1.21846967915e-07,0.0,0.0,0.0,1.21846967915e-07,0.22555295,0.6668522,8.36507245,9e-08,0.0,0.0,0.0,9e-08,0.0,0.0,0.0,9e-08
1539875305258266568,828,1539875305252684360,base_link,0.0559196745718,-0.0846244620061,-0.795369239697,0.597577997394,1.0,0.0,0.0,0.0,1.0,0.0,0.0,0.0,1.0,-0.218100085855,0.140571117401,-0.0823692977428,1.21846967915e-07,0.0,0.0,0.0,1.21846967915e-07,0.0,0.0,0.0,1.21846967915e-07,0.08825985,0.69627215,5.75650355,9e-08,0.0,0.0,0.0,9e-08,0.0,0.0,0.0,9e-08
1539875305617945416,829,1539875305617394312,base_link,0.0552539344254,-0.0538381227519,-0.80692650323,0.585592074446,1.0,0.0,0.0,0.0,1.0,0.0,0.0,0.0,1.0,0.0105154309422,0.0338937714696,-0.100400537252,1.21846967915e-07,0.0,0.0,0.0,1.21846967915e-07,0.0,0.0,0.0,1.21846967915e-07,0.10787315,0.55897905,9.3555441,9e-08,0.0,0.0,0.0,9e-08,0.0,0.0,0.0,9e-08
1539875306011506696,830,1539875306011102184,base_link,0.0774244935345,-0.0744600684404,-0.810357020515,0.57600576847,1.0,0.0,0.0,0.0,1.0,0.0,0.0,0.0,1.0,0.319814145565,0.0423885509372,-0.0620956197381,1.21846967915e-07,0.0,0.0,0.0,1.21846967915e-07,0.0,0.0,0.0,1.21846967915e-07,0.28439285,0.6864655,9.4536106,9e-08,0.0,0.0,0.0,9e-08,0.0,0.0,0.0,9e-08
1539875306459735016,831,1539875306451504936,base_link,0.117405451184,-0.137119845721,-0.817531800207,0.54686000365,1.0,0.0,0.0,0.0,1.0,0.0,0.0,0.0,1.0,0.363409489393,-0.069855183363,-0.132267981768,1.21846967915e-07,0.0,0.0,0.0,1.21846967915e-07,0.0,0.0,0.0,1.21846967915e-07,0.06864655,0.784532,10.0812362,9e-08,0.0,0.0,0.0,9e-08,0.0,0.0,0.0,9e-08
1539875306758529928,832,1539875306758222792,base_link,0.133392506177,-0.176012507981,-0.824776577279,0.520547436745,1.0,0.0,0.0,0.0,1.0,0.0,0.0,0.0,1.0,0.246866062284,-0.0906702503562,-0.181736186147,1.21846967915e-07,0.0,0.0,0.0,1.21846967915e-07,0.0,0.0,0.0,1.21846967915e-07,0.44129925,1.0591182,9.79684335,9e-08,0.0,0.0,0.0,9e-08,0.0,0.0,0.0,9e-08
1539875307095703400,833,1539875307095167400,base_link,0.138558060463,-0.208408886869,-0.83991097199,0.481577573072,1.0,0.0,0.0,0.0,1.0,0.0,0.0,0.0,1.0,-0.00621604500338,-0.187852010131,-0.217993766069,1.21846967915e-07,0.0,0.0,0.0,1.21846967915e-07,0.0,0.0,0.0,1.21846967915e-07,0.3334261,1.372931,11.1403544,9e-08,0.0,0.0,0.0,9e-08,0.0,0.0,0.0,9e-08
1539875307558054920,834,1539875307557772488,base_link,0.124096307021,-0.237397592793,-0.865951524745,0.422339254997,1.0,0.0,0.0,0.0,1.0,0.0,0.0,0.0,1.0,0.14093233645,-0.207547202706,-0.178151205182,1.21846967915e-07,0.0,0.0,0.0,1.21846967915e-07,0.0,0.0,0.0,1.21846967915e-07,0.71588545,1.01008495,11.6306869,9e-08,0.0,0.0,0.0,9e-08,0.0,0.0,0.0,9e-08
1539875307873366184,835,1539875307872953352,base_link,0.110587636235,-0.263039559621,-0.875131071703,0.39080196024,1.0,0.0,0.0,0.0,1.0,0.0,0.0,0.0,1.0,0.195446431637,-0.220866680145,-0.134324774146,1.21846967915e-07,0.0,0.0,0.0,1.21846967915e-07,0.0,0.0,0.0,1.21846967915e-07,1.0591182,1.46119085,12.8074849,9e-08,0.0,0.0,0.0,9e-08,0.0,0.0,0.0,9e-08
1539875308177644296,836,1539875308177153896,base_link,0.104491342615,-0.288188193235,-0.886098936365,0.347646083784,1.0,0.0,0.0,0.0,1.0,0.0,0.0,0.0,1.0,0.165023952723,-0.152406230569,-0.290480524302,1.21846967915e-07,0.0,0.0,0.0,1.21846967915e-07,0.0,0.0,0.0,1.21846967915e-07,0.6864655,1.46119085,11.0226746,9e-08,0.0,0.0,0.0,9e-08,0.0,0.0,0.0,9e-08
1539875308589707560,837,1539875308589335592,base_link,0.0826219472185,-0.320732714872,-0.900792077773,0.280851868553,1.0,0.0,0.0,0.0,1.0,0.0,0.0,0.0,1.0,-0.106188617647,-0.283508986235,-0.181358143687,1.21846967915e-07,0.0,0.0,0.0,1.21846967915e-07,0.0,0.0,0.0,1.21846967915e-07,1.24544455,1.176798,15.72005995,9e-08,0.0,0.0,0.0,9e-08,0.0,0.0,0.0,9e-08
1539875309090540648,838,1539875309089970344,base_link,0.045571572862,-0.309398773315,-0.92192175968,0.228595493934,1.0,0.0,0.0,0.0,1.0,0.0,0.0,0.0,1.0,-0.266504079103,-0.0701636895537,-0.348993659019,1.21846967915e-07,0.0,0.0,0.0,1.21846967915e-07,0.0,0.0,0.0,1.21846967915e-07,1.0002783,1.6279039,10.40485565,9e-08,0.0,0.0,0.0,9e-08,0.0,0.0,0.0,9e-08
1539875309551850280,839,1539875309551483432,base_link,0.0382897593444,-0.309655433284,-0.938899497895,0.145310494529,1.0,0.0,0.0,0.0,1.0,0.0,0.0,0.0,1.0,-0.142707109451,-0.203962504864,-0.243789851665,1.21846967915e-07,0.0,0.0,0.0,1.21846967915e-07,0.0,0.0,0.0,1.21846967915e-07,0.588399,0.8433719,8.2768126,9e-08,0.0,0.0,0.0,9e-08,0.0,0.0,0.0,9e-08
1539875309954837576,840,1539875309954534376,base_link,0.00712454362474,-0.279531920171,-0.955951186338,0.0892663196444,1.0,0.0,0.0,0.0,1.0,0.0,0.0,0.0,1.0,-0.221453398466,-0.213047146797,-0.206311091781,1.21846967915e-07,0.0,0.0,0.0,1.21846967915e-07,0.0,0.0,0.0,1.21846967915e-07,0.71588545,1.01008495,12.93497135,9e-08,0.0,0.0,0.0,9e-08,0.0,0.0,0.0,9e-08
1539875310407727368,841,1539875310404803368,base_link,-0.02273296407,-0.24492805653,-0.968559330056,0.0372328300066,1.0,0.0,0.0,0.0,1.0,0.0,0.0,0.0,1.0,-0.156836867332,-0.102020956576,-0.216362908483,1.21846967915e-07,0.0,0.0,0.0,1.21846967915e-07,0.0,0.0,0.0,1.21846967915e-07,0.59820565,1.6867438,12.15043935,9e-08,0.0,0.0,0.0,9e-08,0.0,0.0,0.0,9e-08
1539875310830105256,842,1539875310829694184,base_link,-0.0259109690898,-0.178779223846,-0.983370217125,-0.0186983120285,1.0,0.0,0.0,0.0,1.0,0.0,0.0,0.0,1.0,-0.348770648241,-0.0649774074554,-0.231773152947,1.21846967915e-07,0.0,0.0,0.0,1.21846967915e-07,0.0,0.0,0.0,1.21846967915e-07,0.6864655,0.95124505,10.62060195,9e-08,0.0,0.0,0.0,9e-08,0.0,0.0,0.0,9e-08
1539875311195698664,843,1539875311195280040,base_link,-0.0301810183549,-0.124494785408,-0.990244487213,-0.0548270925885,1.0,0.0,0.0,0.0,1.0,0.0,0.0,0.0,1.0,-0.356659084558,-0.0606286153197,-0.139133349061,1.21846967915e-07,0.0,0.0,0.0,1.21846967915e-07,0.0,0.0,0.0,1.21846967915e-07,0.392266,0.5491724,10.64021525,9e-08,0.0,0.0,0.0,9e-08,0.0,0.0,0.0,9e-08
1539875311667087912,844,1539875311664275560,base_link,-0.033780556481,-0.0761010589156,-0.993924311266,-0.0719858757687,1.0,0.0,0.0,0.0,1.0,0.0,0.0,0.0,1.0,-0.135848343372,-0.0148581955582,-0.0316285006702,1.21846967915e-07,0.0,0.0,0.0,1.21846967915e-07,0.0,0.0,0.0,1.21846967915e-07,0.10787315,0.5295591,9.9635564,9e-08,0.0,0.0,0.0,9e-08,0.0,0.0,0.0,9e-08
1539875312001073544,845,1539875312000255336,base_link,-0.0295977074826,-0.0475441575918,-0.995620362159,-0.0748573526413,1.0,0.0,0.0,0.0,1.0,0.0,0.0,0.0,1.0,-0.103220239282,0.00585855310783,-0.0131085077301,1.21846967915e-07,0.0,0.0,0.0,1.21846967915e-07,0.0,0.0,0.0,1.21846967915e-07,0.2745862,0.65704555,8.95347145,9e-08,0.0,0.0,0.0,9e-08,0.0,0.0,0.0,9e-08
1539875312446197896,846,1539875312444966664,base_link,-0.0254106949087,-0.0438208701838,-0.995734712635,-0.0771129689161,1.0,0.0,0.0,0.0,1.0,0.0,0.0,0.0,1.0,0.0153524242342,0.0257357489318,-0.00500639621168,1.21846967915e-07,0.0,0.0,0.0,1.21846967915e-07,0.0,0.0,0.0,1.21846967915e-07,0.36284605,0.5491724,9.3751574,9e-08,0.0,0.0,0.0,9e-08,0.0,0.0,0.0,9e-08
1539875312903096360,847,1539875312902375688,base_link,-0.014318325489,-0.0198048654959,-0.996846059638,-0.075502888965,1.0,0.0,0.0,0.0,1.0,0.0,0.0,0.0,1.0,-0.120558090508,0.053168553859,-0.0254912264645,1.21846967915e-07,0.0,0.0,0.0,1.21846967915e-07,0.0,0.0,0.0,1.21846967915e-07,0.3530394,0.73549875,9.79684335,9e-08,0.0,0.0,0.0,9e-08,0.0,0.0,0.0,9e-08
1539875313377894920,848,1539875313377232488,base_link,0.000943682154491,-0.00316721640175,-0.996743589529,-0.0805685728921,1.0,0.0,0.0,0.0,1.0,0.0,0.0,0.0,1.0,-0.116431370378,0.0381784029305,-0.0242736469954,1.21846967915e-07,0.0,0.0,0.0,1.21846967915e-07,0.0,0.0,0.0,1.21846967915e-07,0.32361945,0.4511059,9.0025047,9e-08,0.0,0.0,0.0,9e-08,0.0,0.0,0.0,9e-08
1539875313566610632,849,1539875313566379048,base_link,0.00493405247294,-0.0060970801925,-0.996594733798,-0.0820817720637,1.0,0.0,0.0,0.0,1.0,0.0,0.0,0.0,1.0,0.0916781947017,0.0503584034741,0.00556678278372,1.21846967915e-07,0.0,0.0,0.0,1.21846967915e-07,0.0,0.0,0.0,1.21846967915e-07,0.2745862,0.3334261,9.3359308,9e-08,0.0,0.0,0.0,9e-08,0.0,0.0,0.0,9e-08
1539875313890927016,850,1539875313890750472,base_link,0.00918615411294,-0.0299701009817,-0.996378811424,-0.0790358890935,1.0,0.0,0.0,0.0,1.0,0.0,0.0,0.0,1.0,0.1074257195,0.0380866974592,0.0201647020876,1.21846967915e-07,0.0,0.0,0.0,1.21846967915e-07,0.0,0.0,0.0,1.21846967915e-07,0.1765197,0.4707192,9.22805765,9e-08,0.0,0.0,0.0,9e-08,0.0,0.0,0.0,9e-08
1539875314259936456,851,1539875314259429064,base_link,0.00967220499285,-0.0361025994606,-0.996678068441,-0.072359371551,1.0,0.0,0.0,0.0,1.0,0.0,0.0,0.0,1.0,-0.0259416475892,0.00379034504294,0.0203756988049,1.21846967915e-07,0.0,0.0,0.0,1.21846967915e-07,0.0,0.0,0.0,1.21846967915e-07,0.4118793,0.69627215,10.5127288,9e-08,0.0,0.0,0.0,9e-08,0.0,0.0,0.0,9e-08
1539875314766132040,852,1539875314765791528,base_link,0.0050065977778,-0.0271716361039,-0.99755228788,-0.0642344854125,1.0,0.0,0.0,0.0,1.0,0.0,0.0,0.0,1.0,-0.0615568496287,-0.00407696142793,0.00565852597356,1.21846967915e-07,0.0,0.0,0.0,1.21846967915e-07,0.0,0.0,0.0,1.21846967915e-07,0.34323275,0.77472535,10.1596894,9e-08,0.0,0.0,0.0,9e-08,0.0,0.0,0.0,9e-08
1539875315141239624,853,1539875315140935592,base_link,-0.00016325933683,-0.0225700810805,-0.997839403123,-0.0617016236483,1.0,0.0,0.0,0.0,1.0,0.0,0.0,0.0,1.0,-0.000993382185698,-0.0300529506058,0.0114383548498,1.21846967915e-07,0.0,0.0,0.0,1.21846967915e-07,0.0,0.0,0.0,1.21846967915e-07,0.4511059,0.6864655,9.32612415,9e-08,0.0,0.0,0.0,9e-08,0.0,0.0,0.0,9e-08
1539875315551901864,854,1539875315551641896,base_link,-0.0113145738543,-0.0304377016891,-0.997951456744,-0.0551218352036,1.0,0.0,0.0,0.0,1.0,0.0,0.0,0.0,1.0,-0.0254515893757,-0.0470056012273,0.0452316552401,1.21846967915e-07,0.0,0.0,0.0,1.21846967915e-07,0.0,0.0,0.0,1.21846967915e-07,0.6080123,0.7060788,10.97364135,9e-08,0.0,0.0,0.0,9e-08,0.0,0.0,0.0,9e-08
1539875315832153960,855,1539875315827094792,base_link,-0.0161913996328,-0.0303235684478,-0.998128332253,-0.0505781783801,1.0,0.0,0.0,0.0,1.0,0.0,0.0,0.0,1.0,-0.0226019602269,-0.032608885318,0.0146901458502,1.21846967915e-07,0.0,0.0,0.0,1.21846967915e-07,0.0,0.0,0.0,1.21846967915e-07,0.8629852,0.6668522,10.48330885,9e-08,0.0,0.0,0.0,9e-08,0.0,0.0,0.0,9e-08
1539875316234064552,856,1539875316233609768,base_link,-0.0228353238041,-0.0386869527079,-0.997816471342,-0.0484164971425,1.0,0.0,0.0,0.0,1.0,0.0,0.0,0.0,1.0,0.140790626407,-0.0503262132406,0.00417029764503,1.21846967915e-07,0.0,0.0,0.0,1.21846967915e-07,0.0,0.0,0.0,1.21846967915e-07,0.65704555,0.8041453,10.24794925,9e-08,0.0,0.0,0.0,9e-08,0.0,0.0,0.0,9e-08
1539875316557177992,857,1539875316556876520,base_link,-0.028898862075,-0.0419546850377,-0.997832090097,-0.0416626948981,1.0,0.0,0.0,0.0,1.0,0.0,0.0,0.0,1.0,-0.0866994410753,0.00184660614468,0.0396136343479,1.21846967915e-07,0.0,0.0,0.0,1.21846967915e-07,0.0,0.0,0.0,1.21846967915e-07,0.93163175,0.6864655,10.22833595,9e-08,0.0,0.0,0.0,9e-08,0.0,0.0,0.0,9e-08
1539875316842653544,858,1539875316842252616,base_link,-0.0240898828928,-0.0227356449858,-0.998579576262,-0.0417324557453,1.0,0.0,0.0,0.0,1.0,0.0,0.0,0.0,1.0,-0.0420600101352,0.0399430915713,-0.0610463656485,1.21846967915e-07,0.0,0.0,0.0,1.21846967915e-07,0.0,0.0,0.0,1.21846967915e-07,0.7649187,0.51975245,7.9041599,9e-08,0.0,0.0,0.0,9e-08,0.0,0.0,0.0,9e-08
1539875317248528712,859,1539875317248208488,base_link,-0.0217892357129,-0.0310265867191,-0.998120539589,-0.0481452861007,1.0,0.0,0.0,0.0,1.0,0.0,0.0,0.0,1.0,0.0462174899876,0.0108008049428,-0.0194944087416,1.21846967915e-07,0.0,0.0,0.0,1.21846967915e-07,0.0,0.0,0.0,1.21846967915e-07,0.79433865,0.00980665,9.03192465,9e-08,0.0,0.0,0.0,9e-08,0.0,0.0,0.0,9e-08
1539875317669823944,860,1539875317666834376,base_link,-0.0190386711016,-0.0285502452302,-0.99864698908,-0.0390717762667,1.0,0.0,0.0,0.0,1.0,0.0,0.0,0.0,1.0,-0.152425825596,-0.0050900336355,0.0811645314097,1.21846967915e-07,0.0,0.0,0.0,1.21846967915e-07,0.0,0.0,0.0,1.21846967915e-07,0.57859235,0.00980665,5.6290171,9e-08,0.0,0.0,0.0,9e-08,0.0,0.0,0.0,9e-08
1539875318218218920,861,1539875318217951304,base_link,-0.017659175407,0.00483156982456,-0.999177298449,-0.036187507792,1.0,0.0,0.0,0.0,1.0,0.0,0.0,0.0,1.0,-0.15405485034,-0.00336556416005,-0.100910529494,1.21846967915e-07,0.0,0.0,0.0,1.21846967915e-07,0.0,0.0,0.0,1.21846967915e-07,1.08853815,1.40235095,10.14988275,9e-08,0.0,0.0,0.0,9e-08,0.0,0.0,0.0,9e-08
1539875318663764520,862,1539875318663361704,base_link,-0.0293307386593,-0.0200374968381,-0.998076665337,-0.0508052812191,1.0,0.0,0.0,0.0,1.0,0.0,0.0,0.0,1.0,0.159659922123,-0.0744528025389,0.0304824132472,1.21846967915e-07,0.0,0.0,0.0,1.21846967915e-07,0.0,0.0,0.0,1.21846967915e-07,1.3337044,0.5687857,12.24850585,9e-08,0.0,0.0,0.0,9e-08,0.0,0.0,0.0,9e-08
1539875319052109672,863,1539875319051726120,base_link,-0.0481245131844,-0.0261481646364,-0.997957695731,-0.032874644472,1.0,0.0,0.0,0.0,1.0,0.0,0.0,0.0,1.0,-0.0921982228756,-0.0871366262436,0.0749108418822,1.21846967915e-07,0.0,0.0,0.0,1.21846967915e-07,0.0,0.0,0.0,1.21846967915e-07,1.3337044,1.1375714,12.52309205,9e-08,0.0,0.0,0.0,9e-08,0.0,0.0,0.0,9e-08
1539875319504506824,864,1539875319503534152,base_link,-0.0576098106564,-0.0296240485774,-0.997649974645,-0.0223171134656,1.0,0.0,0.0,0.0,1.0,0.0,0.0,0.0,1.0,-0.0992651432753,0.0195052213967,-0.0415614619851,1.21846967915e-07,0.0,0.0,0.0,1.21846967915e-07,0.0,0.0,0.0,1.21846967915e-07,0.8237586,1.32389775,10.09104285,9e-08,0.0,0.0,0.0,9e-08,0.0,0.0,0.0,9e-08
1539875319868578440,865,1539875319867597384,base_link,-0.0603212377085,-0.0151076377356,-0.997742498372,-0.0253577306906,1.0,0.0,0.0,0.0,1.0,0.0,0.0,0.0,1.0,-0.128519594669,-0.0417823456228,0.0416241809726,1.21846967915e-07,0.0,0.0,0.0,1.21846967915e-07,0.0,0.0,0.0,1.21846967915e-07,0.9610517,0.588399,11.46397385,9e-08,0.0,0.0,0.0,9e-08,0.0,0.0,0.0,9e-08
1539875320164140072,866,1539875320163649928,base_link,-0.059918696637,-0.0554490411805,-0.996535686801,-0.0158675315441,1.0,0.0,0.0,0.0,1.0,0.0,0.0,0.0,1.0,0.374527275562,0.0622965060174,0.0281728766859,1.21846967915e-07,0.0,0.0,0.0,1.21846967915e-07,0.0,0.0,0.0,1.21846967915e-07,0.93163175,0.3530394,8.12971285,9e-08,0.0,0.0,0.0,9e-08,0.0,0.0,0.0,9e-08
1539875320659414600,867,1539875320658884872,base_link,-0.0477745413211,-0.0722339824289,-0.996101386273,-0.0167890812629,1.0,0.0,0.0,0.0,1.0,0.0,0.0,0.0,1.0,-0.19511847198,0.0420500151813,-0.0170389451087,1.21846967915e-07,0.0,0.0,0.0,1.21846967915e-07,0.0,0.0,0.0,1.21846967915e-07,0.980665,0.588399,8.825985,9e-08,0.0,0.0,0.0,9e-08,0.0,0.0,0.0,9e-08
1539875321057508520,868,1539875321057117480,base_link,-0.0428496185733,-0.0517213146492,-0.997548893951,-0.0196219258973,1.0,0.0,0.0,0.0,1.0,0.0,0.0,0.0,1.0,0.00485761463642,0.00602792063728,-0.00602476811036,1.21846967915e-07,0.0,0.0,0.0,1.21846967915e-07,0.0,0.0,0.0,1.21846967915e-07,0.91201845,0.89240515,10.54214875,9e-08,0.0,0.0,0.0,9e-08,0.0,0.0,0.0,9e-08
1539875321402574568,869,1539875321402198280,base_link,-0.0376403405525,-0.0581777745667,-0.997347438875,-0.0222853646612,1.0,0.0,0.0,0.0,1.0,0.0,0.0,0.0,1.0,0.0995299741626,0.0595721639693,-0.0173312053084,1.21846967915e-07,0.0,0.0,0.0,1.21846967915e-07,0.0,0.0,0.0,1.21846967915e-07,0.980665,0.5687857,9.44380395,9e-08,0.0,0.0,0.0,9e-08,0.0,0.0,0.0,9e-08
1539875321694729032,870,1539875321692010344,base_link,-0.0310145148386,-0.0570208559849,-0.997606619294,-0.0238276098746,1.0,0.0,0.0,0.0,1.0,0.0,0.0,0.0,1.0,0.107211008668,0.0282002594322,-0.033967114985,1.21846967915e-07,0.0,0.0,0.0,1.21846967915e-07,0.0,0.0,0.0,1.21846967915e-07,0.7453054,0.6472389,7.8845466,9e-08,0.0,0.0,0.0,9e-08,0.0,0.0,0.0,9e-08
1539875322097198632,871,1539875322096925000,base_link,-0.0335874241694,-0.0746909540321,-0.996452099565,-0.0193999896029,1.0,0.0,0.0,0.0,1.0,0.0,0.0,0.0,1.0,0.000989471096545,0.000804593670182,0.0567904040217,1.21846967915e-07,0.0,0.0,0.0,1.21846967915e-07,0.0,0.0,0.0,1.21846967915e-07,0.9610517,0.6668522,10.87557485,9e-08,0.0,0.0,0.0,9e-08,0.0,0.0,0.0,9e-08
1539875322471050760,872,1539875322470276872,base_link,-0.0275870605171,-0.0689656425248,-0.997041186272,-0.0197880550035,1.0,0.0,0.0,0.0,1.0,0.0,0.0,0.0,1.0,0.0349034108222,0.0577218681574,-0.0399384349585,1.21846967915e-07,0.0,0.0,0.0,1.21846967915e-07,0.0,0.0,0.0,1.21846967915e-07,0.85317855,1.0591182,7.60015375,9e-08,0.0,0.0,0.0,9e-08,0.0,0.0,0.0,9e-08
1539875322886914824,873,1539875322886645960,base_link,-0.0283802637883,-0.113349959413,-0.992743948951,-0.0283866015983,1.0,0.0,0.0,0.0,1.0,0.0,0.0,0.0,1.0,0.130613312125,-0.033666331321,0.168945580721,1.21846967915e-07,0.0,0.0,0.0,1.21846967915e-07,0.0,0.0,0.0,1.21846967915e-07,1.01008495,-0.0980665,11.05209455,9e-08,0.0,0.0,0.0,9e-08,0.0,0.0,0.0,9e-08
1539875323313117608,874,1539875323312786216,base_link,-0.0305280324753,-0.0251534022474,-0.999147654774,-0.0118029465953,1.0,0.0,0.0,0.0,1.0,0.0,0.0,0.0,1.0,-0.305908769369,0.124574370682,-0.0809915438294,1.21846967915e-07,0.0,0.0,0.0,1.21846967915e-07,0.0,0.0,0.0,1.21846967915e-07,1.20621795,1.55925735,11.34629405,9e-08,0.0,0.0,0.0,9e-08,0.0,0.0,0.0,9e-08
1539875323690125064,875,1539875323689713832,base_link,-0.0088684514048,-0.0162893517126,-0.999268951447,-0.0334300802448,1.0,0.0,0.0,0.0,1.0,0.0,0.0,0.0,1.0,0.150450929999,0.0774988979101,-0.0694527626038,1.21846967915e-07,0.0,0.0,0.0,1.21846967915e-07,0.0,0.0,0.0,1.21846967915e-07,0.44129925,0.85317855,6.99214145,9e-08,0.0,0.0,0.0,9e-08,0.0,0.0,0.0,9e-08
1539875324017037800,876,1539875324016610024,base_link,0.00127874197342,-0.0323613488669,-0.998583066917,-0.0422251866303,1.0,0.0,0.0,0.0,1.0,0.0,0.0,0.0,1.0,0.16149418056,0.0346166715026,-0.0334060303867,1.21846967915e-07,0.0,0.0,0.0,1.21846967915e-07,0.0,0.0,0.0,1.21846967915e-07,0.4511059,0.392266,5.89379665,9e-08,0.0,0.0,0.0,9e-08,0.0,0.0,0.0,9e-08
1539875324361198888,877,1539875324359393192,base_link,-0.00470904208523,-0.0150620891924,-0.999262214891,-0.0350140583512,1.0,0.0,0.0,0.0,1.0,0.0,0.0,0.0,1.0,-0.316043049097,-0.0594277381897,0.0845640674233,1.21846967915e-07,0.0,0.0,0.0,1.21846967915e-07,0.0,0.0,0.0,1.21846967915e-07,0.7453054,0.588399,12.1406327,9e-08,0.0,0.0,0.0,9e-08,0.0,0.0,0.0,9e-08
1539875324813497448,878,1539875324813067080,base_link,-0.0121776865767,-0.00711353157202,-0.999313092082,-0.0342701854699,1.0,0.0,0.0,0.0,1.0,0.0,0.0,0.0,1.0,-0.00328269647434,-0.0159682091326,-0.0453496985137,1.21846967915e-07,0.0,0.0,0.0,1.21846967915e-07,0.0,0.0,0.0,1.21846967915e-07,0.32361945,1.26505785,12.22889255,9e-08,0.0,0.0,0.0,9e-08,0.0,0.0,0.0,9e-08
1539875325255204360,879,1539875325254815688,base_link,-0.0199229734772,-0.0112419720241,-0.998440891963,-0.050916386839,1.0,0.0,0.0,0.0,1.0,0.0,0.0,0.0,1.0,0.0241043902934,-0.00514734629542,-0.0587068237364,1.21846967915e-07,0.0,0.0,0.0,1.21846967915e-07,0.0,0.0,0.0,1.21846967915e-07,0.2353596,0.1372931,10.591182,9e-08,0.0,0.0,0.0,9e-08,0.0,0.0,0.0,9e-08
1539875325558342344,880,1539875325558059080,base_link,-0.0279651363298,-0.0520680679829,-0.99695231174,-0.0509210718956,1.0,0.0,0.0,0.0,1.0,0.0,0.0,0.0,1.0,0.385685265064,-0.0648990646005,0.0551770851016,1.21846967915e-07,0.0,0.0,0.0,1.21846967915e-07,0.0,0.0,0.0,1.21846967915e-07,0.26477955,1.21417890407e-15,9.91452315,9e-08,0.0,0.0,0.0,9e-08,0.0,0.0,0.0,9e-08
1539875325950672360,881,1539875325950447592,base_link,-0.0366700871785,-0.0544088403825,-0.997551478441,-0.0242080700172,1.0,0.0,0.0,0.0,1.0,0.0,0.0,0.0,1.0,-0.0862745121121,0.0188807025552,0.113016992807,1.21846967915e-07,0.0,0.0,0.0,1.21846967915e-07,0.0,0.0,0.0,1.21846967915e-07,0.588399,0.7256921,11.7875933,9e-08,0.0,0.0,0.0,9e-08,0.0,0.0,0.0,9e-08
1539875326301776552,882,1539875326301345896,base_link,-0.0214340858531,-0.0480282302541,-0.998449603147,-0.0182279740429,1.0,0.0,0.0,0.0,1.0,0.0,0.0,0.0,1.0,0.0446146763861,0.119739986956,-0.0667821615934,1.21846967915e-07,0.0,0.0,0.0,1.21846967915e-07,0.0,0.0,0.0,1.21846967915e-07,0.44129925,1.12776475,8.3552658,9e-08,0.0,0.0,0.0,9e-08,0.0,0.0,0.0,9e-08
1539875326570526504,883,1539875326570300424,base_link,0.000648445029069,-0.0585299502589,-0.997784025931,-0.0316364036977,1.0,0.0,0.0,0.0,1.0,0.0,0.0,0.0,1.0,0.174354746938,0.0845578759909,-0.12856093049,1.21846967915e-07,0.0,0.0,0.0,1.21846967915e-07,0.0,0.0,0.0,1.21846967915e-07,0.392266,0.3726527,6.1978028,9e-08,0.0,0.0,0.0,9e-08,0.0,0.0,0.0,9e-08
1539875326966620584,884,1539875326966317704,base_link,0.0089745981591,-0.0435997671887,-0.997920536675,-0.0466167284563,1.0,0.0,0.0,0.0,1.0,0.0,0.0,0.0,1.0,0.0489421896636,0.0189852304757,-0.0602685138583,1.21846967915e-07,0.0,0.0,0.0,1.21846967915e-07,0.0,0.0,0.0,1.21846967915e-07,0.6472389,0.7453054,13.925443,9e-08,0.0,0.0,0.0,9e-08,0.0,0.0,0.0,9e-08
1539875327353275912,885,1539875327352887240,base_link,0.0136991275127,-0.0320642066682,-0.99843685527,-0.0436814216245,1.0,0.0,0.0,0.0,1.0,0.0,0.0,0.0,1.0,0.00315751763992,-0.0193984266371,0.023811802268,1.21846967915e-07,0.0,0.0,0.0,1.21846967915e-07,0.0,0.0,0.0,1.21846967915e-07,0.0392266,0.53936575,9.414384,9e-08,0.0,0.0,0.0,9e-08,0.0,0.0,0.0,9e-08
1539875327742620008,886,1539875327742231432,base_link,0.0122970006065,-0.0275236625906,-0.998875453207,-0.0365931790623,1.0,0.0,0.0,0.0,1.0,0.0,0.0,0.0,1.0,-0.137770354748,-0.00687439460307,0.023486463353,1.21846967915e-07,0.0,0.0,0.0,1.21846967915e-07,0.0,0.0,0.0,1.21846967915e-07,0.28439285,0.5687857,10.2185293,9e-08,0.0,0.0,0.0,9e-08,0.0,0.0,0.0,9e-08
1539875328235208392,887,1539875328234837192,base_link,0.0163231837374,-0.0229017295545,-0.999056190098,-0.0331027715359,1.0,0.0,0.0,0.0,1.0,0.0,0.0,0.0,1.0,0.24047383666,-0.0215983036906,-0.0332951918244,1.21846967915e-07,0.0,0.0,0.0,1.21846967915e-07,0.0,0.0,0.0,1.21846967915e-07,-0.20593965,0.6864655,10.38524235,9e-08,0.0,0.0,0.0,9e-08,0.0,0.0,0.0,9e-08
1539875328670491464,888,1539875328667944072,base_link,0.0153921702145,-0.0345943425787,-0.998661752532,-0.0352280653399,1.0,0.0,0.0,0.0,1.0,0.0,0.0,0.0,1.0,-0.110581099987,-0.0278899818659,0.010249145329,1.21846967915e-07,0.0,0.0,0.0,1.21846967915e-07,0.0,0.0,0.0,1.21846967915e-07,0.1176798,0.6864655,10.4931155,9e-08,0.0,0.0,0.0,9e-08,0.0,0.0,0.0,9e-08
1539875329117592872,889,1539875329117172808,base_link,0.0224323955867,-0.0322063027354,-0.998290723991,-0.043303257209,1.0,0.0,0.0,0.0,1.0,0.0,0.0,0.0,1.0,0.0731868073344,0.0562740154564,-0.12104203552,1.21846967915e-07,0.0,0.0,0.0,1.21846967915e-07,0.0,0.0,0.0,1.21846967915e-07,0.02941995,0.73549875,9.0613446,9e-08,0.0,0.0,0.0,9e-08,0.0,0.0,0.0,9e-08
1539875329464249992,890,1539875329463710376,base_link,0.0191672128546,-0.0929407636132,-0.993509656492,-0.0627151884859,1.0,0.0,0.0,0.0,1.0,0.0,0.0,0.0,1.0,0.452267885208,-0.0711139068007,-0.0239206291735,1.21846967915e-07,0.0,0.0,0.0,1.21846967915e-07,0.0,0.0,0.0,1.21846967915e-07,0.1176798,-0.02941995,12.1014061,9e-08,0.0,0.0,0.0,9e-08,0.0,0.0,0.0,9e-08
1539875329905797576,891,1539875329904849640,base_link,0.00390061746856,-0.0640120572397,-0.996903786209,-0.0454981620834,1.0,0.0,0.0,0.0,1.0,0.0,0.0,0.0,1.0,-0.286470651627,-0.0271892249584,0.0532705634832,1.21846967915e-07,0.0,0.0,0.0,1.21846967915e-07,0.0,0.0,0.0,1.21846967915e-07,0.10787315,0.588399,10.22833595,9e-08,0.0,0.0,0.0,9e-08,0.0,0.0,0.0,9e-08
1539875330352446088,892,1539875330352176200,base_link,-0.00351182324072,-0.0183427112063,-0.999290702799,-0.0327002040075,1.0,0.0,0.0,0.0,1.0,0.0,0.0,0.0,1.0,-0.0623625293374,0.0292154010385,0.0815660357475,1.21846967915e-07,0.0,0.0,0.0,1.21846967915e-07,0.0,0.0,0.0,1.21846967915e-07,0.2157463,1.04931155,10.2381426,9e-08,0.0,0.0,0.0,9e-08,0.0,0.0,0.0,9e-08
1539875330692298344,893,1539875330689918536,base_link,0.00212923184882,-0.0107855981075,-0.999409318533,-0.0325599642797,1.0,0.0,0.0,0.0,1.0,0.0,0.0,0.0,1.0,-0.26270955801,-0.0467838272452,-0.0189659763128,1.21846967915e-07,0.0,0.0,0.0,1.21846967915e-07,0.0,0.0,0.0,1.21846967915e-07,0.36284605,0.97085835,13.337044,9e-08,0.0,0.0,0.0,9e-08,0.0,0.0,0.0,9e-08
1539875331164702312,894,1539875331164459720,base_link,-0.00255557609822,-0.0614480413153,-0.997061341989,-0.0456758969269,1.0,0.0,0.0,0.0,1.0,0.0,0.0,0.0,1.0,0.440975874662,-0.06314201653,-0.087248146534,1.21846967915e-07,0.0,0.0,0.0,1.21846967915e-07,0.0,0.0,0.0,1.21846967915e-07,0.2353596,0.4511059,11.8464332,9e-08,0.0,0.0,0.0,9e-08,0.0,0.0,0.0,9e-08
1539875331547360072,895,1539875331547095272,base_link,-0.00374450899153,-0.0342871550014,-0.998298183968,-0.0470223940354,1.0,0.0,0.0,0.0,1.0,0.0,0.0,0.0,1.0,-0.121808886528,0.00480666942894,-0.00280399713665,1.21846967915e-07,0.0,0.0,0.0,1.21846967915e-07,0.0,0.0,0.0,1.21846967915e-07,0.3726527,0.57859235,8.8652116,9e-08,0.0,0.0,0.0,9e-08,0.0,0.0,0.0,9e-08
1539875332087537544,896,1539875332087269320,base_link,-0.00850461266824,-0.0935203565163,-0.994377150427,-0.0489458597816,1.0,0.0,0.0,0.0,1.0,0.0,0.0,0.0,1.0,0.759302616119,-0.0180919207633,0.0109585281461,1.21846967915e-07,0.0,0.0,0.0,1.21846967915e-07,0.0,0.0,0.0,1.21846967915e-07,0.20593965,0.89240515,8.5317855,9e-08,0.0,0.0,0.0,9e-08,0.0,0.0,0.0,9e-08
1539875332408620648,897,1539875332408305192,base_link,-0.0158508696096,-0.151442439881,-0.986640340772,-0.0579204221026,1.0,0.0,0.0,0.0,1.0,0.0,0.0,0.0,1.0,-0.419331252575,-0.0141505412757,-0.0231231674552,1.21846967915e-07,0.0,0.0,0.0,1.21846967915e-07,0.0,0.0,0.0,1.21846967915e-07,0.7060788,0.85317855,13.22917085,9e-08,0.0,0.0,0.0,9e-08,0.0,0.0,0.0,9e-08
1539875332689154952,898,1539875332687399560,base_link,-0.017526584349,-0.102278235892,-0.993015726402,-0.0561404348176,1.0,0.0,0.0,0.0,1.0,0.0,0.0,0.0,1.0,-0.299308925867,-0.0344776399434,0.0406992286444,1.21846967915e-07,0.0,0.0,0.0,1.21846967915e-07,0.0,0.0,0.0,1.21846967915e-07,0.6668522,0.7256921,10.4538889,9e-08,0.0,0.0,0.0,9e-08,0.0,0.0,0.0,9e-08
1539875333015240104,899,1539875333014817704,base_link,-0.0100753333065,-0.0576880427382,-0.996315159541,-0.0626632288673,1.0,0.0,0.0,0.0,1.0,0.0,0.0,0.0,1.0,0.0584799684584,0.0712194889784,-0.120930120349,1.21846967915e-07,0.0,0.0,0.0,1.21846967915e-07,0.0,0.0,0.0,1.21846967915e-07,0.6080123,0.85317855,10.26756255,9e-08,0.0,0.0,0.0,9e-08,0.0,0.0,0.0,9e-08
1539875333374131880,900,1539875333373922184,base_link,-0.00887675589419,-0.114490668722,-0.99006494194,-0.0811449365142,1.0,0.0,0.0,0.0,1.0,0.0,0.0,0.0,1.0,0.353442460299,0.00691619422287,-0.0837933719158,1.21846967915e-07,0.0,0.0,0.0,1.21846967915e-07,0.0,0.0,0.0,1.21846967915e-07,0.0980665,0.46091255,9.7674234,9e-08,0.0,0.0,0.0,9e-08,0.0,0.0,0.0,9e-08
1539875333679172488,901,1539875333678727400,base_link,-0.0154935568658,-0.142843931701,-0.985375992487,-0.0915953836318,1.0,0.0,0.0,0.0,1.0,0.0,0.0,0.0,1.0,0.305008590221,-0.0298000611365,-0.0967115536332,1.21846967915e-07,0.0,0.0,0.0,1.21846967915e-07,0.0,0.0,0.0,1.21846967915e-07,0.42168595,0.7453054,9.32612415,9e-08,0.0,0.0,0.0,9e-08,0.0,0.0,0.0,9e-08
1539875334016786568,902,1539875334016491880,base_link,-0.0290585088932,-0.208337110661,-0.971546373657,-0.108852630728,1.0,0.0,0.0,0.0,1.0,0.0,0.0,0.0,1.0,0.323080182076,-0.0889688283205,-0.0746325328946,1.21846967915e-07,0.0,0.0,0.0,1.21846967915e-07,0.0,0.0,0.0,1.21846967915e-07,0.7453054,0.4707192,10.4342756,9e-08,0.0,0.0,0.0,9e-08,0.0,0.0,0.0,9e-08
1539875334384329128,903,1539875334383628744,base_link,-0.0501412717032,-0.233686742623,-0.963376088487,-0.121584831811,1.0,0.0,0.0,0.0,1.0,0.0,0.0,0.0,1.0,0.0788924768567,-0.120773620903,-0.094309553504,1.21846967915e-07,0.0,0.0,0.0,1.21846967915e-07,0.0,0.0,0.0,1.21846967915e-07,0.83356525,1.7455837,11.7875933,9e-08,0.0,0.0,0.0,9e-08,0.0,0.0,0.0,9e-08
1539875334854733000,904,1539875334854392136,base_link,-0.051771002638,-0.258972040494,-0.946265008771,-0.186643453421,1.0,0.0,0.0,0.0,1.0,0.0,0.0,0.0,1.0,-0.0484360530972,-0.0872585996985,-0.346508204937,1.21846967915e-07,0.0,0.0,0.0,1.21846967915e-07,0.0,0.0,0.0,1.21846967915e-07,0.69627215,1.176798,9.42419065,9e-08,0.0,0.0,0.0,9e-08,0.0,0.0,0.0,9e-08
1539875335212455016,905,1539875335211813608,base_link,-0.0465326250088,-0.217697931109,-0.943931770738,-0.243793227537,1.0,0.0,0.0,0.0,1.0,0.0,0.0,0.0,1.0,-0.0657374188304,-0.0698736682534,-0.271946668625,1.21846967915e-07,0.0,0.0,0.0,1.21846967915e-07,0.0,0.0,0.0,1.21846967915e-07,0.36284605,0.97085835,7.0019481,9e-08,0.0,0.0,0.0,9e-08,0.0,0.0,0.0,9e-08
1539875335495898280,906,1539875335495669352,base_link,-0.0570726791263,-0.21600031599,-0.930640929986,-0.289817239351,1.0,0.0,0.0,0.0,1.0,0.0,0.0,0.0,1.0,0.059743527323,-0.163231015205,-0.310053676367,1.21846967915e-07,0.0,0.0,0.0,1.21846967915e-07,0.0,0.0,0.0,1.21846967915e-07,0.4314926,1.08853815,10.95402805,9e-08,0.0,0.0,0.0,9e-08,0.0,0.0,0.0,9e-08
1539875335836509160,907,1539875335836004520,base_link,-0.075694168327,-0.2230456859,-0.911654743422,-0.336759029097,1.0,0.0,0.0,0.0,1.0,0.0,0.0,0.0,1.0,0.122399315238,-0.14532288909,-0.223760083318,1.21846967915e-07,0.0,0.0,0.0,1.21846967915e-07,0.0,0.0,0.0,1.21846967915e-07,0.5099458,0.83356525,12.8074849,9e-08,0.0,0.0,0.0,9e-08,0.0,0.0,0.0,9e-08
1539875336267758952,908,1539875336267448424,base_link,-0.104564040178,-0.21758649703,-0.896054274768,-0.372571086481,1.0,0.0,0.0,0.0,1.0,0.0,0.0,0.0,1.0,-0.130470514297,-0.12934333086,-0.131009191275,1.21846967915e-07,0.0,0.0,0.0,1.21846967915e-07,0.0,0.0,0.0,1.21846967915e-07,0.36284605,0.48052585,12.87613145,9e-08,0.0,0.0,0.0,9e-08,0.0,0.0,0.0,9e-08
1539875336663296968,909,1539875336663022920,base_link,-0.123293471792,-0.227036148623,-0.883181658338,-0.391463236342,1.0,0.0,0.0,0.0,1.0,0.0,0.0,0.0,1.0,0.125234141946,-0.0546102188528,-0.140155658126,1.21846967915e-07,0.0,0.0,0.0,1.21846967915e-07,0.0,0.0,0.0,1.21846967915e-07,-0.0196133,1.04931155,9.12999115,9e-08,0.0,0.0,0.0,9e-08,0.0,0.0,0.0,9e-08
1539875337026063912,910,1539875337019228840,base_link,-0.123790090804,-0.236463435954,-0.86768729921,-0.419380266184,1.0,0.0,0.0,0.0,1.0,0.0,0.0,0.0,1.0,0.167602688074,0.0252914093435,-0.223879367113,1.21846967915e-07,0.0,0.0,0.0,1.21846967915e-07,0.0,0.0,0.0,1.21846967915e-07,-0.1569064,0.8237586,8.7083052,9e-08,0.0,0.0,0.0,9e-08,0.0,0.0,0.0,9e-08
1539875337366691720,911,1539875337365490664,base_link,-0.105805016469,-0.220941228333,-0.854754561411,-0.45758596117,1.0,0.0,0.0,0.0,1.0,0.0,0.0,0.0,1.0,0.045957043767,-0.0180437732488,-0.238191440701,1.21846967915e-07,0.0,0.0,0.0,1.21846967915e-07,0.0,0.0,0.0,1.21846967915e-07,-0.48052585,0.7453054,7.44324735,9e-08,0.0,0.0,0.0,9e-08,0.0,0.0,0.0,9e-08
1539875337703335816,912,1539875337702031368,base_link,-0.110254533022,-0.237544542748,-0.833640013171,-0.486272409868,1.0,0.0,0.0,0.0,1.0,0.0,0.0,0.0,1.0,0.0655926987529,-0.0719147399068,-0.207717090845,1.21846967915e-07,0.0,0.0,0.0,1.21846967915e-07,0.0,0.0,0.0,1.21846967915e-07,-0.3138128,0.81395195,9.28689755,9e-08,0.0,0.0,0.0,9e-08,0.0,0.0,0.0,9e-08
1539875338169211272,913,1539875338168941640,base_link,-0.10140832511,-0.214390019702,-0.811695673962,-0.533763434419,1.0,0.0,0.0,0.0,1.0,0.0,0.0,0.0,1.0,-0.130130216479,-0.0853157788515,-0.257257014513,1.21846967915e-07,0.0,0.0,0.0,1.21846967915e-07,0.0,0.0,0.0,1.21846967915e-07,-0.2353596,1.20621795,9.5320638,9e-08,0.0,0.0,0.0,9e-08,0.0,0.0,0.0,9e-08
1539875338511867176,914,1539875338511555912,base_link,-0.0932413695704,-0.188973237908,-0.794736458632,-0.569200424874,1.0,0.0,0.0,0.0,1.0,0.0,0.0,0.0,1.0,-0.140508919954,-0.122402921319,-0.21311300993,1.21846967915e-07,0.0,0.0,0.0,1.21846967915e-07,0.0,0.0,0.0,1.21846967915e-07,0.2353596,0.59820565,9.6301303,9e-08,0.0,0.0,0.0,9e-08,0.0,0.0,0.0,9e-08
1539875338958947048,915,1539875338957474184,base_link,-0.113342983857,-0.169564426862,-0.772540252037,-0.601317580098,1.0,0.0,0.0,0.0,1.0,0.0,0.0,0.0,1.0,-0.180682480335,-0.144662439823,-0.128401175141,1.21846967915e-07,0.0,0.0,0.0,1.21846967915e-07,0.0,0.0,0.0,1.21846967915e-07,0.3138128,0.9218251,11.28745415,9e-08,0.0,0.0,0.0,9e-08,0.0,0.0,0.0,9e-08
1539875339362495720,916,1539875339362272456,base_link,-0.112352919381,-0.126688483498,-0.755445027538,-0.632953126245,1.0,0.0,0.0,0.0,1.0,0.0,0.0,0.0,1.0,-0.0604629442096,-0.208830580115,-0.151880592108,1.21846967915e-07,0.0,0.0,0.0,1.21846967915e-07,0.0,0.0,0.0,1.21846967915e-07,0.99047165,0.588399,14.3373223,9e-08,0.0,0.0,0.0,9e-08,0.0,0.0,0.0,9e-08
1539875339681416232,917,1539875339681101704,base_link,-0.117951516802,-0.0997689815119,-0.748556493655,-0.644823050006,1.0,0.0,0.0,0.0,1.0,0.0,0.0,0.0,1.0,-0.183367729187,-0.0994237363338,0.0113668860868,1.21846967915e-07,0.0,0.0,0.0,1.21846967915e-07,0.0,0.0,0.0,1.21846967915e-07,0.38245935,0.53936575,11.91507975,9e-08,0.0,0.0,0.0,9e-08,0.0,0.0,0.0,9e-08
1539875339977776520,918,1539875339976530312,base_link,-0.100774837509,-0.0639325172191,-0.749727048743,-0.65089662601,1.0,0.0,0.0,0.0,1.0,0.0,0.0,0.0,1.0,-0.536204755306,-0.0634204149246,-0.0059675485827,1.21846967915e-07,0.0,0.0,0.0,1.21846967915e-07,0.0,0.0,0.0,1.21846967915e-07,0.50013915,1.06892485,10.9638347,9e-08,0.0,0.0,0.0,9e-08,0.0,0.0,0.0,9e-08
1539875340558862120,919,1539875340558573576,base_link,-0.0316528224592,0.0166696633575,-0.750472186027,-0.659933117182,1.0,0.0,0.0,0.0,1.0,0.0,0.0,0.0,1.0,-0.166584476829,-0.0189741943032,0.0264124590904,1.21846967915e-07,0.0,0.0,0.0,1.21846967915e-07,0.0,0.0,0.0,1.21846967915e-07,0.9022118,0.6080123,13.69989005,9e-08,0.0,0.0,0.0,9e-08,0.0,0.0,0.0,9e-08
1539875340898535432,920,1539875340893239688,base_link,-0.0110684458449,0.0326740446963,-0.755339730169,-0.654424776684,1.0,0.0,0.0,0.0,1.0,0.0,0.0,0.0,1.0,-0.179306715727,0.0518185645342,0.022741349414,1.21846967915e-07,0.0,0.0,0.0,1.21846967915e-07,0.0,0.0,0.0,1.21846967915e-07,0.50013915,0.85317855,9.58109705,9e-08,0.0,0.0,0.0,9e-08,0.0,0.0,0.0,9e-08
1539875341265075144,921,1539875341264585256,base_link,0.00129367643564,0.0345819273767,-0.756291390422,-0.653319025802,1.0,0.0,0.0,0.0,1.0,0.0,0.0,0.0,1.0,0.458020329475,0.0558783635497,-0.00807751063257,1.21846967915e-07,0.0,0.0,0.0,1.21846967915e-07,0.0,0.0,0.0,1.21846967915e-07,0.48052585,0.59820565,11.46397385,9e-08,0.0,0.0,0.0,9e-08,0.0,0.0,0.0,9e-08
1539875341690254344,922,1539875341689928264,base_link,-0.0310256273085,-0.0165787650057,-0.76293826571,-0.645513561218,1.0,0.0,0.0,0.0,1.0,0.0,0.0,0.0,1.0,0.139266446233,0.0256354436278,0.0697887837887,1.21846967915e-07,0.0,0.0,0.0,1.21846967915e-07,0.0,0.0,0.0,1.21846967915e-07,-0.24516625,0.38245935,7.3942141,9e-08,0.0,0.0,0.0,9e-08,0.0,0.0,0.0,9e-08
1539875342150488072,923,1539875342150211976,base_link,-0.0119653835895,-0.0150352516944,-0.770631859722,-0.636990822213,1.0,0.0,0.0,0.0,1.0,0.0,0.0,0.0,1.0,-0.0559518635273,0.13986158371,-0.0673223212361,1.21846967915e-07,0.0,0.0,0.0,1.21846967915e-07,0.0,0.0,0.0,1.21846967915e-07,-0.42168595,1.3533177,8.0806796,9e-08,0.0,0.0,0.0,9e-08,0.0,0.0,0.0,9e-08
1539875342659773064,924,1539875342659462408,base_link,-0.0192440052093,-0.0577193487179,-0.754141034757,-0.653887945097,1.0,0.0,0.0,0.0,1.0,0.0,0.0,0.0,1.0,-0.0406449623406,0.0531962178648,-0.0430465489626,1.21846967915e-07,0.0,0.0,0.0,1.21846967915e-07,0.0,0.0,0.0,1.21846967915e-07,-0.2353596,0.61781895,10.07142955,9e-08,0.0,0.0,0.0,9e-08,0.0,0.0,0.0,9e-08
1539875343014764840,925,1539875343014389704,base_link,-0.0183135900049,-0.0707556959425,-0.748519099885,-0.659073137838,1.0,0.0,0.0,0.0,1.0,0.0,0.0,0.0,1.0,0.0307273231447,0.0373921133578,-0.0405700989068,1.21846967915e-07,0.0,0.0,0.0,1.21846967915e-07,0.0,0.0,0.0,1.21846967915e-07,-0.1569064,-0.00980665,10.36562905,9e-08,0.0,0.0,0.0,9e-08,0.0,0.0,0.0,9e-08
1539875343447686728,926,1539875343446524008,base_link,-0.0215524856527,-0.0756618155071,-0.759085681971,-0.646219550512,1.0,0.0,0.0,0.0,1.0,0.0,0.0,0.0,1.0,-0.149237886071,0.0251272898167,0.0895248651505,1.21846967915e-07,0.0,0.0,0.0,1.21846967915e-07,0.0,0.0,0.0,1.21846967915e-07,-0.2549729,0.51975245,9.8851032,9e-08,0.0,0.0,0.0,9e-08,0.0,0.0,0.0,9e-08
1539875343892008232,927,1539875343891292168,base_link,0.000226993182823,-0.0501734652852,-0.771095103462,-0.634740035977,1.0,0.0,0.0,0.0,1.0,0.0,0.0,0.0,1.0,-0.104267865419,0.0136089250445,0.00913265068084,1.21846967915e-07,0.0,0.0,0.0,1.21846967915e-07,0.0,0.0,0.0,1.21846967915e-07,-0.4314926,1.1179581,10.591182,9e-08,0.0,0.0,0.0,9e-08,0.0,0.0,0.0,9e-08
1539875344377850344,928,1539875344377255752,base_link,0.0175859000451,-0.0353164886649,-0.769540299652,-0.637378387584,1.0,0.0,0.0,0.0,1.0,0.0,0.0,0.0,1.0,-0.000599475111812,-0.00166576262563,0.00341292493977,1.21846967915e-07,0.0,0.0,0.0,1.21846967915e-07,0.0,0.0,0.0,1.21846967915e-07,-0.2745862,0.77472535,11.2580342,9e-08,0.0,0.0,0.0,9e-08,0.0,0.0,0.0,9e-08
1539875344768632296,929,1539875344765823880,base_link,-0.0022039443962,-0.0627871709902,-0.772667116807,-0.63169489502,1.0,0.0,0.0,0.0,1.0,0.0,0.0,0.0,1.0,0.168121173978,-0.028795497492,0.101331569254,1.21846967915e-07,0.0,0.0,0.0,1.21846967915e-07,0.0,0.0,0.0,1.21846967915e-07,-0.02941995,0.4314926,9.81645665,9e-08,0.0,0.0,0.0,9e-08,0.0,0.0,0.0,9e-08
1539875345187056616,930,1539875345186606408,base_link,0.0125443104464,-0.0387806033203,-0.780371715496,-0.623986130243,1.0,0.0,0.0,0.0,1.0,0.0,0.0,0.0,1.0,-0.366965889931,-0.0066127628088,-0.0390288233757,1.21846967915e-07,0.0,0.0,0.0,1.21846967915e-07,0.0,0.0,0.0,1.21846967915e-07,-0.14709975,1.0198916,11.8856598,9e-08,0.0,0.0,0.0,9e-08,0.0,0.0,0.0,9e-08
1539875345552468040,931,1539875345552054408,base_link,0.0353003952328,-0.0063560466701,-0.773666711406,-0.632576716636,1.0,0.0,0.0,0.0,1.0,0.0,0.0,0.0,1.0,0.064356148243,-0.0513258464634,-0.0953789129853,1.21846967915e-07,0.0,0.0,0.0,1.21846967915e-07,0.0,0.0,0.0,1.21846967915e-07,-0.28439285,0.2157463,9.16921775,9e-08,0.0,0.0,0.0,9e-08,0.0,0.0,0.0,9e-08
1539875345952685640,932,1539875345952054408,base_link,0.0117203844905,-0.0149871487601,-0.774063519872,-0.632822001169,1.0,0.0,0.0,0.0,1.0,0.0,0.0,0.0,1.0,-0.060038190335,-0.0776448696852,0.106150813401,1.21846967915e-07,0.0,0.0,0.0,1.21846967915e-07,0.0,0.0,0.0,1.21846967915e-07,0.42168595,0.4903325,10.9442214,9e-08,0.0,0.0,0.0,9e-08,0.0,0.0,0.0,9e-08
1539875346347185608,933,1539875346346504264,base_link,0.0164025133368,-0.00418805364372,-0.779098445922,-0.626672984359,1.0,0.0,0.0,0.0,1.0,0.0,0.0,0.0,1.0,0.0249964203686,0.0127167599276,-0.0563274919987,1.21846967915e-07,0.0,0.0,0.0,1.21846967915e-07,0.0,0.0,0.0,1.21846967915e-07,0.0,1.1964113,9.0809579,9e-08,0.0,0.0,0.0,9e-08,0.0,0.0,0.0,9e-08
1539875346804135752,934,1539875346803478312,base_link,-0.00279887226926,-0.01612175008,-0.764682886295,-0.644198990139,1.0,0.0,0.0,0.0,1.0,0.0,0.0,0.0,1.0,0.1906388551,-0.0502075515687,-0.0655781850219,1.21846967915e-07,0.0,0.0,0.0,1.21846967915e-07,0.0,0.0,0.0,1.21846967915e-07,0.53936575,0.0392266,9.75761675,9e-08,0.0,0.0,0.0,9e-08,0.0,0.0,0.0,9e-08
1539875347259320616,935,1539875347258794344,base_link,-0.057171992417,-0.0544380238786,-0.763914150697,-0.640470947979,1.0,0.0,0.0,0.0,1.0,0.0,0.0,0.0,1.0,0.300998151302,-0.089242130518,0.0563782043755,1.21846967915e-07,0.0,0.0,0.0,1.21846967915e-07,0.0,0.0,0.0,1.21846967915e-07,0.89240515,0.24516625,10.3362091,9e-08,0.0,0.0,0.0,9e-08,0.0,0.0,0.0,9e-08
1539875347602292424,936,1539875347601585384,base_link,-0.0797853366599,-0.0521793504584,-0.771853626156,-0.628612436426,1.0,0.0,0.0,0.0,1.0,0.0,0.0,0.0,1.0,-0.0464881882071,-0.103599175811,0.0827898457646,1.21846967915e-07,0.0,0.0,0.0,1.21846967915e-07,0.0,0.0,0.0,1.21846967915e-07,0.91201845,0.4511059,11.67972015,9e-08,0.0,0.0,0.0,9e-08,0.0,0.0,0.0,9e-08
1539875347943812680,937,1539875347942098216,base_link,-0.0938495383187,-0.0459743048687,-0.771073693581,-0.628111444344,1.0,0.0,0.0,0.0,1.0,0.0,0.0,0.0,1.0,0.0499873124063,-0.0568131953478,-0.0502893067896,1.21846967915e-07,0.0,0.0,0.0,1.21846967915e-07,0.0,0.0,0.0,1.21846967915e-07,1.08853815,0.65704555,12.58193195,9e-08,0.0,0.0,0.0,9e-08,0.0,0.0,0.0,9e-08
1539875348382330952,938,1539875348381890248,base_link,-0.134360352399,-0.0760161925252,-0.75928193211,-0.632186508673,1.0,0.0,0.0,0.0,1.0,0.0,0.0,0.0,1.0,0.0439224913716,-0.0418145656586,-0.0484301298857,1.21846967915e-07,0.0,0.0,0.0,1.21846967915e-07,0.0,0.0,0.0,1.21846967915e-07,1.0002783,0.8237586,11.54242705,9e-08,0.0,0.0,0.0,9e-08,0.0,0.0,0.0,9e-08
1539875348653167496,939,1539875348652372104,base_link,-0.147761049125,-0.086654259979,-0.749614982723,-0.639323931404,1.0,0.0,0.0,0.0,1.0,0.0,0.0,0.0,1.0,0.232853099704,-0.047309152782,-0.123145282269,1.21846967915e-07,0.0,0.0,0.0,1.21846967915e-07,0.0,0.0,0.0,1.21846967915e-07,1.20621795,1.0002783,10.4342756,9e-08,0.0,0.0,0.0,9e-08,0.0,0.0,0.0,9e-08
1539875348991546184,940,1539875348989118472,base_link,-0.171632658351,-0.110166263742,-0.731740472385,-0.650354907719,1.0,0.0,0.0,0.0,1.0,0.0,0.0,0.0,1.0,0.212058842182,-0.0474735945463,-0.158943817019,1.21846967915e-07,0.0,0.0,0.0,1.21846967915e-07,0.0,0.0,0.0,1.21846967915e-07,1.12776475,0.8825985,10.8853815,9e-08,0.0,0.0,0.0,9e-08,0.0,0.0,0.0,9e-08
1539875349451435112,941,1539875349451177224,base_link,-0.221088422673,-0.160091471671,-0.698840781067,-0.661144608067,1.0,0.0,0.0,0.0,1.0,0.0,0.0,0.0,1.0,-0.00339117483236,-0.031957205385,-0.170767217875,1.21846967915e-07,0.0,0.0,0.0,1.21846967915e-07,0.0,0.0,0.0,1.21846967915e-07,1.50041745,2.16726965,11.36590735,9e-08,0.0,0.0,0.0,9e-08,0.0,0.0,0.0,9e-08
1539875349924795208,942,1539875349923145832,base_link,-0.207365289452,-0.158529406336,-0.644677729855,-0.718511439495,1.0,0.0,0.0,0.0,1.0,0.0,0.0,0.0,1.0,0.0598860383034,-0.130129188299,-0.2916918993,1.21846967915e-07,0.0,0.0,0.0,1.21846967915e-07,0.0,0.0,0.0,1.21846967915e-07,0.89240515,1.02969825,9.73800345,9e-08,0.0,0.0,0.0,9e-08,0.0,0.0,0.0,9e-08
1539875350186327720,943,1539875350185995976,base_link,-0.22945343622,-0.159871334681,-0.612296741673,-0.739516718602,1.0,0.0,0.0,0.0,1.0,0.0,0.0,0.0,1.0,0.140434473753,-0.219295367599,-0.234105497599,1.21846967915e-07,0.0,0.0,0.0,1.21846967915e-07,0.0,0.0,0.0,1.21846967915e-07,1.1571847,0.50013915,11.71894675,9e-08,0.0,0.0,0.0,9e-08,0.0,0.0,0.0,9e-08
1539875350648464776,944,1539875350647974472,base_link,-0.2757019712,-0.140429750431,-0.566315447222,-0.763907535313,1.0,0.0,0.0,0.0,1.0,0.0,0.0,0.0,1.0,-0.0244889818132,-0.255788356066,-0.158534795046,1.21846967915e-07,0.0,0.0,0.0,1.21846967915e-07,0.0,0.0,0.0,1.21846967915e-07,1.1375714,1.0983448,13.1212977,9e-08,0.0,0.0,0.0,9e-08,0.0,0.0,0.0,9e-08
1539875351055900616,945,1539875351055463880,base_link,-0.276496259434,-0.118084064362,-0.523630504385,-0.797130520768,1.0,0.0,0.0,0.0,1.0,0.0,0.0,0.0,1.0,0.0856452807784,-0.0965460687876,-0.243912622333,1.21846967915e-07,0.0,0.0,0.0,1.21846967915e-07,0.0,0.0,0.0,1.21846967915e-07,0.95124505,1.20621795,10.8265416,9e-08,0.0,0.0,0.0,9e-08,0.0,0.0,0.0,9e-08
1539875351486049448,946,1539875351485764904,base_link,-0.289972294608,-0.123051373026,-0.471566156086,-0.823650282821,1.0,0.0,0.0,0.0,1.0,0.0,0.0,0.0,1.0,0.0741520300508,-0.0806645229459,-0.276400178671,1.21846967915e-07,0.0,0.0,0.0,1.21846967915e-07,0.0,0.0,0.0,1.21846967915e-07,0.67665885,1.0787315,9.2967042,9e-08,0.0,0.0,0.0,9e-08,0.0,0.0,0.0,9e-08
1539875351875385768,947,1539875351875062376,base_link,-0.2853111077,-0.117898821249,-0.420828653087,-0.852995125726,1.0,0.0,0.0,0.0,1.0,0.0,0.0,0.0,1.0,-0.042317468673,-0.0838781669736,-0.244340062141,1.21846967915e-07,0.0,0.0,0.0,1.21846967915e-07,0.0,0.0,0.0,1.21846967915e-07,0.7649187,1.26505785,9.5712904,9e-08,0.0,0.0,0.0,9e-08,0.0,0.0,0.0,9e-08
1539875352255859912,948,1539875352253109320,base_link,-0.287812659597,-0.120275702155,-0.368588080325,-0.875694270559,1.0,0.0,0.0,0.0,1.0,0.0,0.0,0.0,1.0,0.175095513463,-0.107438512146,-0.356024503708,1.21846967915e-07,0.0,0.0,0.0,1.21846967915e-07,0.0,0.0,0.0,1.21846967915e-07,0.65704555,0.7453054,7.1980811,9e-08,0.0,0.0,0.0,9e-08,0.0,0.0,0.0,9e-08
1539875352594278408,949,1539875352592819176,base_link,-0.331943331019,-0.120803352271,-0.305139010525,-0.884370035295,1.0,0.0,0.0,0.0,1.0,0.0,0.0,0.0,1.0,0.322400301695,-0.240329995751,-0.247294515371,1.21846967915e-07,0.0,0.0,0.0,1.21846967915e-07,0.0,0.0,0.0,1.21846967915e-07,0.89240515,0.89240515,10.2381426,9e-08,0.0,0.0,0.0,9e-08,0.0,0.0,0.0,9e-08
1539875353022392808,950,1539875353020909576,base_link,-0.364064776138,-0.0873850533912,-0.236572698268,-0.896579081651,1.0,0.0,0.0,0.0,1.0,0.0,0.0,0.0,1.0,-0.150478675961,-0.283706843853,-0.259650409222,1.21846967915e-07,0.0,0.0,0.0,1.21846967915e-07,0.0,0.0,0.0,1.21846967915e-07,1.53964405,1.4121576,11.58165365,9e-08,0.0,0.0,0.0,9e-08,0.0,0.0,0.0,9e-08
1539875353291382472,951,1539875353290860264,base_link,-0.343406655469,-0.0580886005348,-0.190856032055,-0.917753539081,1.0,0.0,0.0,0.0,1.0,0.0,0.0,0.0,1.0,-0.238249719143,-0.276704311371,-0.26106262207,1.21846967915e-07,0.0,0.0,0.0,1.21846967915e-07,0.0,0.0,0.0,1.21846967915e-07,1.77500365,1.3337044,12.3956056,9e-08,0.0,0.0,0.0,9e-08,0.0,0.0,0.0,9e-08
1539875353619906568,952,1539875353619071368,base_link,-0.315712183285,-0.0259688148094,-0.14049511785,-0.938036545047,1.0,0.0,0.0,0.0,1.0,0.0,0.0,0.0,1.0,-0.161679312587,-0.208646208048,-0.238247945905,1.21846967915e-07,0.0,0.0,0.0,1.21846967915e-07,0.0,0.0,0.0,1.21846967915e-07,1.91229675,1.48080415,12.75845165,9e-08,0.0,0.0,0.0,9e-08,0.0,0.0,0.0,9e-08
1539875353978915112,953,1539875353978685480,base_link,-0.293147923366,-0.000161881766874,-0.0798692578693,-0.952725128496,1.0,0.0,0.0,0.0,1.0,0.0,0.0,0.0,1.0,-0.197829723358,-0.20110784471,-0.289862126112,1.21846967915e-07,0.0,0.0,0.0,1.21846967915e-07,0.0,0.0,0.0,1.21846967915e-07,1.32389775,1.61809725,11.13054775,9e-08,0.0,0.0,0.0,9e-08,0.0,0.0,0.0,9e-08
1539875354333600360,954,1539875354333335208,base_link,-0.263466611768,0.029312301922,-0.0188213187197,-0.964039361956,1.0,0.0,0.0,0.0,1.0,0.0,0.0,0.0,1.0,-0.130596637726,-0.245171546936,-0.193861275911,1.21846967915e-07,0.0,0.0,0.0,1.21846967915e-07,0.0,0.0,0.0,1.21846967915e-07,1.40235095,1.40235095,12.4740588,9e-08,0.0,0.0,0.0,9e-08,0.0,0.0,0.0,9e-08
1539875354856322664,955,1539875354856096488,base_link,-0.198439386842,0.0673384482593,0.0505549045936,-0.97648939818,1.0,0.0,0.0,0.0,1.0,0.0,0.0,0.0,1.0,-0.463620334864,-0.176331236959,-0.113490976393,1.21846967915e-07,0.0,0.0,0.0,1.21846967915e-07,0.0,0.0,0.0,1.21846967915e-07,0.95124505,0.87279185,12.66038515,9e-08,0.0,0.0,0.0,9e-08,0.0,0.0,0.0,9e-08
1539875355337571048,956,1539875355337328616,base_link,-0.0821453707632,0.079639460652,0.0860993563527,-0.989695203184,1.0,0.0,0.0,0.0,1.0,0.0,0.0,0.0,1.0,-0.458596378565,-0.0197103042156,-0.0902790501714,1.21846967915e-07,0.0,0.0,0.0,1.21846967915e-07,0.0,0.0,0.0,1.21846967915e-07,0.7649187,1.1179581,12.9840046,9e-08,0.0,0.0,0.0,9e-08,0.0,0.0,0.0,9e-08
1539875355751568456,957,1539875355750182024,base_link,0.00790692945197,0.0674209577872,0.104762605796,-0.99217775189,1.0,0.0,0.0,0.0,1.0,0.0,0.0,0.0,1.0,-0.206096634269,-0.0257745534182,0.0406992398202,1.21846967915e-07,0.0,0.0,0.0,1.21846967915e-07,0.0,0.0,0.0,1.21846967915e-07,0.3726527,-0.00980665,6.75678185,9e-08,0.0,0.0,0.0,9e-08,0.0,0.0,0.0,9e-08
1539875356186474248,958,1539875356185304264,base_link,0.070766535627,0.0580988117228,0.0840692331211,-0.992244420269,1.0,0.0,0.0,0.0,1.0,0.0,0.0,0.0,1.0,-0.168084084988,0.0481825992465,0.114633783698,1.21846967915e-07,0.0,0.0,0.0,1.21846967915e-07,0.0,0.0,0.0,1.21846967915e-07,0.2745862,0.6668522,11.03248125,9e-08,0.0,0.0,0.0,9e-08,0.0,0.0,0.0,9e-08
1539875356512050728,959,1539875356511729032,base_link,0.0738163029344,0.0394647291306,0.0787860556916,-0.993371252858,1.0,0.0,0.0,0.0,1.0,0.0,0.0,0.0,1.0,-0.0287518799305,0.130871608853,0.00420325901359,1.21846967915e-07,0.0,0.0,0.0,1.21846967915e-07,0.0,0.0,0.0,1.21846967915e-07,0.04903325,0.7453054,8.0022264,9e-08,0.0,0.0,0.0,9e-08,0.0,0.0,0.0,9e-08
1539875356901158312,960,1539875356900148904,base_link,0.0706072186881,0.0198123051141,0.0663711080583,-0.995096462284,1.0,0.0,0.0,0.0,1.0,0.0,0.0,0.0,1.0,-0.0593296289444,0.0556333586574,0.123616024852,1.21846967915e-07,0.0,0.0,0.0,1.21846967915e-07,0.0,0.0,0.0,1.21846967915e-07,0.02941995,0.4707192,8.3748791,9e-08,0.0,0.0,0.0,9e-08,0.0,0.0,0.0,9e-08
1539875357234079496,961,1539875357233806120,base_link,0.0785526142395,0.00583702075925,0.0452913108003,-0.995863501264,1.0,0.0,0.0,0.0,1.0,0.0,0.0,0.0,1.0,0.0782514810562,0.0788554921746,0.128654003143,1.21846967915e-07,0.0,0.0,0.0,1.21846967915e-07,0.0,0.0,0.0,1.21846967915e-07,-0.04903325,0.48052585,7.9629998,9e-08,0.0,0.0,0.0,9e-08,0.0,0.0,0.0,9e-08
1539875357732012200,962,1539875357731773768,base_link,0.0567207805865,-0.00697025762958,0.0151328647368,-0.998251053074,1.0,0.0,0.0,0.0,1.0,0.0,0.0,0.0,1.0,0.112090781331,0.031826775521,0.0953799709678,1.21846967915e-07,0.0,0.0,0.0,1.21846967915e-07,0.0,0.0,0.0,1.21846967915e-07,0.14709975,0.61781895,9.16921775,9e-08,0.0,0.0,0.0,9e-08,0.0,0.0,0.0,9e-08
1539875358116062120,963,1539875358111647432,base_link,0.0482109667021,-0.0105982691744,-0.00025070362367,-0.99878091518,1.0,0.0,0.0,0.0,1.0,0.0,0.0,0.0,1.0,-0.00718392338604,0.0249616485089,0.0694963410497,1.21846967915e-07,0.0,0.0,0.0,1.21846967915e-07,0.0,0.0,0.0,1.21846967915e-07,0.24516625,0.77472535,10.8461549,9e-08,0.0,0.0,0.0,9e-08,0.0,0.0,0.0,9e-08
1539875358384714312,964,1539875358384362344,base_link,0.049276901501,-0.0124528629456,-0.00583237461489,-0.998690490888,1.0,0.0,0.0,0.0,1.0,0.0,0.0,0.0,1.0,0.0902484580874,-0.00205619144253,0.0302429609001,1.21846967915e-07,0.0,0.0,0.0,1.21846967915e-07,0.0,0.0,0.0,1.21846967915e-07,0.20593965,0.63743225,8.99269805,9e-08,0.0,0.0,0.0,9e-08,0.0,0.0,0.0,9e-08
1539875358798248040,965,1539875358797652872,base_link,0.00476053174737,-0.00428716311488,-0.0209487875802,-0.99976002414,1.0,0.0,0.0,0.0,1.0,0.0,0.0,0.0,1.0,0.278698801994,-0.0740306228399,0.115240097046,1.21846967915e-07,0.0,0.0,0.0,1.21846967915e-07,0.0,0.0,0.0,1.21846967915e-07,0.83356525,0.16671305,11.1403544,9e-08,0.0,0.0,0.0,9e-08,0.0,0.0,0.0,9e-08
1539875359257348008,966,1539875359256573960,base_link,-0.015031176372,0.00522127534669,-0.0490431722869,-0.998669900053,1.0,0.0,0.0,0.0,1.0,0.0,0.0,0.0,1.0,-0.0472134388983,0.00809891056269,0.050638306886,1.21846967915e-07,0.0,0.0,0.0,1.21846967915e-07,0.0,0.0,0.0,1.21846967915e-07,0.77472535,1.2748645,10.591182,9e-08,0.0,0.0,0.0,9e-08,0.0,0.0,0.0,9e-08
1539875359697890440,967,1539875359697534216,base_link,-0.0507707277902,0.00404384443326,-0.0396877561649,-0.997913254012,1.0,0.0,0.0,0.0,1.0,0.0,0.0,0.0,1.0,0.367292970419,-0.000210812897421,-0.0203463379294,1.21846967915e-07,0.0,0.0,0.0,1.21846967915e-07,0.0,0.0,0.0,1.21846967915e-07,0.8237586,0.57859235,10.7677017,9e-08,0.0,0.0,0.0,9e-08,0.0,0.0,0.0,9e-08
1539875359979020040,968,1539875359978648584,base_link,-0.0773306288652,0.00657592417407,-0.0392951288608,-0.996209126594,1.0,0.0,0.0,0.0,1.0,0.0,0.0,0.0,1.0,0.0676027908921,-0.00515487184748,-0.00291777262464,1.21846967915e-07,0.0,0.0,0.0,1.21846967915e-07,0.0,0.0,0.0,1.21846967915e-07,0.588399,0.46091255,9.7870367,9e-08,0.0,0.0,0.0,9e-08,0.0,0.0,0.0,9e-08
1539875360369270728,969,1539875360369018984,base_link,-0.0719377392429,0.0126029066977,-0.0354174133469,-0.996700424023,1.0,0.0,0.0,0.0,1.0,0.0,0.0,0.0,1.0,-0.23594981432,0.00120707950555,-0.062559813261,1.21846967915e-07,0.0,0.0,0.0,1.21846967915e-07,0.0,0.0,0.0,1.21846967915e-07,0.5099458,1.10815145,9.9831697,9e-08,0.0,0.0,0.0,9e-08,0.0,0.0,0.0,9e-08
1539875360745496584,970,1539875360744701608,base_link,-0.0290023488692,0.0161575811232,-0.0188041283786,-0.999271835432,1.0,0.0,0.0,0.0,1.0,0.0,0.0,0.0,1.0,-0.19052234292,-0.0512760318816,-0.0841571912169,1.21846967915e-07,0.0,0.0,0.0,1.21846967915e-07,0.0,0.0,0.0,1.21846967915e-07,0.57859235,0.75511205,11.48358715,9e-08,0.0,0.0,0.0,9e-08,0.0,0.0,0.0,9e-08
1539875361245023464,971,1539875361239236296,base_link,-0.0178238816671,0.0352386282975,-0.0171040096419,-0.999073571451,1.0,0.0,0.0,0.0,1.0,0.0,0.0,0.0,1.0,0.265609145164,-0.0805953294039,0.0683340579271,1.21846967915e-07,0.0,0.0,0.0,1.21846967915e-07,0.0,0.0,0.0,1.21846967915e-07,0.77472535,0.3726527,12.91535805,9e-08,0.0,0.0,0.0,9e-08,0.0,0.0,0.0,9e-08
1539875361691185768,972,1539875361690299272,base_link,-0.0514757706504,0.0450338213005,-0.0421225201863,-0.996768726068,1.0,0.0,0.0,0.0,1.0,0.0,0.0,0.0,1.0,0.026231167838,-0.0166124291718,0.0852673947811,1.21846967915e-07,0.0,0.0,0.0,1.21846967915e-07,0.0,0.0,0.0,1.21846967915e-07,0.83356525,1.28467115,12.07198615,9e-08,0.0,0.0,0.0,9e-08,0.0,0.0,0.0,9e-08
1539875361997472904,973,1539875361997143816,base_link,-0.0483742285952,0.0412701025247,-0.0407424622897,-0.997144304708,1.0,0.0,0.0,0.0,1.0,0.0,0.0,0.0,1.0,0.0672767609358,0.0295461881906,-0.0401016883552,1.21846967915e-07,0.0,0.0,0.0,1.21846967915e-07,0.0,0.0,0.0,1.21846967915e-07,0.85317855,0.50013915,10.03220295,9e-08,0.0,0.0,0.0,9e-08,0.0,0.0,0.0,9e-08
1539875362339615752,974,1539875362339177864,base_link,-0.0724385636852,0.0345176581028,-0.0374907621985,-0.996070092172,1.0,0.0,0.0,0.0,1.0,0.0,0.0,0.0,1.0,0.162048622966,0.0433277823031,-0.0204699095339,1.21846967915e-07,0.0,0.0,0.0,1.21846967915e-07,0.0,0.0,0.0,1.21846967915e-07,0.71588545,0.65704555,8.8455983,9e-08,0.0,0.0,0.0,9e-08,0.0,0.0,0.0,9e-08
1539875362771481928,975,1539875362771224040,base_link,-0.0857494042705,0.0216071428678,-0.0328075715302,-0.995541980177,1.0,0.0,0.0,0.0,1.0,0.0,0.0,0.0,1.0,0.00214085076004,0.047324359417,-0.011930745095,1.21846967915e-07,0.0,0.0,0.0,1.21846967915e-07,0.0,0.0,0.0,1.21846967915e-07,0.55897905,0.57859235,8.9044382,9e-08,0.0,0.0,0.0,9e-08,0.0,0.0,0.0,9e-08
1539875363124012904,976,1539875363117905032,base_link,-0.0976322817306,0.0132019818486,-0.0316782204791,-0.994630652849,1.0,0.0,0.0,0.0,1.0,0.0,0.0,0.0,1.0,0.0907599776983,0.023237163201,-0.00711972545832,1.21846967915e-07,0.0,0.0,0.0,1.21846967915e-07,0.0,0.0,0.0,1.21846967915e-07,0.6276256,0.55897905,8.14932615,9e-08,0.0,0.0,0.0,9e-08,0.0,0.0,0.0,9e-08
1539875363567840296,977,1539875363567613544,base_link,-0.0869236922566,0.00397028265972,-0.0203700862905,-0.995998779198,1.0,0.0,0.0,0.0,1.0,0.0,0.0,0.0,1.0,-0.0609456151724,0.02693233639,-0.0745986178517,1.21846967915e-07,0.0,0.0,0.0,1.21846967915e-07,0.0,0.0,0.0,1.21846967915e-07,0.6472389,0.51975245,9.62032365,9e-08,0.0,0.0,0.0,9e-08,0.0,0.0,0.0,9e-08
1539875363886266952,978,1539875363886056200,base_link,-0.0720614091791,0.00455162988053,-0.0141991621034,-0.997288734403,1.0,0.0,0.0,0.0,1.0,0.0,0.0,0.0,1.0,-0.0394889935851,-0.00258996291086,-0.0198729671538,1.21846967915e-07,0.0,0.0,0.0,1.21846967915e-07,0.0,0.0,0.0,1.21846967915e-07,0.85317855,0.75511205,9.5320638,9e-08,0.0,0.0,0.0,9e-08,0.0,0.0,0.0,9e-08
1539875364265570344,979,1539875364262821800,base_link,-0.0684823666802,0.00639283229701,-0.0116402185811,-0.997563934022,1.0,0.0,0.0,0.0,1.0,0.0,0.0,0.0,1.0,0.010007770732,0.0112719973549,0.000612328993157,1.21846967915e-07,0.0,0.0,0.0,1.21846967915e-07,0.0,0.0,0.0,1.21846967915e-07,0.73549875,0.57859235,10.50292215,9e-08,0.0,0.0,0.0,9e-08,0.0,0.0,0.0,9e-08
1539875364777957384,980,1539875364777533768,base_link,-0.0705824318652,0.00704900114561,-0.0128552930544,-0.997398201991,1.0,0.0,0.0,0.0,1.0,0.0,0.0,0.0,1.0,-0.117855280638,0.0038920158986,-0.00565904472023,1.21846967915e-07,0.0,0.0,0.0,1.21846967915e-07,0.0,0.0,0.0,1.21846967915e-07,0.9022118,0.85317855,9.03192465,9e-08,0.0,0.0,0.0,9e-08,0.0,0.0,0.0,9e-08
1539875365113328840,981,1539875365113023208,base_link,-0.0501905938237,0.010277497174,-0.0114193334125,-0.998621487936,1.0,0.0,0.0,0.0,1.0,0.0,0.0,0.0,1.0,-0.0526626072824,-0.0142059596255,0.0123526463285,1.21846967915e-07,0.0,0.0,0.0,1.21846967915e-07,0.0,0.0,0.0,1.21846967915e-07,0.7649187,0.5491724,10.6500219,9e-08,0.0,0.0,0.0,9e-08,0.0,0.0,0.0,9e-08
1539875365475498536,982,1539875365475111528,base_link,-0.0199568254743,0.0162103019021,-0.014131891457,-0.999569527783,1.0,0.0,0.0,0.0,1.0,0.0,0.0,0.0,1.0,-0.178176894784,-0.00184978917241,0.0446692854166,1.21846967915e-07,0.0,0.0,0.0,1.21846967915e-07,0.0,0.0,0.0,1.21846967915e-07,0.9610517,1.0591182,10.8461549,9e-08,0.0,0.0,0.0,9e-08,0.0,0.0,0.0,9e-08
1539875365823140200,983,1539875365822891368,base_link,-0.0095869169173,0.0139440466654,-0.0178309381471,-0.999697810456,1.0,0.0,0.0,0.0,1.0,0.0,0.0,0.0,1.0,0.0111075546592,0.0158313028514,0.0166547596455,1.21846967915e-07,0.0,0.0,0.0,1.21846967915e-07,0.0,0.0,0.0,1.21846967915e-07,1.0983448,0.97085835,10.4342756,9e-08,0.0,0.0,0.0,9e-08,0.0,0.0,0.0,9e-08
1539875366143436456,984,1539875366142994600,base_link,0.0214548337632,0.0158131888321,-0.0164925066026,-0.999508694506,1.0,0.0,0.0,0.0,1.0,0.0,0.0,0.0,1.0,-0.153074190021,-0.0196148492396,-0.00809154845774,1.21846967915e-07,0.0,0.0,0.0,1.21846967915e-07,0.0,0.0,0.0,1.21846967915e-07,1.01008495,0.42168595,11.22861425,9e-08,0.0,0.0,0.0,9e-08,0.0,0.0,0.0,9e-08
1539875366507718952,985,1539875366507296872,base_link,0.0196334004438,0.0191173002683,-0.0233017507924,-0.999352834002,1.0,0.0,0.0,0.0,1.0,0.0,0.0,0.0,1.0,-0.0101125370711,-0.0231764912605,0.068928308785,1.21846967915e-07,0.0,0.0,0.0,1.21846967915e-07,0.0,0.0,0.0,1.21846967915e-07,1.02969825,0.8629852,10.002783,9e-08,0.0,0.0,0.0,9e-08,0.0,0.0,0.0,9e-08
1539875366953010568,986,1539875366952621256,base_link,-0.00769030689954,0.0237840091518,-0.0317027874379,-0.999184724341,1.0,0.0,0.0,0.0,1.0,0.0,0.0,0.0,1.0,0.259223818779,-0.0459517724812,0.043576605618,1.21846967915e-07,0.0,0.0,0.0,1.21846967915e-07,0.0,0.0,0.0,1.21846967915e-07,1.0198916,0.12748645,10.36562905,9e-08,0.0,0.0,0.0,9e-08,0.0,0.0,0.0,9e-08
1539875367322712776,987,1539875367322415848,base_link,-0.0519774830012,0.0304528238965,-0.0446160120312,-0.997186230475,1.0,0.0,0.0,0.0,1.0,0.0,0.0,0.0,1.0,0.331293612719,-0.034052785486,0.0445293337107,1.21846967915e-07,0.0,0.0,0.0,1.21846967915e-07,0.0,0.0,0.0,1.21846967915e-07,0.8629852,0.79433865,10.2381426,9e-08,0.0,0.0,0.0,9e-08,0.0,0.0,0.0,9e-08
1539875367695730024,988,1539875367695420776,base_link,-0.0909824529186,0.0360227496992,-0.0489105459113,-0.993998145503,1.0,0.0,0.0,0.0,1.0,0.0,0.0,0.0,1.0,0.228733450174,0.00367812719196,-0.0332649275661,1.21846967915e-07,0.0,0.0,0.0,1.21846967915e-07,0.0,0.0,0.0,1.21846967915e-07,0.81395195,1.04931155,11.1403544,9e-08,0.0,0.0,0.0,9e-08,0.0,0.0,0.0,9e-08
1539875368126531144,989,1539875368126165832,base_link,-0.18153130303,0.0248974365457,-0.0268419836385,-0.982703419953,1.0,0.0,0.0,0.0,1.0,0.0,0.0,0.0,1.0,0.380353778601,-0.0154558019713,-0.106218144298,1.21846967915e-07,0.0,0.0,0.0,1.21846967915e-07,0.0,0.0,0.0,1.21846967915e-07,0.89240515,0.53936575,10.6107953,9e-08,0.0,0.0,0.0,9e-08,0.0,0.0,0.0,9e-08
1539875368458713000,990,1539875368458197064,base_link,-0.241854727435,0.0244882786992,-0.0176955396093,-0.969841988626,1.0,0.0,0.0,0.0,1.0,0.0,0.0,0.0,1.0,0.366619437933,-0.0154070723802,-0.0820330902934,1.21846967915e-07,0.0,0.0,0.0,1.21846967915e-07,0.0,0.0,0.0,1.21846967915e-07,0.8041453,0.9610517,10.56176205,9e-08,0.0,0.0,0.0,9e-08,0.0,0.0,0.0,9e-08
1539875368888250248,991,1539875368887842088,base_link,-0.303227357033,0.0145689153663,0.0215106968037,-0.952564017048,1.0,0.0,0.0,0.0,1.0,0.0,0.0,0.0,1.0,0.217814594507,-0.0174621455371,-0.353995800018,1.21846967915e-07,0.0,0.0,0.0,1.21846967915e-07,0.0,0.0,0.0,1.21846967915e-07,0.6080123,0.99047165,6.5116156,9e-08,0.0,0.0,0.0,9e-08,0.0,0.0,0.0,9e-08
1539875369152208200,992,1539875369151624840,base_link,-0.324827709202,0.0141047420737,0.0705454244159,-0.943033063407,1.0,0.0,0.0,0.0,1.0,0.0,0.0,0.0,1.0,0.0740472152829,-0.173093095422,-0.275622606277,1.21846967915e-07,0.0,0.0,0.0,1.21846967915e-07,0.0,0.0,0.0,1.21846967915e-07,0.7256921,0.7256921,10.22833595,9e-08,0.0,0.0,0.0,9e-08,0.0,0.0,0.0,9e-08
1539875369455280040,993,1539875369455037864,base_link,-0.337019664584,0.0348112232424,0.111385339277,-0.934237245358,1.0,0.0,0.0,0.0,1.0,0.0,0.0,0.0,1.0,0.0919554233551,-0.239329904318,-0.192768096924,1.21846967915e-07,0.0,0.0,0.0,1.21846967915e-07,0.0,0.0,0.0,1.21846967915e-07,0.8237586,1.0198916,11.81701325,9e-08,0.0,0.0,0.0,9e-08,0.0,0.0,0.0,9e-08
1539875369763129416,994,1539875369762835656,base_link,-0.346934900067,0.059614245044,0.14859136195,-0.924122786245,1.0,0.0,0.0,0.0,1.0,0.0,0.0,0.0,1.0,0.114424049854,-0.222657263279,-0.199359953403,1.21846967915e-07,0.0,0.0,0.0,1.21846967915e-07,0.0,0.0,0.0,1.21846967915e-07,1.0395049,1.2356379,12.2975391,9e-08,0.0,0.0,0.0,9e-08,0.0,0.0,0.0,9e-08
1539875370149078408,995,1539875370148773992,base_link,-0.35305506901,0.0883470383576,0.213296323677,-0.906670611284,1.0,0.0,0.0,0.0,1.0,0.0,0.0,0.0,1.0,0.132851213217,-0.214336380363,-0.339608728886,1.21846967915e-07,0.0,0.0,0.0,1.21846967915e-07,0.0,0.0,0.0,1.21846967915e-07,1.02969825,1.57887065,12.67999845,9e-08,0.0,0.0,0.0,9e-08,0.0,0.0,0.0,9e-08
1539875370520991912,996,1539875370520655240,base_link,-0.363624787124,0.110247331991,0.290790672381,-0.878102115266,1.0,0.0,0.0,0.0,1.0,0.0,0.0,0.0,1.0,0.110871188343,-0.275215595961,-0.349899381399,1.21846967915e-07,0.0,0.0,0.0,1.21846967915e-07,0.0,0.0,0.0,1.21846967915e-07,1.1964113,1.2552512,10.38524235,9e-08,0.0,0.0,0.0,9e-08,0.0,0.0,0.0,9e-08
1539875370969693608,997,1539875370969237768,base_link,-0.360310990455,0.162437139903,0.368240052328,-0.84153991563,1.0,0.0,0.0,0.0,1.0,0.0,0.0,0.0,1.0,0.0355772189796,-0.356282651424,-0.197083905339,1.21846967915e-07,0.0,0.0,0.0,1.21846967915e-07,0.0,0.0,0.0,1.21846967915e-07,1.6867438,0.89240515,12.97419795,9e-08,0.0,0.0,0.0,9e-08,0.0,0.0,0.0,9e-08
1539875371294193224,998,1539875371293952712,base_link,-0.350133693974,0.2051530193,0.414382998428,-0.814619767518,1.0,0.0,0.0,0.0,1.0,0.0,0.0,0.0,1.0,0.0514883995056,-0.361991852522,-0.202211484313,1.21846967915e-07,0.0,0.0,0.0,1.21846967915e-07,0.0,0.0,0.0,1.21846967915e-07,2.04958985,1.2552512,13.9058297,9e-08,0.0,0.0,0.0,9e-08,0.0,0.0,0.0,9e-08
1539875371739930984,999,1539875371738527240,base_link,-0.318058809246,0.245450524596,0.493391727154,-0.771464346171,1.0,0.0,0.0,0.0,1.0,0.0,0.0,0.0,1.0,-0.0806468501687,-0.358198821545,-0.334991872311,1.21846967915e-07,0.0,0.0,0.0,1.21846967915e-07,0.0,0.0,0.0,1.21846967915e-07,-0.2157463,1.8436502,15.0237878,9e-08,0.0,0.0,0.0,9e-08,0.0,0.0,0.0,9e-08
1539875372132791496,1000,1539875372132404648,base_link,-0.274522918246,0.243838867674,0.585918112477,-0.722412444135,1.0,0.0,0.0,0.0,1.0,0.0,0.0,0.0,1.0,-0.130393519998,-0.222322642803,-0.421443492174,1.21846967915e-07,0.0,0.0,0.0,1.21846967915e-07,0.0,0.0,0.0,1.21846967915e-07,-1.52003075,0.7060788,11.85623985,9e-08,0.0,0.0,0.0,9e-08,0.0,0.0,0.0,9e-08
1539875372555552840,1001,1539875372554981032,base_link,-0.242023047231,0.23191550569,0.650343651698,-0.681684074572,1.0,0.0,0.0,0.0,1.0,0.0,0.0,0.0,1.0,-0.402245610952,-0.0864030569792,-0.249332070351,1.21846967915e-07,0.0,0.0,0.0,1.21846967915e-07,0.0,0.0,0.0,1.21846967915e-07,-1.50041745,0.50013915,12.07198615,9e-08,0.0,0.0,0.0,9e-08,0.0,0.0,0.0,9e-08
1539875372886404136,1002,1539875372884748552,base_link,0.202639907792,-0.166353068811,-0.698178346025,0.666191204842,1.0,0.0,0.0,0.0,1.0,0.0,0.0,0.0,1.0,-0.18771956861,0.156625315547,-0.325850188732,1.21846967915e-07,0.0,0.0,0.0,1.21846967915e-07,0.0,0.0,0.0,1.21846967915e-07,-1.59848395,1.14737805,7.2765343,9e-08,0.0,0.0,0.0,9e-08,0.0,0.0,0.0,9e-08
1539875373267348136,1003,1539875373262232328,base_link,0.213469276368,-0.117875680625,-0.741395837343,0.625194693144,1.0,0.0,0.0,0.0,1.0,0.0,0.0,0.0,1.0,-0.241348087788,0.0660945624113,-0.315300703049,1.21846967915e-07,0.0,0.0,0.0,1.21846967915e-07,0.0,0.0,0.0,1.21846967915e-07,-1.55925735,0.784532,8.12971285,9e-08,0.0,0.0,0.0,9e-08,0.0,0.0,0.0,9e-08
1539875373681286472,1004,1539875373681067880,base_link,0.182569394994,-0.02602897675,-0.769791440778,0.611074501257,1.0,0.0,0.0,0.0,1.0,0.0,0.0,0.0,1.0,-0.577405035496,0.169944390655,-0.127661585808,1.21846967915e-07,0.0,0.0,0.0,1.21846967915e-07,0.0,0.0,0.0,1.21846967915e-07,-1.69655045,0.51975245,4.16782625,9e-08,0.0,0.0,0.0,9e-08,0.0,0.0,0.0,9e-08
1539875374155922408,1005,1539875374155501960,base_link,0.136797461481,0.0695001997352,-0.766613740437,0.623505853816,1.0,0.0,0.0,0.0,1.0,0.0,0.0,0.0,1.0,-0.178862482309,0.0969184264541,-0.00406339205801,1.21846967915e-07,0.0,0.0,0.0,1.21846967915e-07,0.0,0.0,0.0,1.21846967915e-07,-1.7455837,0.65704555,8.7867584,9e-08,0.0,0.0,0.0,9e-08,0.0,0.0,0.0,9e-08
1539875374406487944,1006,1539875374406166472,base_link,0.132447707567,0.100842062165,-0.762308369739,0.625439391696,1.0,0.0,0.0,0.0,1.0,0.0,0.0,0.0,1.0,-0.334609091282,0.158952355385,0.0109829325229,1.21846967915e-07,0.0,0.0,0.0,1.21846967915e-07,0.0,0.0,0.0,1.21846967915e-07,-1.9221034,0.59820565,8.93385815,9e-08,0.0,0.0,0.0,9e-08,0.0,0.0,0.0,9e-08
1539875374876759528,1007,1539875374876351528,base_link,0.150275940601,0.115385914788,-0.759282208969,0.622570284777,1.0,0.0,0.0,0.0,1.0,0.0,0.0,0.0,1.0,-0.220202282071,0.0549530647695,0.0525496900082,1.21846967915e-07,0.0,0.0,0.0,1.21846967915e-07,0.0,0.0,0.0,1.21846967915e-07,-1.8828768,0.32361945,9.8262633,9e-08,0.0,0.0,0.0,9e-08,0.0,0.0,0.0,9e-08
1539875375377687240,1008,1539875375375479336,base_link,0.159445864721,0.11583734001,-0.742801996183,0.639846795217,1.0,0.0,0.0,0.0,1.0,0.0,0.0,0.0,1.0,0.24917447567,0.0202097445726,0.192954868078,1.21846967915e-07,0.0,0.0,0.0,1.21846967915e-07,0.0,0.0,0.0,1.21846967915e-07,-2.10842975,1.32226604687e-15,10.79712165,9e-08,0.0,0.0,0.0,9e-08,0.0,0.0,0.0,9e-08
1539875375711636328,1009,1539875375710671656,base_link,0.171316770062,0.0896477536313,-0.722952858106,0.663289536719,1.0,0.0,0.0,0.0,1.0,0.0,0.0,0.0,1.0,-0.251777470112,-0.0456008128822,0.180261671543,1.21846967915e-07,0.0,0.0,0.0,1.21846967915e-07,0.0,0.0,0.0,1.21846967915e-07,-2.08881645,0.392266,13.9058297,9e-08,0.0,0.0,0.0,9e-08,0.0,0.0,0.0,9e-08
1539875376055410760,1010,1539875376054939336,base_link,0.120340478506,0.140408601818,-0.703095394672,0.686629783624,1.0,0.0,0.0,0.0,1.0,0.0,0.0,0.0,1.0,-0.326154023409,0.0275843143463,-0.0223113261163,1.21846967915e-07,0.0,0.0,0.0,1.21846967915e-07,0.0,0.0,0.0,1.21846967915e-07,-2.30456275,1.9221034,8.0022264,9e-08,0.0,0.0,0.0,9e-08,0.0,0.0,0.0,9e-08
1539875376549062632,1011,1539875376545669992,base_link,0.108408112902,0.153835295576,-0.734431046825,0.652068570283,1.0,0.0,0.0,0.0,1.0,0.0,0.0,0.0,1.0,0.232285648584,-0.0482974201441,-0.290415585041,1.21846967915e-07,0.0,0.0,0.0,1.21846967915e-07,0.0,0.0,0.0,1.21846967915e-07,-2.3732093,0.9218251,4.9229383,9e-08,0.0,0.0,0.0,9e-08,0.0,0.0,0.0,9e-08
1539875376919319112,1012,1539875376918949736,base_link,0.119453661839,0.108220502697,-0.763269292119,0.625650967535,1.0,0.0,0.0,0.0,1.0,0.0,0.0,0.0,1.0,-0.0762110725045,-0.107846647501,0.0232205428183,1.21846967915e-07,0.0,0.0,0.0,1.21846967915e-07,0.0,0.0,0.0,1.21846967915e-07,-2.32417605,0.2549729,13.17033095,9e-08,0.0,0.0,0.0,9e-08,0.0,0.0,0.0,9e-08
1539875377371664552,1013,1539875377371426504,base_link,0.113987636959,0.0914969777436,-0.720629926484,0.677737139856,1.0,0.0,0.0,0.0,1.0,0.0,0.0,0.0,1.0,-0.188147366047,-0.120696887374,0.45098093152,1.21846967915e-07,0.0,0.0,0.0,1.21846967915e-07,0.0,0.0,0.0,1.21846967915e-07,-2.75566865,1.2552512,10.1204628,9e-08,0.0,0.0,0.0,9e-08,0.0,0.0,0.0,9e-08
1539875377756108392,1014,1539875377755594632,base_link,-0.0695975110154,-0.114211429965,0.694593996064,-0.706860040148,1.0,0.0,0.0,0.0,1.0,0.0,0.0,0.0,1.0,-0.0674354210496,-0.0102637214586,-0.103471107781,1.21846967915e-07,0.0,0.0,0.0,1.21846967915e-07,0.0,0.0,0.0,1.21846967915e-07,-2.5889556,0.6472389,10.395049,9e-08,0.0,0.0,0.0,9e-08,0.0,0.0,0.0,9e-08
1539875378123414216,1015,1539875378123124552,base_link,0.0619754998424,0.1117407326,-0.708099200879,0.694455590957,1.0,0.0,0.0,0.0,1.0,0.0,0.0,0.0,1.0,-0.100815504789,-0.010301426053,-0.0360376387835,1.21846967915e-07,0.0,0.0,0.0,1.21846967915e-07,0.0,0.0,0.0,1.21846967915e-07,-2.59876225,0.196133,12.1210194,9e-08,0.0,0.0,0.0,9e-08,0.0,0.0,0.0,9e-08
1539875378547238984,1016,1539875378546936328,base_link,0.0681482693727,0.0943966350377,-0.712470239124,0.69197633416,1.0,0.0,0.0,0.0,1.0,0.0,0.0,0.0,1.0,0.293291836977,-0.0161625407636,0.0252927467227,1.21846967915e-07,0.0,0.0,0.0,1.21846967915e-07,0.0,0.0,0.0,1.21846967915e-07,-2.4908891,-0.28439285,11.01286795,9e-08,0.0,0.0,0.0,9e-08,0.0,0.0,0.0,9e-08
1539875378986398056,1017,1539875378985958760,base_link,-0.0891363275771,-0.0710997481689,0.702635727869,-0.702355020512,1.0,0.0,0.0,0.0,1.0,0.0,0.0,0.0,1.0,0.468601673841,0.0353232733905,0.0515239015222,1.21846967915e-07,0.0,0.0,0.0,1.21846967915e-07,0.0,0.0,0.0,1.21846967915e-07,-2.3928226,0.83356525,9.44380395,9e-08,0.0,0.0,0.0,9e-08,0.0,0.0,0.0,9e-08
1539875379405986696,1018,1539875379405719720,base_link,0.203618127051,-0.0429836114101,-0.712292304393,0.670322117037,1.0,0.0,0.0,0.0,1.0,0.0,0.0,0.0,1.0,0.820622503757,0.00219253846444,-0.093390442431,1.21846967915e-07,0.0,0.0,0.0,1.21846967915e-07,0.0,0.0,0.0,1.21846967915e-07,-2.4320492,0.73549875,8.3552658,9e-08,0.0,0.0,0.0,9e-08,0.0,0.0,0.0,9e-08
1539875379742625416,1019,1539875379742432744,base_link,0.263606969483,-0.109467187627,-0.716079073336,0.636992198699,1.0,0.0,0.0,0.0,1.0,0.0,0.0,0.0,1.0,0.367252588272,-0.0534207820892,-0.127481788397,1.21846967915e-07,0.0,0.0,0.0,1.21846967915e-07,0.0,0.0,0.0,1.21846967915e-07,-2.36340265,0.22555295,8.5121722,9e-08,0.0,0.0,0.0,9e-08,0.0,0.0,0.0,9e-08
1539875380186397352,1020,1539875380184683496,base_link,0.289331452546,-0.172491729862,-0.739006428019,0.583441010766,1.0,0.0,0.0,0.0,1.0,0.0,0.0,0.0,1.0,0.397088885307,-0.216054752469,-0.213160201907,1.21846967915e-07,0.0,0.0,0.0,1.21846967915e-07,0.0,0.0,0.0,1.21846967915e-07,-2.2947561,1.0002783,11.3168741,9e-08,0.0,0.0,0.0,9e-08,0.0,0.0,0.0,9e-08
1539875380655644264,1021,1539875380655354344,base_link,0.278703654293,-0.232316710793,-0.77733271653,0.513913481807,1.0,0.0,0.0,0.0,1.0,0.0,0.0,0.0,1.0,0.168743163347,-0.316369533539,-0.240186944604,1.21846967915e-07,0.0,0.0,0.0,1.21846967915e-07,0.0,0.0,0.0,1.21846967915e-07,-2.2751428,1.38273765,11.99353295,9e-08,0.0,0.0,0.0,9e-08,0.0,0.0,0.0,9e-08
1539875380912049000,1022,1539875380910131208,base_link,0.260827167542,-0.254360139423,-0.802258044221,0.472918744212,1.0,0.0,0.0,0.0,1.0,0.0,0.0,0.0,1.0,0.0215472541749,-0.374104827642,-0.325601160526,1.21846967915e-07,0.0,0.0,0.0,1.21846967915e-07,0.0,0.0,0.0,1.21846967915e-07,-2.2555295,1.5494507,13.87640975,9e-08,0.0,0.0,0.0,9e-08,0.0,0.0,0.0,9e-08
1539875381355912328,1023,1539875381355456488,base_link,0.198113116375,-0.274226152758,-0.854597798226,0.393971843576,1.0,0.0,0.0,0.0,1.0,0.0,0.0,0.0,1.0,-0.144361793995,-0.419618308544,-0.269371420145,1.21846967915e-07,0.0,0.0,0.0,1.21846967915e-07,0.0,0.0,0.0,1.21846967915e-07,-1.87307015,1.1179581,15.77889985,9e-08,0.0,0.0,0.0,9e-08,0.0,0.0,0.0,9e-08
1539875381657385512,1024,1539875381656930248,base_link,0.156869260703,-0.288012381694,-0.880435814287,0.342452449193,1.0,0.0,0.0,0.0,1.0,0.0,0.0,0.0,1.0,0.00027008773759,-0.395318359137,-0.251355856657,1.21846967915e-07,0.0,0.0,0.0,1.21846967915e-07,0.0,0.0,0.0,1.21846967915e-07,-1.765197,1.0983448,14.7295883,9e-08,0.0,0.0,0.0,9e-08,0.0,0.0,0.0,9e-08
1539875382105470216,1025,1539875382105236200,base_link,0.0912278811233,-0.299153780956,-0.911198199914,0.268146097342,1.0,0.0,0.0,0.0,1.0,0.0,0.0,0.0,1.0,-0.0743719562888,-0.350693464279,-0.2775862813,1.21846967915e-07,0.0,0.0,0.0,1.21846967915e-07,0.0,0.0,0.0,1.21846967915e-07,-1.5886773,1.30428445,14.8472681,9e-08,0.0,0.0,0.0,9e-08,0.0,0.0,0.0,9e-08
1539875382444157640,1026,1539875382443736936,base_link,0.0538017453392,-0.326555837241,-0.922628496594,0.198048768323,1.0,0.0,0.0,0.0,1.0,0.0,0.0,0.0,1.0,0.126811489463,-0.359425544739,-0.320087879896,1.21846967915e-07,0.0,0.0,0.0,1.21846967915e-07,0.0,0.0,0.0,1.21846967915e-07,-1.26505785,0.73549875,14.709975,9e-08,0.0,0.0,0.0,9e-08,0.0,0.0,0.0,9e-08
1539875382854711240,1027,1539875382854260520,base_link,0.0118357736703,-0.327109848476,-0.937083953249,0.121378441471,1.0,0.0,0.0,0.0,1.0,0.0,0.0,0.0,1.0,0.0340547598898,-0.28773650527,-0.306796699762,1.21846967915e-07,0.0,0.0,0.0,1.21846967915e-07,0.0,0.0,0.0,1.21846967915e-07,-1.08853815,0.83356525,12.13082605,9e-08,0.0,0.0,0.0,9e-08,0.0,0.0,0.0,9e-08
1539875383376652104,1028,1539875383375989672,base_link,-0.0226209538062,-0.333191072916,-0.942496647263,0.0131175941168,1.0,0.0,0.0,0.0,1.0,0.0,0.0,0.0,1.0,-0.0440301932395,-0.200640395284,-0.350616902113,1.21846967915e-07,0.0,0.0,0.0,1.21846967915e-07,0.0,0.0,0.0,1.21846967915e-07,-0.9610517,0.85317855,10.6500219,9e-08,0.0,0.0,0.0,9e-08,0.0,0.0,0.0,9e-08
