%time,field.header.seq,field.header.stamp,field.header.frame_id,field.orientation.x,field.orientation.y,field.orientation.z,field.orientation.w,field.orientation_covariance0,field.orientation_covariance1,field.orientation_covariance2,field.orientation_covariance3,field.orientation_covariance4,field.orientation_covariance5,field.orientation_covariance6,field.orientation_covariance7,field.orientation_covariance8,field.angular_velocity.x,field.angular_velocity.y,field.angular_velocity.z,field.angular_velocity_covariance0,field.angular_velocity_covariance1,field.angular_velocity_covariance2,field.angular_velocity_covariance3,field.angular_velocity_covariance4,field.angular_velocity_covariance5,field.angular_velocity_covariance6,field.angular_velocity_covariance7,field.angular_velocity_covariance8,field.linear_acceleration.x,field.linear_acceleration.y,field.linear_acceleration.z,field.linear_acceleration_covariance0,field.linear_acceleration_covariance1,field.linear_acceleration_covariance2,field.linear_acceleration_covariance3,field.linear_acceleration_covariance4,field.linear_acceleration_covariance5,field.linear_acceleration_covariance6,field.linear_acceleration_covariance7,field.linear_acceleration_covariance8
1536693065209189720,1143,1536693065208821848,base_link,0.0159276822204,-0.0388077308583,-0.996085707281,0.0778044517711,1.0,0.0,0.0,0.0,1.0,0.0,0.0,0.0,1.0,0.917758345604,0.0294363256544,-0.0738326013088,1.21846967915e-07,0.0,0.0,0.0,1.21846967915e-07,0.0,0.0,0.0,1.21846967915e-07,-0.55897905,0.4511059,10.18910935,9e-08,0.0,0.0,0.0,9e-08,0.0,0.0,0.0,9e-08
1536693065538151704,1144,1536693065537869688,base_link,0.0297258960275,-0.203602955977,-0.976524544083,0.0637339958401,1.0,0.0,0.0,0.0,1.0,0.0,0.0,0.0,1.0,0.900783777237,0.0314983651042,-0.0634310096502,1.21846967915e-07,0.0,0.0,0.0,1.21846967915e-07,0.0,0.0,0.0,1.21846967915e-07,-1.0983448,0.5099458,10.46369555,9e-08,0.0,0.0,0.0,9e-08,0.0,0.0,0.0,9e-08
1536693065821093112,1145,1536693065820802840,base_link,0.024485525433,-0.284451030919,-0.957520293231,0.0405334195871,1.0,0.0,0.0,0.0,1.0,0.0,0.0,0.0,1.0,0.374801874161,-0.171544104815,-0.185962826014,1.21846967915e-07,0.0,0.0,0.0,1.21846967915e-07,0.0,0.0,0.0,1.21846967915e-07,-0.8825985,0.8825985,9.95374975,9e-08,0.0,0.0,0.0,9e-08,0.0,0.0,0.0,9e-08
1536693066214254904,1146,1536693066212847736,base_link,-5.9049789019e-05,-0.319346443046,-0.947526697323,-0.0145259660021,1.0,0.0,0.0,0.0,1.0,0.0,0.0,0.0,1.0,0.0738962218165,-0.256363451481,-0.218438372016,1.21846967915e-07,0.0,0.0,0.0,1.21846967915e-07,0.0,0.0,0.0,1.21846967915e-07,-0.0784532,0.69627215,12.20927925,9e-08,0.0,0.0,0.0,9e-08,0.0,0.0,0.0,9e-08
1536693066573322296,1147,1536693066573099896,base_link,-0.048732086025,-0.344221646799,-0.935538727011,-0.0624814526853,1.0,0.0,0.0,0.0,1.0,0.0,0.0,0.0,1.0,0.116720892489,-0.262916684151,-0.15443430841,1.21846967915e-07,0.0,0.0,0.0,1.21846967915e-07,0.0,0.0,0.0,1.21846967915e-07,0.5099458,2.12804305,13.9450563,9e-08,0.0,0.0,0.0,9e-08,0.0,0.0,0.0,9e-08
1536693067076259192,1148,1536693067076021944,base_link,-0.112294306326,-0.368936375572,-0.905821109866,-0.175396854212,1.0,0.0,0.0,0.0,1.0,0.0,0.0,0.0,1.0,0.275217622519,-0.3511929214,-0.304215073586,1.21846967915e-07,0.0,0.0,0.0,1.21846967915e-07,0.0,0.0,0.0,1.21846967915e-07,0.9022118,1.12776475,13.46453045,9e-08,0.0,0.0,0.0,9e-08,0.0,0.0,0.0,9e-08
1536693067470539192,1149,1536693067466823704,base_link,-0.172940001951,-0.345935617304,-0.887404016552,-0.250867327112,1.0,0.0,0.0,0.0,1.0,0.0,0.0,0.0,1.0,-0.424947112799,-0.491739779711,-0.168511465192,1.21846967915e-07,0.0,0.0,0.0,1.21846967915e-07,0.0,0.0,0.0,1.21846967915e-07,1.18660465,1.2160246,17.2008641,9e-08,0.0,0.0,0.0,9e-08,0.0,0.0,0.0,9e-08
1536693067886041688,1150,1536693067885628376,base_link,-0.217522677871,-0.309678831289,-0.871557091615,-0.311722861076,1.0,0.0,0.0,0.0,1.0,0.0,0.0,0.0,1.0,-0.12074765563,-0.195877581835,-0.285650193691,1.21846967915e-07,0.0,0.0,0.0,1.21846967915e-07,0.0,0.0,0.0,1.21846967915e-07,0.89240515,1.52003075,11.9052731,9e-08,0.0,0.0,0.0,9e-08,0.0,0.0,0.0,9e-08
1536693068225090584,1151,1536693068224625944,base_link,-0.226683429485,-0.300366589095,-0.844180872148,-0.381776361305,1.0,0.0,0.0,0.0,1.0,0.0,0.0,0.0,1.0,0.0281187146902,-0.197060450912,-0.387039899826,1.21846967915e-07,0.0,0.0,0.0,1.21846967915e-07,0.0,0.0,0.0,1.21846967915e-07,0.61781895,1.3140911,11.71894675,9e-08,0.0,0.0,0.0,9e-08,0.0,0.0,0.0,9e-08
1536693068523206776,1152,1536693068522870232,base_link,-0.241756526563,-0.299424305747,-0.81182675451,-0.439131173631,1.0,0.0,0.0,0.0,1.0,0.0,0.0,0.0,1.0,0.00092077604495,-0.229396745563,-0.327281266451,1.21846967915e-07,0.0,0.0,0.0,1.21846967915e-07,0.0,0.0,0.0,1.21846967915e-07,0.38245935,0.9414384,11.03248125,9e-08,0.0,0.0,0.0,9e-08,0.0,0.0,0.0,9e-08
1536693068909638296,1153,1536693068909041112,base_link,-0.259092686041,-0.304571903766,-0.773317154756,-0.492023895391,1.0,0.0,0.0,0.0,1.0,0.0,0.0,0.0,1.0,0.151474922895,-0.193663582206,-0.286634832621,1.21846967915e-07,0.0,0.0,0.0,1.21846967915e-07,0.0,0.0,0.0,1.21846967915e-07,0.1372931,1.0002783,10.4735022,9e-08,0.0,0.0,0.0,9e-08,0.0,0.0,0.0,9e-08
1536693069239592600,1154,1536693069239271064,base_link,-0.277478456099,-0.314337453858,-0.732774729348,-0.535946702138,1.0,0.0,0.0,0.0,1.0,0.0,0.0,0.0,1.0,0.0255481433123,-0.21625252068,-0.328658789396,1.21846967915e-07,0.0,0.0,0.0,1.21846967915e-07,0.0,0.0,0.0,1.21846967915e-07,0.196133,1.176798,9.48303055,9e-08,0.0,0.0,0.0,9e-08,0.0,0.0,0.0,9e-08
1536693069601731960,1155,1536693069601323864,base_link,-0.277750525224,-0.294695786655,-0.691851741669,-0.59778776051,1.0,0.0,0.0,0.0,1.0,0.0,0.0,0.0,1.0,-0.141725346446,-0.252259582281,-0.340587973595,1.21846967915e-07,0.0,0.0,0.0,1.21846967915e-07,0.0,0.0,0.0,1.21846967915e-07,0.0980665,1.04931155,11.1207411,9e-08,0.0,0.0,0.0,9e-08,0.0,0.0,0.0,9e-08
1536693070117283800,1156,1536693070110229240,base_link,-0.262577673152,-0.249289360598,-0.633747424504,-0.683572953085,1.0,0.0,0.0,0.0,1.0,0.0,0.0,0.0,1.0,-0.338579207659,-0.163069546223,-0.311292380095,1.21846967915e-07,0.0,0.0,0.0,1.21846967915e-07,0.0,0.0,0.0,1.21846967915e-07,-0.04903325,1.01008495,11.11093445,9e-08,0.0,0.0,0.0,9e-08,0.0,0.0,0.0,9e-08
1536693070459347256,1157,1536693070459143032,base_link,-0.23927980455,-0.223349220111,-0.595683658466,-0.733499338818,1.0,0.0,0.0,0.0,1.0,0.0,0.0,0.0,1.0,-0.456024229527,-0.147670432925,-0.325782924891,1.21846967915e-07,0.0,0.0,0.0,1.21846967915e-07,0.0,0.0,0.0,1.21846967915e-07,-0.20593965,1.04931155,8.14932615,9e-08,0.0,0.0,0.0,9e-08,0.0,0.0,0.0,9e-08
1536693070885780504,1158,1536693070885286968,base_link,-0.185408371551,-0.163116346877,-0.560663564497,-0.790362676615,1.0,0.0,0.0,0.0,1.0,0.0,0.0,0.0,1.0,-0.295255094767,-0.110311426222,-0.207042530179,1.21846967915e-07,0.0,0.0,0.0,1.21846967915e-07,0.0,0.0,0.0,1.21846967915e-07,-0.392266,0.77472535,9.75761675,9e-08,0.0,0.0,0.0,9e-08,0.0,0.0,0.0,9e-08
1536693071302627800,1159,1536693071302231896,base_link,-0.124816092339,-0.103508069877,-0.538557027729,-0.826839374031,1.0,0.0,0.0,0.0,1.0,0.0,0.0,0.0,1.0,-0.557935714722,-0.0999332740903,-0.133444055915,1.21846967915e-07,0.0,0.0,0.0,1.21846967915e-07,0.0,0.0,0.0,1.21846967915e-07,-0.16671305,0.7453054,11.571847,9e-08,0.0,0.0,0.0,9e-08,0.0,0.0,0.0,9e-08
1536693071623564152,1160,1536693071623255640,base_link,-0.0447726007228,-0.0466044732956,-0.526892751612,-0.847471218149,1.0,0.0,0.0,0.0,1.0,0.0,0.0,0.0,1.0,-0.481946825981,0.0447895303369,-0.100145570934,1.21846967915e-07,0.0,0.0,0.0,1.21846967915e-07,0.0,0.0,0.0,1.21846967915e-07,-0.3138128,0.71588545,11.4541672,9e-08,0.0,0.0,0.0,9e-08,0.0,0.0,0.0,9e-08
1536693072037814776,1161,1536693072037474296,base_link,0.0410312081369,0.000785890696861,-0.517997375312,-0.854397180183,1.0,0.0,0.0,0.0,1.0,0.0,0.0,0.0,1.0,-0.385288149118,0.0210474040359,-0.00508225429803,1.21846967915e-07,0.0,0.0,0.0,1.21846967915e-07,0.0,0.0,0.0,1.21846967915e-07,-0.44129925,0.3726527,9.7281968,9e-08,0.0,0.0,0.0,9e-08,0.0,0.0,0.0,9e-08
1536693072299698808,1162,1536693072299432088,base_link,0.0690265866169,0.0173200718701,-0.522012434924,-0.849963742306,1.0,0.0,0.0,0.0,1.0,0.0,0.0,0.0,1.0,-0.255112439394,0.00756407622248,0.0830120593309,1.21846967915e-07,0.0,0.0,0.0,1.21846967915e-07,0.0,0.0,0.0,1.21846967915e-07,-0.44129925,0.26477955,10.22833595,9e-08,0.0,0.0,0.0,9e-08,0.0,0.0,0.0,9e-08
1536693072585331576,1163,1536693072583037208,base_link,0.0936080695327,0.0286272883014,-0.535638155067,-0.838754895377,1.0,0.0,0.0,0.0,1.0,0.0,0.0,0.0,1.0,-0.156515076756,0.0302003473043,0.127579852939,1.21846967915e-07,0.0,0.0,0.0,1.21846967915e-07,0.0,0.0,0.0,1.21846967915e-07,-0.40207265,0.4707192,10.44408225,9e-08,0.0,0.0,0.0,9e-08,0.0,0.0,0.0,9e-08
1536693073008883256,1164,1536693073008547096,base_link,0.114586013186,0.0356390154916,-0.550756171431,-0.825994882422,1.0,0.0,0.0,0.0,1.0,0.0,0.0,0.0,1.0,-0.0616481974721,-0.0363528840244,0.0641328319907,1.21846967915e-07,0.0,0.0,0.0,1.21846967915e-07,0.0,0.0,0.0,1.21846967915e-07,-0.51975245,0.48052585,9.6693569,9e-08,0.0,0.0,0.0,9e-08,0.0,0.0,0.0,9e-08
1536693073391603704,1165,1536693073388178616,base_link,0.105661837557,0.0228963677282,-0.561779844727,-0.820191891259,1.0,0.0,0.0,0.0,1.0,0.0,0.0,0.0,1.0,0.0577099137008,0.131788671017,0.0835683867335,1.21846967915e-07,0.0,0.0,0.0,1.21846967915e-07,0.0,0.0,0.0,1.21846967915e-07,-0.48052585,0.34323275,9.52225715,9e-08,0.0,0.0,0.0,9e-08,0.0,0.0,0.0,9e-08
1536693073821090296,1166,1536693073820752152,base_link,0.0964051688489,0.0025067717388,-0.581145862741,-0.808065124686,1.0,0.0,0.0,0.0,1.0,0.0,0.0,0.0,1.0,0.0314449816942,0.0667289793491,0.126451954246,1.21846967915e-07,0.0,0.0,0.0,1.21846967915e-07,0.0,0.0,0.0,1.21846967915e-07,-0.53936575,0.2353596,9.218251,9e-08,0.0,0.0,0.0,9e-08,0.0,0.0,0.0,9e-08
1536693074175142552,1167,1536693074174643576,base_link,0.0816182545775,-0.0133872735815,-0.60430204001,-0.792450809745,1.0,0.0,0.0,0.0,1.0,0.0,0.0,0.0,1.0,0.182538866997,-0.0405078865588,0.199159830809,1.21846967915e-07,0.0,0.0,0.0,1.21846967915e-07,0.0,0.0,0.0,1.21846967915e-07,-0.40207265,0.36284605,9.60071035,9e-08,0.0,0.0,0.0,9e-08,0.0,0.0,0.0,9e-08
1536693074473109848,1168,1536693074471450904,base_link,0.0650272079296,-0.0157779973824,-0.626058451781,-0.776899821071,1.0,0.0,0.0,0.0,1.0,0.0,0.0,0.0,1.0,0.0594410933554,-0.103065676987,0.144799262285,1.21846967915e-07,0.0,0.0,0.0,1.21846967915e-07,0.0,0.0,0.0,1.21846967915e-07,-0.2353596,0.8237586,11.4149406,9e-08,0.0,0.0,0.0,9e-08,0.0,0.0,0.0,9e-08
1536693075028190840,1169,1536693075027898328,base_link,0.0285501888157,-0.0096701133702,-0.640909313156,-0.767024528901,1.0,0.0,0.0,0.0,1.0,0.0,0.0,0.0,1.0,0.167609885335,-0.0997161269188,-0.0122239310294,1.21846967915e-07,0.0,0.0,0.0,1.21846967915e-07,0.0,0.0,0.0,1.21846967915e-07,-0.0784532,0.8629852,12.50347875,9e-08,0.0,0.0,0.0,9e-08,0.0,0.0,0.0,9e-08
1536693075326168472,1170,1536693075325695960,base_link,-0.00155726436839,-0.0206470355594,-0.63763058566,-0.770063965578,1.0,0.0,0.0,0.0,1.0,0.0,0.0,0.0,1.0,0.267267972231,-0.0578112117946,-0.0293370503932,1.21846967915e-07,0.0,0.0,0.0,1.21846967915e-07,0.0,0.0,0.0,1.21846967915e-07,-0.08825985,0.6276256,11.7875933,9e-08,0.0,0.0,0.0,9e-08,0.0,0.0,0.0,9e-08
1536693075671139448,1171,1536693075670513176,base_link,-0.0620801807102,-0.0587755016263,-0.632273751492,-0.770013892567,1.0,0.0,0.0,0.0,1.0,0.0,0.0,0.0,1.0,0.382258951664,-0.0528421849012,0.0184028018266,1.21846967915e-07,0.0,0.0,0.0,1.21846967915e-07,0.0,0.0,0.0,1.21846967915e-07,-0.0588399,0.5099458,12.77806495,9e-08,0.0,0.0,0.0,9e-08,0.0,0.0,0.0,9e-08
1536693076126339736,1172,1536693076125427064,base_link,-0.0943191919344,-0.0921123483007,-0.630995537005,-0.764502346368,1.0,0.0,0.0,0.0,1.0,0.0,0.0,0.0,1.0,0.167849615216,0.0309430323541,-0.0760211348534,1.21846967915e-07,0.0,0.0,0.0,1.21846967915e-07,0.0,0.0,0.0,1.21846967915e-07,-0.3334261,0.8825985,9.4339973,9e-08,0.0,0.0,0.0,9e-08,0.0,0.0,0.0,9e-08
1536693076485875416,1173,1536693076484336344,base_link,-0.105602556619,-0.113784737179,-0.609750242623,-0.777242417294,1.0,0.0,0.0,0.0,1.0,0.0,0.0,0.0,1.0,0.176076337695,-0.0247968677431,-0.210876643658,1.21846967915e-07,0.0,0.0,0.0,1.21846967915e-07,0.0,0.0,0.0,1.21846967915e-07,-0.3138128,0.9610517,9.3555441,9e-08,0.0,0.0,0.0,9e-08,0.0,0.0,0.0,9e-08
1536693076825174008,1174,1536693076823560088,base_link,-0.13540343328,-0.14313771757,-0.572970076056,-0.795539311417,1.0,0.0,0.0,0.0,1.0,0.0,0.0,0.0,1.0,0.274439066648,-0.0215789210051,-0.236440375447,1.21846967915e-07,0.0,0.0,0.0,1.21846967915e-07,0.0,0.0,0.0,1.21846967915e-07,-0.28439285,0.61781895,8.83579165,9e-08,0.0,0.0,0.0,9e-08,0.0,0.0,0.0,9e-08
1536693077184812152,1175,1536693077176774552,base_link,-0.189623910224,-0.17725203137,-0.535124546008,-0.803906841808,1.0,0.0,0.0,0.0,1.0,0.0,0.0,0.0,1.0,0.259409636259,-0.133720502257,-0.147259965539,1.21846967915e-07,0.0,0.0,0.0,1.21846967915e-07,0.0,0.0,0.0,1.21846967915e-07,-0.2353596,0.46091255,9.414384,9e-08,0.0,0.0,0.0,9e-08,0.0,0.0,0.0,9e-08
1536693077592774616,1176,1536693077588136472,base_link,-0.219913437408,-0.164562846957,-0.503705802542,-0.819046771518,1.0,0.0,0.0,0.0,1.0,0.0,0.0,0.0,1.0,0.168154552579,-0.167952477932,-0.135887369514,1.21846967915e-07,0.0,0.0,0.0,1.21846967915e-07,0.0,0.0,0.0,1.21846967915e-07,0.10787315,1.01008495,11.4345539,9e-08,0.0,0.0,0.0,9e-08,0.0,0.0,0.0,9e-08
1536693077978325400,1177,1536693077978041784,base_link,-0.229311461508,-0.157464892682,-0.465778540896,-0.840042506088,1.0,0.0,0.0,0.0,1.0,0.0,0.0,0.0,1.0,-0.0678944811225,-0.0642259940505,-0.272953867912,1.21846967915e-07,0.0,0.0,0.0,1.21846967915e-07,0.0,0.0,0.0,1.21846967915e-07,0.0980665,1.1179581,11.7483667,9e-08,0.0,0.0,0.0,9e-08,0.0,0.0,0.0,9e-08
1536693078416415000,1178,1536693078416228824,base_link,-0.23608689087,-0.14916164552,-0.405593993226,-0.87034895078,1.0,0.0,0.0,0.0,1.0,0.0,0.0,0.0,1.0,0.0682306587696,-0.128668233752,-0.273241430521,1.21846967915e-07,0.0,0.0,0.0,1.21846967915e-07,0.0,0.0,0.0,1.21846967915e-07,-0.0392266,0.91201845,11.3953273,9e-08,0.0,0.0,0.0,9e-08,0.0,0.0,0.0,9e-08
1536693078774958648,1179,1536693078774614520,base_link,-0.249779701213,-0.143153787924,-0.354722956949,-0.889544106652,1.0,0.0,0.0,0.0,1.0,0.0,0.0,0.0,1.0,0.0683335363865,-0.207307994366,-0.26528558135,1.21846967915e-07,0.0,0.0,0.0,1.21846967915e-07,0.0,0.0,0.0,1.21846967915e-07,0.06864655,0.9218251,10.983448,9e-08,0.0,0.0,0.0,9e-08,0.0,0.0,0.0,9e-08
1536693079081873560,1180,1536693079081598168,base_link,-0.262601970953,-0.120609911396,-0.309659471026,-0.905872212913,1.0,0.0,0.0,0.0,1.0,0.0,0.0,0.0,1.0,-0.0662805214524,-0.260378599167,-0.246964424849,1.21846967915e-07,0.0,0.0,0.0,1.21846967915e-07,0.0,0.0,0.0,1.21846967915e-07,0.20593965,1.14737805,12.97419795,9e-08,0.0,0.0,0.0,9e-08,0.0,0.0,0.0,9e-08
1536693079483782936,1181,1536693079483544312,base_link,-0.253455318923,-0.083979555681,-0.252303288123,-0.93008111815,1.0,0.0,0.0,0.0,1.0,0.0,0.0,0.0,1.0,0.00318676885217,-0.236486360431,-0.244103640318,1.21846967915e-07,0.0,0.0,0.0,1.21846967915e-07,0.0,0.0,0.0,1.21846967915e-07,0.20593965,0.93163175,12.9251647,9e-08,0.0,0.0,0.0,9e-08,0.0,0.0,0.0,9e-08
1536693079862351672,1182,1536693079861081784,base_link,-0.261747360444,-0.0578039715952,-0.202208889716,-0.941944045625,1.0,0.0,0.0,0.0,1.0,0.0,0.0,0.0,1.0,-0.030503641814,-0.10921728611,-0.1846601367,1.21846967915e-07,0.0,0.0,0.0,1.21846967915e-07,0.0,0.0,0.0,1.21846967915e-07,0.0588399,1.04931155,11.11093445,9e-08,0.0,0.0,0.0,9e-08,0.0,0.0,0.0,9e-08
1536693080275461688,1183,1536693080271489368,base_link,-0.262558720268,-0.0328446089018,-0.148668495103,-0.95282833115,1.0,0.0,0.0,0.0,1.0,0.0,0.0,0.0,1.0,-0.124966643751,-0.224986612797,-0.235312134027,1.21846967915e-07,0.0,0.0,0.0,1.21846967915e-07,0.0,0.0,0.0,1.21846967915e-07,0.22555295,1.02969825,12.1014061,9e-08,0.0,0.0,0.0,9e-08,0.0,0.0,0.0,9e-08
1536693080736505720,1184,1536693080736076216,base_link,-0.233227926185,-0.00178649603628,-0.0931951271141,-0.967944322346,1.0,0.0,0.0,0.0,1.0,0.0,0.0,0.0,1.0,-0.140637785196,-0.11065030098,-0.155144363642,1.21846967915e-07,0.0,0.0,0.0,1.21846967915e-07,0.0,0.0,0.0,1.21846967915e-07,0.32361945,0.8237586,12.5721253,9e-08,0.0,0.0,0.0,9e-08,0.0,0.0,0.0,9e-08
1536693081053963128,1185,1536693081053730328,base_link,-0.208441274501,0.0154379798336,-0.0623743492277,-0.975921792164,1.0,0.0,0.0,0.0,1.0,0.0,0.0,0.0,1.0,-0.200196385384,-0.162542924285,-0.186714202166,1.21846967915e-07,0.0,0.0,0.0,1.21846967915e-07,0.0,0.0,0.0,1.21846967915e-07,0.30400615,1.0591182,11.2972608,9e-08,0.0,0.0,0.0,9e-08,0.0,0.0,0.0,9e-08
1536693081386164344,1186,1536693081385907768,base_link,-0.165658581474,0.0305586769389,-0.0257317237886,-0.985373675333,1.0,0.0,0.0,0.0,1.0,0.0,0.0,0.0,1.0,-0.310585349798,-0.0686770454049,-0.173663377762,1.21846967915e-07,0.0,0.0,0.0,1.21846967915e-07,0.0,0.0,0.0,1.21846967915e-07,0.22555295,0.75511205,9.8851032,9e-08,0.0,0.0,0.0,9e-08,0.0,0.0,0.0,9e-08
1536693081828284344,1187,1536693081827042456,base_link,-0.118584818812,0.0470398508834,0.00952007904355,-0.991783374165,1.0,0.0,0.0,0.0,1.0,0.0,0.0,0.0,1.0,-0.261286228895,-0.0626067444682,-0.0932725146413,1.21846967915e-07,0.0,0.0,0.0,1.21846967915e-07,0.0,0.0,0.0,1.21846967915e-07,0.3530394,0.63743225,11.26784085,9e-08,0.0,0.0,0.0,9e-08,0.0,0.0,0.0,9e-08
1536693082287922840,1188,1536693082287633464,base_link,-0.0628436058132,0.0537571694115,0.0286132159286,-0.996163707339,1.0,0.0,0.0,0.0,1.0,0.0,0.0,0.0,1.0,-0.306174606085,-0.00808131694794,-0.049343213439,1.21846967915e-07,0.0,0.0,0.0,1.21846967915e-07,0.0,0.0,0.0,1.21846967915e-07,0.2353596,0.7453054,10.30678915,9e-08,0.0,0.0,0.0,9e-08,0.0,0.0,0.0,9e-08
1536693082665914616,1189,1536693082665403480,base_link,-0.0130359530436,0.0425083869996,0.0390189093189,-0.998248779453,1.0,0.0,0.0,0.0,1.0,0.0,0.0,0.0,1.0,-0.175907820463,0.0700617805123,-0.0252758003771,1.21846967915e-07,0.0,0.0,0.0,1.21846967915e-07,0.0,0.0,0.0,1.21846967915e-07,0.1765197,0.5295591,9.1397978,9e-08,0.0,0.0,0.0,9e-08,0.0,0.0,0.0,9e-08
1536693083099006040,1190,1536693083094100568,base_link,0.0173240542531,0.0258274013477,0.0351016223519,-0.998899744014,1.0,0.0,0.0,0.0,1.0,0.0,0.0,0.0,1.0,-0.122910417616,0.0836354345083,0.0584463141859,1.21846967915e-07,0.0,0.0,0.0,1.21846967915e-07,0.0,0.0,0.0,1.21846967915e-07,0.1765197,0.4707192,8.73772515,9e-08,0.0,0.0,0.0,9e-08,0.0,0.0,0.0,9e-08
1536693083507307320,1191,1536693083506911928,base_link,0.0361957345278,0.00372472183783,0.025843136092,-0.999003567344,1.0,0.0,0.0,0.0,1.0,0.0,0.0,0.0,1.0,-0.044235393405,0.0693895891309,0.0250594951212,1.21846967915e-07,0.0,0.0,0.0,1.21846967915e-07,0.0,0.0,0.0,1.21846967915e-07,0.2157463,0.53936575,8.48275225,9e-08,0.0,0.0,0.0,9e-08,0.0,0.0,0.0,9e-08
1536693083865395672,1192,1536693083865060344,base_link,0.041363045985,-0.00777703239798,0.0155476637114,-0.998992936085,1.0,0.0,0.0,0.0,1.0,0.0,0.0,0.0,1.0,0.0131052201614,0.0224497821182,0.0840296074748,1.21846967915e-07,0.0,0.0,0.0,1.21846967915e-07,0.0,0.0,0.0,1.21846967915e-07,0.0784532,0.40207265,8.91424485,9e-08,0.0,0.0,0.0,9e-08,0.0,0.0,0.0,9e-08
1536693084284242616,1193,1536693084283788344,base_link,0.031253346455,-0.00821651109578,-0.0068533867264,-0.999454225251,1.0,0.0,0.0,0.0,1.0,0.0,0.0,0.0,1.0,0.0393440537155,0.028125429526,0.125776216388,1.21846967915e-07,0.0,0.0,0.0,1.21846967915e-07,0.0,0.0,0.0,1.21846967915e-07,0.20593965,0.5099458,9.85568325,9e-08,0.0,0.0,0.0,9e-08,0.0,0.0,0.0,9e-08
1536693084570361688,1194,1536693084570025432,base_link,0.0238561009722,-0.017176777765,-0.02452618709,-0.999266886722,1.0,0.0,0.0,0.0,1.0,0.0,0.0,0.0,1.0,0.0746578425169,0.0819821879268,0.120460689068,1.21846967915e-07,0.0,0.0,0.0,1.21846967915e-07,0.0,0.0,0.0,1.21846967915e-07,0.1176798,0.48052585,8.34545915,9e-08,0.0,0.0,0.0,9e-08,0.0,0.0,0.0,9e-08
1536693084988345336,1195,1536693084988000632,base_link,0.0146680024397,-0.0173557843484,-0.0440375955037,-0.998771403594,1.0,0.0,0.0,0.0,1.0,0.0,0.0,0.0,1.0,0.00923191942275,-0.0355049818754,0.045781686902,1.21846967915e-07,0.0,0.0,0.0,1.21846967915e-07,0.0,0.0,0.0,1.21846967915e-07,0.2745862,0.79433865,10.09104285,9e-08,0.0,0.0,0.0,9e-08,0.0,0.0,0.0,9e-08
1536693085471905752,1196,1536693085471588952,base_link,-0.011295814651,-0.0103988362147,-0.0484583460406,-0.998707193063,1.0,0.0,0.0,0.0,1.0,0.0,0.0,0.0,1.0,0.233054786921,-0.0148228686303,0.0237235147506,1.21846967915e-07,0.0,0.0,0.0,1.21846967915e-07,0.0,0.0,0.0,1.21846967915e-07,0.36284605,0.588399,10.13026945,9e-08,0.0,0.0,0.0,9e-08,0.0,0.0,0.0,9e-08
1536693085931501144,1197,1536693085930742328,base_link,-0.0360484365526,-0.0166827413633,-0.0572881265088,-0.997567174141,1.0,0.0,0.0,0.0,1.0,0.0,0.0,0.0,1.0,0.0130813326687,0.0921271070838,0.0375417992473,1.21846967915e-07,0.0,0.0,0.0,1.21846967915e-07,0.0,0.0,0.0,1.21846967915e-07,0.18632635,0.6668522,9.5516771,9e-08,0.0,0.0,0.0,9e-08,0.0,0.0,0.0,9e-08
1536693086271479416,1198,1536693086271267128,base_link,-0.0468980201587,-0.0219080044572,-0.0588116483053,-0.996926178345,1.0,0.0,0.0,0.0,1.0,0.0,0.0,0.0,1.0,0.046966124326,0.0143137825653,-0.00332550168969,1.21846967915e-07,0.0,0.0,0.0,1.21846967915e-07,0.0,0.0,0.0,1.21846967915e-07,0.2745862,0.8433719,10.2969825,9e-08,0.0,0.0,0.0,9e-08,0.0,0.0,0.0,9e-08
1536693086621610616,1199,1536693086618940184,base_link,-0.0469631778755,-0.0191837301637,-0.0536996723495,-0.99726766197,1.0,0.0,0.0,0.0,1.0,0.0,0.0,0.0,1.0,-0.0704180523753,-0.0726628452539,-0.0280157886446,1.21846967915e-07,0.0,0.0,0.0,1.21846967915e-07,0.0,0.0,0.0,1.21846967915e-07,0.28439285,0.6668522,10.14988275,9e-08,0.0,0.0,0.0,9e-08,0.0,0.0,0.0,9e-08
1536693087010546264,1200,1536693087010227224,base_link,-0.0392165896793,-0.0012607879754,-0.0476027314367,-0.998095411004,1.0,0.0,0.0,0.0,1.0,0.0,0.0,0.0,1.0,-0.0228155180812,-0.0797786563635,-0.0256895720959,1.21846967915e-07,0.0,0.0,0.0,1.21846967915e-07,0.0,0.0,0.0,1.21846967915e-07,0.4707192,0.73549875,11.2580342,9e-08,0.0,0.0,0.0,9e-08,0.0,0.0,0.0,9e-08
1536693087445914680,1201,1536693087445496824,base_link,-0.0431883958453,0.0137612515906,-0.0493760955283,-0.99775116718,1.0,0.0,0.0,0.0,1.0,0.0,0.0,0.0,1.0,-0.0615973360837,-0.0261068772525,0.0290374401957,1.21846967915e-07,0.0,0.0,0.0,1.21846967915e-07,0.0,0.0,0.0,1.21846967915e-07,0.5099458,0.81395195,11.32668075,9e-08,0.0,0.0,0.0,9e-08,0.0,0.0,0.0,9e-08
1536693087848574008,1202,1536693087843032248,base_link,-0.0436748027391,0.0110127357094,-0.048759300968,-0.997794448685,1.0,0.0,0.0,0.0,1.0,0.0,0.0,0.0,1.0,0.0988824814558,0.0244741756469,-0.0213897880167,1.21846967915e-07,0.0,0.0,0.0,1.21846967915e-07,0.0,0.0,0.0,1.21846967915e-07,0.4314926,0.99047165,10.5715687,9e-08,0.0,0.0,0.0,9e-08,0.0,0.0,0.0,9e-08
1536693088246298136,1203,1536693088243681976,base_link,-0.0588982992591,-0.000520498110364,-0.0375377832731,-0.997557835042,1.0,0.0,0.0,0.0,1.0,0.0,0.0,0.0,1.0,0.137883797288,0.0980975478888,-0.0863065421581,1.21846967915e-07,0.0,0.0,0.0,1.21846967915e-07,0.0,0.0,0.0,1.21846967915e-07,0.26477955,0.61781895,8.87501825,9e-08,0.0,0.0,0.0,9e-08,0.0,0.0,0.0,9e-08
1536693088535610072,1204,1536693088535262840,base_link,-0.0658194946206,-0.00342259528258,-0.0312683412406,-0.997335635985,1.0,0.0,0.0,0.0,1.0,0.0,0.0,0.0,1.0,-0.00225693173707,-0.0445682965219,0.00107603287324,1.21846967915e-07,0.0,0.0,0.0,1.21846967915e-07,0.0,0.0,0.0,1.21846967915e-07,0.24516625,0.3726527,8.62004535,9e-08,0.0,0.0,0.0,9e-08,0.0,0.0,0.0,9e-08
1536693088891235928,1205,1536693088890839736,base_link,-0.0565775968894,0.00211562749125,-0.0339640978467,-0.997818089487,1.0,0.0,0.0,0.0,1.0,0.0,0.0,0.0,1.0,-0.0487969405949,-0.00367281585932,0.011688859202,1.21846967915e-07,0.0,0.0,0.0,1.21846967915e-07,0.0,0.0,0.0,1.21846967915e-07,0.34323275,0.97085835,10.1008495,9e-08,0.0,0.0,0.0,9e-08,0.0,0.0,0.0,9e-08
1536693089125193816,1206,1536693089124855960,base_link,-0.0555579527166,0.00470066660924,-0.0296577764268,-0.998003824602,1.0,0.0,0.0,0.0,1.0,0.0,0.0,0.0,1.0,-0.0685208365321,-0.0301170051098,-0.0604486241937,1.21846967915e-07,0.0,0.0,0.0,1.21846967915e-07,0.0,0.0,0.0,1.21846967915e-07,0.3138128,0.7453054,10.18910935,9e-08,0.0,0.0,0.0,9e-08,0.0,0.0,0.0,9e-08
1536693089492024152,1207,1536693089491733816,base_link,-0.0568126438131,0.0117365228145,-0.021955513641,-0.998074412534,1.0,0.0,0.0,0.0,1.0,0.0,0.0,0.0,1.0,-0.0345332026482,0.0207002256066,-0.0256362892687,1.21846967915e-07,0.0,0.0,0.0,1.21846967915e-07,0.0,0.0,0.0,1.21846967915e-07,0.392266,0.588399,10.28717585,9e-08,0.0,0.0,0.0,9e-08,0.0,0.0,0.0,9e-08
1536693089886635896,1208,1536693089886084568,base_link,-0.0582784338566,0.00761474336551,-0.0189542956285,-0.998091365812,1.0,0.0,0.0,0.0,1.0,0.0,0.0,0.0,1.0,-0.0214625764638,-0.0517209097743,0.00890527758747,1.21846967915e-07,0.0,0.0,0.0,1.21846967915e-07,0.0,0.0,0.0,1.21846967915e-07,0.40207265,0.5295591,10.4538889,9e-08,0.0,0.0,0.0,9e-08,0.0,0.0,0.0,9e-08
1536693090228942136,1209,1536693090228594200,base_link,-0.0468393493341,0.0208611444295,-0.0199509394794,-0.998485276817,1.0,0.0,0.0,0.0,1.0,0.0,0.0,0.0,1.0,-0.0187118016183,-0.0593547821045,0.0156513676047,1.21846967915e-07,0.0,0.0,0.0,1.21846967915e-07,0.0,0.0,0.0,1.21846967915e-07,0.4118793,0.6668522,10.983448,9e-08,0.0,0.0,0.0,9e-08,0.0,0.0,0.0,9e-08
1536693090607060728,1210,1536693090606759160,base_link,-0.0377957898542,0.0296658410159,-0.0209754122986,-0.998624778495,1.0,0.0,0.0,0.0,1.0,0.0,0.0,0.0,1.0,-0.012395599857,-0.0418525226414,0.0297012776136,1.21846967915e-07,0.0,0.0,0.0,1.21846967915e-07,0.0,0.0,0.0,1.21846967915e-07,0.46091255,0.8041453,10.77750835,9e-08,0.0,0.0,0.0,9e-08,0.0,0.0,0.0,9e-08
1536693091001258616,1211,1536693090999856760,base_link,-0.00305363327345,0.0320342120058,-0.0166712550979,-0.999343061135,1.0,0.0,0.0,0.0,1.0,0.0,0.0,0.0,1.0,-0.0535597763956,0.00317586446181,-0.0547686852515,1.21846967915e-07,0.0,0.0,0.0,1.21846967915e-07,0.0,0.0,0.0,1.21846967915e-07,0.4707192,0.8629852,11.58165365,9e-08,0.0,0.0,0.0,9e-08,0.0,0.0,0.0,9e-08
1536693091393927608,1212,1536693091393669560,base_link,-0.0108608716644,0.01483165091,-0.00540275648519,-0.999816420059,1.0,0.0,0.0,0.0,1.0,0.0,0.0,0.0,1.0,0.125964850187,0.098661929369,-0.0695110708475,1.21846967915e-07,0.0,0.0,0.0,1.21846967915e-07,0.0,0.0,0.0,1.21846967915e-07,0.22555295,0.71588545,8.0610663,9e-08,0.0,0.0,0.0,9e-08,0.0,0.0,0.0,9e-08
1536693091626182456,1213,1536693091625912472,base_link,-0.0272246626973,0.0118415163741,-0.000985590001021,-0.999558715055,1.0,0.0,0.0,0.0,1.0,0.0,0.0,0.0,1.0,0.130044728518,0.00604597479105,-0.0028134577442,1.21846967915e-07,0.0,0.0,0.0,1.21846967915e-07,0.0,0.0,0.0,1.21846967915e-07,0.18632635,0.2941995,8.2964259,9e-08,0.0,0.0,0.0,9e-08,0.0,0.0,0.0,9e-08
1536693092141743960,1214,1536693092138503992,base_link,-0.0382792615208,0.00947117761426,-0.0108588573843,-0.999163189949,1.0,0.0,0.0,0.0,1.0,0.0,0.0,0.0,1.0,-0.0917058736086,0.0486942566931,0.0444370731711,1.21846967915e-07,0.0,0.0,0.0,1.21846967915e-07,0.0,0.0,0.0,1.21846967915e-07,0.2941995,0.7649187,9.99297635,9e-08,0.0,0.0,0.0,9e-08,0.0,0.0,0.0,9e-08
1536693092509336760,1215,1536693092508877688,base_link,-0.0339207567046,-0.00184882024727,-0.00865117264343,-0.999385371786,1.0,0.0,0.0,0.0,1.0,0.0,0.0,0.0,1.0,0.0917720943689,0.0724352002144,-0.0731085464358,1.21846967915e-07,0.0,0.0,0.0,1.21846967915e-07,0.0,0.0,0.0,1.21846967915e-07,0.3530394,0.67665885,9.1397978,9e-08,0.0,0.0,0.0,9e-08,0.0,0.0,0.0,9e-08
1536693092945843864,1216,1536693092945660344,base_link,-0.0559443968379,-2.09472292392e-05,0.000616504284682,-0.998433695318,1.0,0.0,0.0,0.0,1.0,0.0,0.0,0.0,1.0,0.0142415482551,-0.0481204949319,-0.0295515879989,1.21846967915e-07,0.0,0.0,0.0,1.21846967915e-07,0.0,0.0,0.0,1.21846967915e-07,0.2941995,0.81395195,9.6889702,9e-08,0.0,0.0,0.0,9e-08,0.0,0.0,0.0,9e-08
1536693093406201592,1217,1536693093405857464,base_link,-0.0579011653314,0.00493393483602,0.00874805275606,-0.998271798116,1.0,0.0,0.0,0.0,1.0,0.0,0.0,0.0,1.0,0.0308808218688,-0.0338297113776,-0.0387351997197,1.21846967915e-07,0.0,0.0,0.0,1.21846967915e-07,0.0,0.0,0.0,1.21846967915e-07,0.38245935,0.59820565,10.91480145,9e-08,0.0,0.0,0.0,9e-08,0.0,0.0,0.0,9e-08
1536693093837412408,1218,1536693093837164632,base_link,-0.044197007309,0.00407700839732,0.00900629101362,-0.998973918213,1.0,0.0,0.0,0.0,1.0,0.0,0.0,0.0,1.0,-0.0848772376776,0.0159809999168,0.0109063209966,1.21846967915e-07,0.0,0.0,0.0,1.21846967915e-07,0.0,0.0,0.0,1.21846967915e-07,0.3334261,0.6668522,10.71866845,9e-08,0.0,0.0,0.0,9e-08,0.0,0.0,0.0,9e-08
1536693094288388568,1219,1536693094288002744,base_link,-0.0142519421855,-0.0056024312209,0.0150235105381,-0.999769868039,1.0,0.0,0.0,0.0,1.0,0.0,0.0,0.0,1.0,-0.071274921298,-0.0116949314252,-0.0395801663399,1.21846967915e-07,0.0,0.0,0.0,1.21846967915e-07,0.0,0.0,0.0,1.21846967915e-07,0.4118793,0.2745862,9.54187045,9e-08,0.0,0.0,0.0,9e-08,0.0,0.0,0.0,9e-08
1536693094684671672,1220,1536693094684261720,base_link,-0.0331622345702,0.00229873922473,0.00274976339915,-0.999443555584,1.0,0.0,0.0,0.0,1.0,0.0,0.0,0.0,1.0,0.18781837821,0.0109560405836,0.0987091362476,1.21846967915e-07,0.0,0.0,0.0,1.21846967915e-07,0.0,0.0,0.0,1.21846967915e-07,0.36284605,0.73549875,10.6892485,9e-08,0.0,0.0,0.0,9e-08,0.0,0.0,0.0,9e-08
1536693095073146904,1221,1536693095072952024,base_link,-0.0565108463983,-0.00903619760997,-0.00761076104921,-0.99833208287,1.0,0.0,0.0,0.0,1.0,0.0,0.0,0.0,1.0,0.102049067616,0.0786199644208,-0.016959387809,1.21846967915e-07,0.0,0.0,0.0,1.21846967915e-07,0.0,0.0,0.0,1.21846967915e-07,0.3726527,0.50013915,10.56176205,9e-08,0.0,0.0,0.0,9e-08,0.0,0.0,0.0,9e-08
1536693095436233720,1222,1536693095434113624,base_link,-0.0602320772051,-0.0163122420892,-0.0157410696688,-0.997926964441,1.0,0.0,0.0,0.0,1.0,0.0,0.0,0.0,1.0,0.0053673828952,0.0396440513432,0.0554981082678,1.21846967915e-07,0.0,0.0,0.0,1.21846967915e-07,0.0,0.0,0.0,1.21846967915e-07,0.196133,0.6276256,10.34601575,9e-08,0.0,0.0,0.0,9e-08,0.0,0.0,0.0,9e-08
1536693095870613464,1223,1536693095870013560,base_link,-0.0404242721624,-0.00986685653862,-0.0243559744647,-0.998836978626,1.0,0.0,0.0,0.0,1.0,0.0,0.0,0.0,1.0,-0.0823507606983,-0.012043104507,0.0146913845092,1.21846967915e-07,0.0,0.0,0.0,1.21846967915e-07,0.0,0.0,0.0,1.21846967915e-07,0.0980665,0.8825985,10.93441475,9e-08,0.0,0.0,0.0,9e-08,0.0,0.0,0.0,9e-08
1536693096324947320,1224,1536693096324436600,base_link,-0.0388714989832,-0.017548550988,-0.0141172381989,-0.998990369579,1.0,0.0,0.0,0.0,1.0,0.0,0.0,0.0,1.0,0.139354169369,0.0723277330399,-0.0856971293688,1.21846967915e-07,0.0,0.0,0.0,1.21846967915e-07,0.0,0.0,0.0,1.21846967915e-07,-0.04903325,0.9414384,9.5516771,9e-08,0.0,0.0,0.0,9e-08,0.0,0.0,0.0,9e-08
1536693096783144632,1225,1536693096782787896,base_link,-0.0601467776291,-0.0248297984116,0.0107983855331,-0.997822249262,1.0,0.0,0.0,0.0,1.0,0.0,0.0,0.0,1.0,0.177653849125,0.0155256120488,-0.094000838697,1.21846967915e-07,0.0,0.0,0.0,1.21846967915e-07,0.0,0.0,0.0,1.21846967915e-07,-0.16671305,0.59820565,9.99297635,9e-08,0.0,0.0,0.0,9e-08,0.0,0.0,0.0,9e-08
1536693097121188088,1226,1536693097119308344,base_link,-0.0597684198505,-0.0236786945252,0.0174184339278,-0.997779361168,1.0,0.0,0.0,0.0,1.0,0.0,0.0,0.0,1.0,-0.0361134596169,-0.0124493781477,0.010951815173,1.21846967915e-07,0.0,0.0,0.0,1.21846967915e-07,0.0,0.0,0.0,1.21846967915e-07,-0.06864655,0.04903325,10.2381426,9e-08,0.0,0.0,0.0,9e-08,0.0,0.0,0.0,9e-08
1536693097584662712,1227,1536693097584107384,base_link,-0.0759819909495,-0.0320812817177,-0.00533493993694,-0.996578680702,1.0,0.0,0.0,0.0,1.0,0.0,0.0,0.0,1.0,-0.147849574685,0.0414340347052,0.0591556839645,1.21846967915e-07,0.0,0.0,0.0,1.21846967915e-07,0.0,0.0,0.0,1.21846967915e-07,-0.24516625,0.6080123,9.22805765,9e-08,0.0,0.0,0.0,9e-08,0.0,0.0,0.0,9e-08
1536693098056440216,1228,1536693098055560152,base_link,-0.0468392642707,-0.0401484004401,-0.00402857036729,-0.998087150446,1.0,0.0,0.0,0.0,1.0,0.0,0.0,0.0,1.0,-0.109765455127,-0.000490110018291,-0.0678793936968,1.21846967915e-07,0.0,0.0,0.0,1.21846967915e-07,0.0,0.0,0.0,1.21846967915e-07,-0.18632635,0.9218251,9.4339973,9e-08,0.0,0.0,0.0,9e-08,0.0,0.0,0.0,9e-08
1536693098373324344,1229,1536693098372970392,base_link,-0.0369215231613,-0.049098146658,0.0119730267785,-0.998039488072,1.0,0.0,0.0,0.0,1.0,0.0,0.0,0.0,1.0,0.106142453849,0.0620846152306,-0.0766569152474,1.21846967915e-07,0.0,0.0,0.0,1.21846967915e-07,0.0,0.0,0.0,1.21846967915e-07,-0.26477955,0.2353596,8.9828914,9e-08,0.0,0.0,0.0,9e-08,0.0,0.0,0.0,9e-08
1536693098787792696,1230,1536693098787495640,base_link,-0.0380113344809,-0.0491551936803,0.0115022430937,-0.998001304503,1.0,0.0,0.0,0.0,1.0,0.0,0.0,0.0,1.0,-0.0901941657066,-0.0367733575404,0.0186504796147,1.21846967915e-07,0.0,0.0,0.0,1.21846967915e-07,0.0,0.0,0.0,1.21846967915e-07,-0.2941995,0.42168595,9.3751574,9e-08,0.0,0.0,0.0,9e-08,0.0,0.0,0.0,9e-08
1536693099101907928,1231,1536693099100844760,base_link,-0.0211093675567,-0.0452962886568,0.00565691225539,-0.998734519369,1.0,0.0,0.0,0.0,1.0,0.0,0.0,0.0,1.0,-0.114407792687,-0.0490473620594,0.0436956994236,1.21846967915e-07,0.0,0.0,0.0,1.21846967915e-07,0.0,0.0,0.0,1.21846967915e-07,-0.1569064,0.53936575,10.54214875,9e-08,0.0,0.0,0.0,9e-08,0.0,0.0,0.0,9e-08
1536693099489326552,1232,1536693099488146456,base_link,-0.0282482870874,-0.044519621033,0.00342718290335,-0.998603170452,1.0,0.0,0.0,0.0,1.0,0.0,0.0,0.0,1.0,0.120468050241,-0.0262172594666,-0.0332386568189,1.21846967915e-07,0.0,0.0,0.0,1.21846967915e-07,0.0,0.0,0.0,1.21846967915e-07,-0.2157463,0.7256921,9.5909037,9e-08,0.0,0.0,0.0,9e-08,0.0,0.0,0.0,9e-08
1536693099887778072,1233,1536693099887342232,base_link,-0.0606365731433,-0.033942492254,0.0114353186514,-0.997517090933,1.0,0.0,0.0,0.0,1.0,0.0,0.0,0.0,1.0,0.195317745209,-0.0651410743594,-0.0202841833234,1.21846967915e-07,0.0,0.0,0.0,1.21846967915e-07,0.0,0.0,0.0,1.21846967915e-07,-0.06864655,0.6080123,11.28745415,9e-08,0.0,0.0,0.0,9e-08,0.0,0.0,0.0,9e-08
1536693100311534008,1234,1536693100311307256,base_link,-0.0932281776022,-0.0243212277839,0.0211199774172,-0.995123575911,1.0,0.0,0.0,0.0,1.0,0.0,0.0,0.0,1.0,0.119386725128,-0.0743623226881,-0.076657101512,1.21846967915e-07,0.0,0.0,0.0,1.21846967915e-07,0.0,0.0,0.0,1.21846967915e-07,-0.1372931,0.83356525,10.87557485,9e-08,0.0,0.0,0.0,9e-08,0.0,0.0,0.0,9e-08
1536693100725904728,1235,1536693100725583096,base_link,-0.135661677559,-0.0243581965832,0.0446452762267,-0.989449031942,1.0,0.0,0.0,0.0,1.0,0.0,0.0,0.0,1.0,0.220004141331,0.0298122111708,-0.154465213418,1.21846967915e-07,0.0,0.0,0.0,1.21846967915e-07,0.0,0.0,0.0,1.21846967915e-07,-0.24516625,0.980665,9.8654899,9e-08,0.0,0.0,0.0,9e-08,0.0,0.0,0.0,9e-08
1536693101091897336,1236,1536693101091338904,base_link,-0.189274012706,-0.025867524221,0.0772822866421,-0.978536492665,1.0,0.0,0.0,0.0,1.0,0.0,0.0,0.0,1.0,0.265815705061,-0.0398661606014,-0.158736228943,1.21846967915e-07,0.0,0.0,0.0,1.21846967915e-07,0.0,0.0,0.0,1.21846967915e-07,-0.18632635,0.65704555,10.0812362,9e-08,0.0,0.0,0.0,9e-08,0.0,0.0,0.0,9e-08
1536693101383441976,1237,1536693101383079320,base_link,-0.224290666278,-0.0166763447167,0.10255212912,-0.968967830921,1.0,0.0,0.0,0.0,1.0,0.0,0.0,0.0,1.0,0.256961137056,-0.0884047150612,-0.185383886099,1.21846967915e-07,0.0,0.0,0.0,1.21846967915e-07,0.0,0.0,0.0,1.21846967915e-07,-0.2353596,0.9414384,9.79684335,9e-08,0.0,0.0,0.0,9e-08,0.0,0.0,0.0,9e-08
1536693101737265496,1238,1536693101736516088,base_link,-0.265145870658,0.00420037460351,0.147020640079,-0.952924422773,1.0,0.0,0.0,0.0,1.0,0.0,0.0,0.0,1.0,0.157662317157,-0.18554148078,-0.221921876073,1.21846967915e-07,0.0,0.0,0.0,1.21846967915e-07,0.0,0.0,0.0,1.21846967915e-07,-0.196133,0.9414384,9.73800345,9e-08,0.0,0.0,0.0,9e-08,0.0,0.0,0.0,9e-08
1536693102204496664,1239,1536693102203947864,base_link,-0.273343189866,0.0380705170464,0.212826631278,-0.937304092226,1.0,0.0,0.0,0.0,1.0,0.0,0.0,0.0,1.0,0.0638903155923,-0.245559200644,-0.261909753084,1.21846967915e-07,0.0,0.0,0.0,1.21846967915e-07,0.0,0.0,0.0,1.21846967915e-07,0.00980665,0.9414384,11.64049355,9e-08,0.0,0.0,0.0,9e-08,0.0,0.0,0.0,9e-08
1536693102533872792,1240,1536693102533428536,base_link,-0.2862162085,0.0612024333708,0.252628859182,-0.922232727488,1.0,0.0,0.0,0.0,1.0,0.0,0.0,0.0,1.0,0.12289057672,-0.179820880294,-0.219921886921,1.21846967915e-07,0.0,0.0,0.0,1.21846967915e-07,0.0,0.0,0.0,1.21846967915e-07,0.00980665,0.89240515,11.5130071,9e-08,0.0,0.0,0.0,9e-08,0.0,0.0,0.0,9e-08
1536693102954080952,1241,1536693102949718424,base_link,-0.301599686311,0.0850732955778,0.308247605475,-0.898211321079,1.0,0.0,0.0,0.0,1.0,0.0,0.0,0.0,1.0,0.0962837487459,-0.180089622736,-0.272754967213,1.21846967915e-07,0.0,0.0,0.0,1.21846967915e-07,0.0,0.0,0.0,1.21846967915e-07,0.0784532,1.0002783,11.09132115,9e-08,0.0,0.0,0.0,9e-08,0.0,0.0,0.0,9e-08
1536693103423379384,1242,1536693103422474968,base_link,-0.296222282041,0.113616018809,0.37649290091,-0.870400399504,1.0,0.0,0.0,0.0,1.0,0.0,0.0,0.0,1.0,0.00217811041512,-0.251754909754,-0.265650242567,1.21846967915e-07,0.0,0.0,0.0,1.21846967915e-07,0.0,0.0,0.0,1.21846967915e-07,0.2745862,1.0395049,12.6701918,9e-08,0.0,0.0,0.0,9e-08,0.0,0.0,0.0,9e-08
1536693103734441848,1243,1536693103734120856,base_link,-0.288857230534,0.130453222019,0.422619997886,-0.849079380635,1.0,0.0,0.0,0.0,1.0,0.0,0.0,0.0,1.0,0.0637250691652,-0.18751694262,-0.288149654865,1.21846967915e-07,0.0,0.0,0.0,1.21846967915e-07,0.0,0.0,0.0,1.21846967915e-07,0.2157463,1.02969825,11.71894675,9e-08,0.0,0.0,0.0,9e-08,0.0,0.0,0.0,9e-08
1536693104023300472,1244,1536693104022934328,base_link,-0.291869707739,0.144571326324,0.463271987225,-0.824190676459,1.0,0.0,0.0,0.0,1.0,0.0,0.0,0.0,1.0,0.104000903666,-0.242536053061,-0.272352278233,1.21846967915e-07,0.0,0.0,0.0,1.21846967915e-07,0.0,0.0,0.0,1.21846967915e-07,0.00980665,0.50013915,9.83606995,9e-08,0.0,0.0,0.0,9e-08,0.0,0.0,0.0,9e-08
1536693104387470488,1245,1536693104387131576,base_link,-0.276870694801,0.168108460087,0.506634705841,-0.799001526184,1.0,0.0,0.0,0.0,1.0,0.0,0.0,0.0,1.0,-0.159333109856,-0.277222365141,-0.204904526472,1.21846967915e-07,0.0,0.0,0.0,1.21846967915e-07,0.0,0.0,0.0,1.21846967915e-07,0.26477955,1.10815145,12.1798593,9e-08,0.0,0.0,0.0,9e-08,0.0,0.0,0.0,9e-08
1536693104707292728,1246,1536693104706864280,base_link,-0.252951852566,0.179801012148,0.551952032888,-0.773974101443,1.0,0.0,0.0,0.0,1.0,0.0,0.0,0.0,1.0,0.00955341942608,-0.186169162393,-0.287161052227,1.21846967915e-07,0.0,0.0,0.0,1.21846967915e-07,0.0,0.0,0.0,1.21846967915e-07,0.42168595,1.0983448,13.2389775,9e-08,0.0,0.0,0.0,9e-08,0.0,0.0,0.0,9e-08
1536693105063570808,1247,1536693105063377912,base_link,-0.227693451716,0.179334822942,0.599022742961,-0.746435842348,1.0,0.0,0.0,0.0,1.0,0.0,0.0,0.0,1.0,-0.234149977565,-0.143635377288,-0.258945852518,1.21846967915e-07,0.0,0.0,0.0,1.21846967915e-07,0.0,0.0,0.0,1.21846967915e-07,0.30400615,1.0787315,11.5522337,9e-08,0.0,0.0,0.0,9e-08,0.0,0.0,0.0,9e-08
1536693105553516920,1248,1536693105553238712,base_link,-0.176200590437,0.16093552563,0.658317657036,-0.713912439277,1.0,0.0,0.0,0.0,1.0,0.0,0.0,0.0,1.0,-0.272115886211,-0.165896102786,-0.219022139907,1.21846967915e-07,0.0,0.0,0.0,1.21846967915e-07,0.0,0.0,0.0,1.21846967915e-07,0.40207265,0.97085835,11.99353295,9e-08,0.0,0.0,0.0,9e-08,0.0,0.0,0.0,9e-08
1536693105938110360,1249,1536693105937877944,base_link,0.132583146204,-0.147624377487,-0.693455063467,0.692639031145,1.0,0.0,0.0,0.0,1.0,0.0,0.0,0.0,1.0,-0.288376241922,-0.12667901814,-0.160187140107,1.21846967915e-07,0.0,0.0,0.0,1.21846967915e-07,0.0,0.0,0.0,1.21846967915e-07,0.5295591,0.83356525,13.34685065,9e-08,0.0,0.0,0.0,9e-08,0.0,0.0,0.0,9e-08
1536693106369946008,1250,1536693106369181752,base_link,0.0696653035913,-0.104670086023,-0.717599924727,0.685011873327,1.0,0.0,0.0,0.0,1.0,0.0,0.0,0.0,1.0,-0.287987619638,-0.0906174108386,-0.0644095465541,1.21846967915e-07,0.0,0.0,0.0,1.21846967915e-07,0.0,0.0,0.0,1.21846967915e-07,0.04903325,0.65704555,10.18910935,9e-08,0.0,0.0,0.0,9e-08,0.0,0.0,0.0,9e-08
1536693106685646040,1251,1536693106680617464,base_link,0.0341588925037,-0.0791221332278,-0.727522780236,0.680649294669,1.0,0.0,0.0,0.0,1.0,0.0,0.0,0.0,1.0,-0.271253734827,-0.0303853824735,-0.0227347109467,1.21846967915e-07,0.0,0.0,0.0,1.21846967915e-07,0.0,0.0,0.0,1.21846967915e-07,0.0784532,0.57859235,10.5127288,9e-08,0.0,0.0,0.0,9e-08,0.0,0.0,0.0,9e-08
1536693107028366392,1252,1536693107028047640,base_link,0.00443322891728,-0.0534084213489,-0.730435167706,0.680876165532,1.0,0.0,0.0,0.0,1.0,0.0,0.0,0.0,1.0,-0.196084946394,-0.00457015261054,0.00661533046514,1.21846967915e-07,0.0,0.0,0.0,1.21846967915e-07,0.0,0.0,0.0,1.21846967915e-07,0.1176798,0.6276256,9.99297635,9e-08,0.0,0.0,0.0,9e-08,0.0,0.0,0.0,9e-08
1536693107465078200,1253,1536693107464623000,base_link,-0.0193496052479,-0.00774534552394,-0.728880245421,0.684323892784,1.0,0.0,0.0,0.0,1.0,0.0,0.0,0.0,1.0,-0.26049131155,0.122989490628,0.0295542962849,1.21846967915e-07,0.0,0.0,0.0,1.21846967915e-07,0.0,0.0,0.0,1.21846967915e-07,-0.00980665,0.59820565,8.75733845,9e-08,0.0,0.0,0.0,9e-08,0.0,0.0,0.0,9e-08
1536693107824390712,1254,1536693107823961816,base_link,-0.0292303839019,0.0256034849239,-0.726206287448,0.686377792682,1.0,0.0,0.0,0.0,1.0,0.0,0.0,0.0,1.0,-0.0758841782808,0.0903037115932,0.0303819030523,1.21846967915e-07,0.0,0.0,0.0,1.21846967915e-07,0.0,0.0,0.0,1.21846967915e-07,0.02941995,0.4511059,8.6690786,9e-08,0.0,0.0,0.0,9e-08,0.0,0.0,0.0,9e-08
1536693108148862136,1255,1536693108148161240,base_link,-0.0210802698661,0.0348326808188,-0.719852230296,0.692932228365,1.0,0.0,0.0,0.0,1.0,0.0,0.0,0.0,1.0,-0.0524845905602,0.0528743974864,0.0763010382652,1.21846967915e-07,0.0,0.0,0.0,1.21846967915e-07,0.0,0.0,0.0,1.21846967915e-07,-0.06864655,0.51975245,8.63965865,9e-08,0.0,0.0,0.0,9e-08,0.0,0.0,0.0,9e-08
1536693108489703192,1256,1536693108486761464,base_link,-0.0210977395349,0.043486356484,-0.709995918744,0.702545100013,1.0,0.0,0.0,0.0,1.0,0.0,0.0,0.0,1.0,0.0367712266743,0.0651445761323,0.0825381800532,1.21846967915e-07,0.0,0.0,0.0,1.21846967915e-07,0.0,0.0,0.0,1.21846967915e-07,0.10787315,0.4118793,9.2378643,9e-08,0.0,0.0,0.0,9e-08,0.0,0.0,0.0,9e-08
1536693108825364920,1257,1536693108825043800,base_link,0.0056590489617,-0.0465005800893,0.699480064271,-0.713115215729,1.0,0.0,0.0,0.0,1.0,0.0,0.0,0.0,1.0,0.0229133740067,0.0795032307506,0.0888591632247,1.21846967915e-07,0.0,0.0,0.0,1.21846967915e-07,0.0,0.0,0.0,1.21846967915e-07,-0.02941995,0.5491724,8.9240515,9e-08,0.0,0.0,0.0,9e-08,0.0,0.0,0.0,9e-08
1536693109208856280,1258,1536693109204652504,base_link,-0.00627892170458,-0.0451590609072,0.687936981113,-0.724336899776,1.0,0.0,0.0,0.0,1.0,0.0,0.0,0.0,1.0,0.0723010078073,-0.0350182168186,0.0887618139386,1.21846967915e-07,0.0,0.0,0.0,1.21846967915e-07,0.0,0.0,0.0,1.21846967915e-07,0.0784532,0.5295591,9.6693569,9e-08,0.0,0.0,0.0,9e-08,0.0,0.0,0.0,9e-08
1536693109608300408,1259,1536693109607988536,base_link,-0.00806354725287,-0.03298762162,0.6733637103,-0.738531048552,1.0,0.0,0.0,0.0,1.0,0.0,0.0,0.0,1.0,-0.00347964838147,0.00165336590726,0.0859246328473,1.21846967915e-07,0.0,0.0,0.0,1.21846967915e-07,0.0,0.0,0.0,1.21846967915e-07,0.1569064,0.7060788,10.85596155,9e-08,0.0,0.0,0.0,9e-08,0.0,0.0,0.0,9e-08
1536693109992557560,1260,1536693109991990680,base_link,-0.0129931215985,-0.0254590074085,0.665776338018,-0.745603705375,1.0,0.0,0.0,0.0,1.0,0.0,0.0,0.0,1.0,0.0802853032947,0.0240686908364,0.0265209879726,1.21846967915e-07,0.0,0.0,0.0,1.21846967915e-07,0.0,0.0,0.0,1.21846967915e-07,0.18632635,0.7060788,9.8458766,9e-08,0.0,0.0,0.0,9e-08,0.0,0.0,0.0,9e-08
1536693110418697496,1261,1536693110417177688,base_link,-0.0325069804123,-0.0131672762798,0.663105602526,-0.747703737424,1.0,0.0,0.0,0.0,1.0,0.0,0.0,0.0,1.0,0.0897512361407,0.0278605762869,0.015534479171,1.21846967915e-07,0.0,0.0,0.0,1.21846967915e-07,0.0,0.0,0.0,1.21846967915e-07,0.1176798,0.61781895,9.79684335,9e-08,0.0,0.0,0.0,9e-08,0.0,0.0,0.0,9e-08
1536693110791553592,1262,1536693110791198616,base_link,-0.0443750855857,0.00373812607739,0.660938025719,-0.749118017639,1.0,0.0,0.0,0.0,1.0,0.0,0.0,0.0,1.0,0.114086441696,-0.0189016759396,0.0207375269383,1.21846967915e-07,0.0,0.0,0.0,1.21846967915e-07,0.0,0.0,0.0,1.21846967915e-07,0.20593965,0.6276256,10.6304086,9e-08,0.0,0.0,0.0,9e-08,0.0,0.0,0.0,9e-08
1536693111242667256,1263,1536693111242150648,base_link,-0.0587384671487,0.0284066973594,0.659075772902,-0.749240934277,1.0,0.0,0.0,0.0,1.0,0.0,0.0,0.0,1.0,0.0479897111654,-0.0962334722281,-0.0265067629516,1.21846967915e-07,0.0,0.0,0.0,1.21846967915e-07,0.0,0.0,0.0,1.21846967915e-07,0.32361945,0.83356525,11.2972608,9e-08,0.0,0.0,0.0,9e-08,0.0,0.0,0.0,9e-08
1536693111684351384,1264,1536693111684008888,base_link,-0.0376135678636,0.0339017795681,0.668237775825,-0.74222244901,1.0,0.0,0.0,0.0,1.0,0.0,0.0,0.0,1.0,-0.125986963511,-0.0296537317336,-0.0880639404058,1.21846967915e-07,0.0,0.0,0.0,1.21846967915e-07,0.0,0.0,0.0,1.21846967915e-07,0.26477955,0.75511205,11.179581,9e-08,0.0,0.0,0.0,9e-08,0.0,0.0,0.0,9e-08
1536693111936106136,1265,1536693111935836760,base_link,-0.0226305077047,0.0314690339429,0.674904349965,-0.736886475939,1.0,0.0,0.0,0.0,1.0,0.0,0.0,0.0,1.0,0.104982495308,-0.0470799915493,-0.0294190514833,1.21846967915e-07,0.0,0.0,0.0,1.21846967915e-07,0.0,0.0,0.0,1.21846967915e-07,0.46091255,0.46091255,12.05237285,9e-08,0.0,0.0,0.0,9e-08,0.0,0.0,0.0,9e-08
1536693112249808664,1266,1536693112243893944,base_link,-0.0359251685153,0.0503246126646,0.673847753921,-0.736278493617,1.0,0.0,0.0,0.0,1.0,0.0,0.0,0.0,1.0,0.108977742493,0.0192529577762,0.0179069936275,1.21846967915e-07,0.0,0.0,0.0,1.21846967915e-07,0.0,0.0,0.0,1.21846967915e-07,0.3138128,0.50013915,10.36562905,9e-08,0.0,0.0,0.0,9e-08,0.0,0.0,0.0,9e-08
1536693112683543192,1267,1536693112683256728,base_link,-0.0494152849245,0.0585141274119,0.670579897896,-0.73787317816,1.0,0.0,0.0,0.0,1.0,0.0,0.0,0.0,1.0,-0.0925341024995,0.0172261223197,-0.0268970485777,1.21846967915e-07,0.0,0.0,0.0,1.21846967915e-07,0.0,0.0,0.0,1.21846967915e-07,0.1176798,0.8237586,8.63965865,9e-08,0.0,0.0,0.0,9e-08,0.0,0.0,0.0,9e-08
1536693113111575928,1268,1536693113111323096,base_link,-0.0415307108013,0.0404464733131,0.684867840677,-0.726357572868,1.0,0.0,0.0,0.0,1.0,0.0,0.0,0.0,1.0,-0.0683067888021,-0.0071421652101,-0.108464315534,1.21846967915e-07,0.0,0.0,0.0,1.21846967915e-07,0.0,0.0,0.0,1.21846967915e-07,0.18632635,0.67665885,8.63965865,9e-08,0.0,0.0,0.0,9e-08,0.0,0.0,0.0,9e-08
1536693113510754424,1269,1536693113510366840,base_link,-0.0306090155272,0.0397346878136,0.693294425988,-0.718906865767,1.0,0.0,0.0,0.0,1.0,0.0,0.0,0.0,1.0,-0.00436156662181,-0.00947554688901,-0.00826338399202,1.21846967915e-07,0.0,0.0,0.0,1.21846967915e-07,0.0,0.0,0.0,1.21846967915e-07,0.32361945,0.5491724,10.30678915,9e-08,0.0,0.0,0.0,9e-08,0.0,0.0,0.0,9e-08
1536693113907465368,1270,1536693113903712952,base_link,-0.0466149962332,0.0522045488223,0.690282933836,-0.720146650664,1.0,0.0,0.0,0.0,1.0,0.0,0.0,0.0,1.0,0.198049813509,0.0449798218906,0.0055485945195,1.21846967915e-07,0.0,0.0,0.0,1.21846967915e-07,0.0,0.0,0.0,1.21846967915e-07,0.34323275,0.63743225,9.9635564,9e-08,0.0,0.0,0.0,9e-08,0.0,0.0,0.0,9e-08
1536693114238276120,1271,1536693114237920728,base_link,-0.0760495156134,0.0788523670486,0.690905405451,-0.714596736702,1.0,0.0,0.0,0.0,1.0,0.0,0.0,0.0,1.0,0.225820705295,-0.0406446680427,-0.0530149787664,1.21846967915e-07,0.0,0.0,0.0,1.21846967915e-07,0.0,0.0,0.0,1.21846967915e-07,0.2745862,0.7453054,9.38496405,9e-08,0.0,0.0,0.0,9e-08,0.0,0.0,0.0,9e-08
1536693114665028248,1272,1536693114664658136,base_link,0.10711738539,-0.118868277808,-0.69851342918,0.697477732643,1.0,0.0,0.0,0.0,1.0,0.0,0.0,0.0,1.0,0.26249986887,0.0270797647536,-0.108661621809,1.21846967915e-07,0.0,0.0,0.0,1.21846967915e-07,0.0,0.0,0.0,1.21846967915e-07,0.4118793,0.9022118,10.3165958,9e-08,0.0,0.0,0.0,9e-08,0.0,0.0,0.0,9e-08
1536693115211615192,1273,1536693115211293560,base_link,0.154887028559,-0.175404216758,-0.718504951697,0.654976338133,1.0,0.0,0.0,0.0,1.0,0.0,0.0,0.0,1.0,0.280245244503,-0.11351840198,-0.198068588972,1.21846967915e-07,0.0,0.0,0.0,1.21846967915e-07,0.0,0.0,0.0,1.21846967915e-07,0.4707192,1.02969825,10.13026945,9e-08,0.0,0.0,0.0,9e-08,0.0,0.0,0.0,9e-08
1536693115541948280,1274,1536693115539713112,base_link,0.173846608002,-0.209602496457,-0.736873488841,0.6187581206,1.0,0.0,0.0,0.0,1.0,0.0,0.0,0.0,1.0,0.184775650501,-0.120655499399,-0.230774879456,1.21846967915e-07,0.0,0.0,0.0,1.21846967915e-07,0.0,0.0,0.0,1.21846967915e-07,0.6080123,1.1964113,10.60098865,9e-08,0.0,0.0,0.0,9e-08,0.0,0.0,0.0,9e-08
1536693115888897784,1275,1536693115887977720,base_link,0.194995284572,-0.233617816367,-0.759603032476,0.57480673963,1.0,0.0,0.0,0.0,1.0,0.0,0.0,0.0,1.0,0.204626828432,-0.123706877232,-0.30702906847,1.21846967915e-07,0.0,0.0,0.0,1.21846967915e-07,0.0,0.0,0.0,1.21846967915e-07,0.61781895,1.06892485,9.3947707,9e-08,0.0,0.0,0.0,9e-08,0.0,0.0,0.0,9e-08
1536693116325823512,1276,1536693116325587768,base_link,0.191553281657,-0.264800715139,-0.799609596812,0.50379798951,1.0,0.0,0.0,0.0,1.0,0.0,0.0,0.0,1.0,0.128812357783,-0.242374897003,-0.319343805313,1.21846967915e-07,0.0,0.0,0.0,1.21846967915e-07,0.0,0.0,0.0,1.21846967915e-07,0.8433719,1.20621795,11.30706745,9e-08,0.0,0.0,0.0,9e-08,0.0,0.0,0.0,9e-08
1536693116641466168,1277,1536693116640933784,base_link,0.187024025481,-0.297959067428,-0.8224597388,0.446992601822,1.0,0.0,0.0,0.0,1.0,0.0,0.0,0.0,1.0,0.112227723002,-0.308379948139,-0.284782022238,1.21846967915e-07,0.0,0.0,0.0,1.21846967915e-07,0.0,0.0,0.0,1.21846967915e-07,1.10815145,1.0591182,11.67972015,9e-08,0.0,0.0,0.0,9e-08,0.0,0.0,0.0,9e-08
1536693116950567224,1278,1536693116949375288,base_link,0.167824225331,-0.32169633414,-0.843848990737,0.395304159888,1.0,0.0,0.0,0.0,1.0,0.0,0.0,0.0,1.0,0.073327973485,-0.345356225967,-0.28263553977,1.21846967915e-07,0.0,0.0,0.0,1.21846967915e-07,0.0,0.0,0.0,1.21846967915e-07,1.44157755,1.1964113,12.58193195,9e-08,0.0,0.0,0.0,9e-08,0.0,0.0,0.0,9e-08
1536693117581162296,1279,1536693117580945624,base_link,0.110319930135,-0.363343666184,-0.882619839969,0.277115700298,1.0,0.0,0.0,0.0,1.0,0.0,0.0,0.0,1.0,0.0575280785561,-0.382499575615,-0.301750928164,1.21846967915e-07,0.0,0.0,0.0,1.21846967915e-07,0.0,0.0,0.0,1.21846967915e-07,1.75539035,1.4906108,13.3762706,9e-08,0.0,0.0,0.0,9e-08,0.0,0.0,0.0,9e-08
1536693117902483352,1280,1536693117902174520,base_link,0.0816496138191,-0.379935952791,-0.896970166926,0.210776023269,1.0,0.0,0.0,0.0,1.0,0.0,0.0,0.0,1.0,0.0352912917733,-0.347461491823,-0.331888854504,1.21846967915e-07,0.0,0.0,0.0,1.21846967915e-07,0.0,0.0,0.0,1.21846967915e-07,1.7063571,1.46119085,13.95486295,9e-08,0.0,0.0,0.0,9e-08,0.0,0.0,0.0,9e-08
1536693118357140568,1281,1536693118356565624,base_link,0.0266228272774,-0.388647959483,-0.913767015566,0.115212108395,1.0,0.0,0.0,0.0,1.0,0.0,0.0,0.0,1.0,-0.0644927546382,-0.350590616465,-0.297462373972,1.21846967915e-07,0.0,0.0,0.0,1.21846967915e-07,0.0,0.0,0.0,1.21846967915e-07,1.6475172,1.48080415,14.56287525,9e-08,0.0,0.0,0.0,9e-08,0.0,0.0,0.0,9e-08
1536693118780722904,1282,1536693118780424344,base_link,-0.034727589061,-0.370314809528,-0.928114807443,0.0162431710766,1.0,0.0,0.0,0.0,1.0,0.0,0.0,0.0,1.0,-0.205502852798,-0.453480124474,-0.275124818087,1.21846967915e-07,0.0,0.0,0.0,1.21846967915e-07,0.0,0.0,0.0,1.21846967915e-07,1.4513842,1.3925443,15.97503285,9e-08,0.0,0.0,0.0,9e-08,0.0,0.0,0.0,9e-08
1536693119294555416,1283,1536693119294248280,base_link,-0.102820191114,-0.278304929186,-0.95175385632,-0.0783515900935,1.0,0.0,0.0,0.0,1.0,0.0,0.0,0.0,1.0,-0.493456363678,-0.286185473204,-0.19742000103,1.21846967915e-07,0.0,0.0,0.0,1.21846967915e-07,0.0,0.0,0.0,1.21846967915e-07,1.32389775,1.4121576,14.97475455,9e-08,0.0,0.0,0.0,9e-08,0.0,0.0,0.0,9e-08
1536693119633284312,1284,1536693119633053816,base_link,-0.125276990384,-0.195378319842,-0.964260136855,-0.127809922492,1.0,0.0,0.0,0.0,1.0,0.0,0.0,0.0,1.0,-0.540805637836,-0.158420458436,-0.210792407393,1.21846967915e-07,0.0,0.0,0.0,1.21846967915e-07,0.0,0.0,0.0,1.21846967915e-07,1.04931155,1.3337044,14.4550021,9e-08,0.0,0.0,0.0,9e-08,0.0,0.0,0.0,9e-08
1536693120046011416,1285,1536693120045555480,base_link,-0.137721402718,-0.106311024986,-0.967347336107,-0.184309284972,1.0,0.0,0.0,0.0,1.0,0.0,0.0,0.0,1.0,-0.492590993643,-0.149453788996,-0.126607015729,1.21846967915e-07,0.0,0.0,0.0,1.21846967915e-07,0.0,0.0,0.0,1.21846967915e-07,0.44129925,0.69627215,12.15043935,9e-08,0.0,0.0,0.0,9e-08,0.0,0.0,0.0,9e-08
1536693120538188600,1286,1536693120537946328,base_link,-0.118487923943,0.0107546602755,-0.96901575055,-0.216456518379,1.0,0.0,0.0,0.0,1.0,0.0,0.0,0.0,1.0,-0.407890439034,0.0914601236582,-0.038793604821,1.21846967915e-07,0.0,0.0,0.0,1.21846967915e-07,0.0,0.0,0.0,1.21846967915e-07,0.04903325,0.7453054,9.60071035,9e-08,0.0,0.0,0.0,9e-08,0.0,0.0,0.0,9e-08
1536693121103058456,1287,1536693121102803800,base_link,-0.0780545221436,0.070504077025,-0.968631319536,-0.225144472528,1.0,0.0,0.0,0.0,1.0,0.0,0.0,0.0,1.0,-0.0836272463202,0.117418684065,0.0829204842448,1.21846967915e-07,0.0,0.0,0.0,1.21846967915e-07,0.0,0.0,0.0,1.21846967915e-07,0.0196133,0.2549729,7.75706015,9e-08,0.0,0.0,0.0,9e-08,0.0,0.0,0.0,9e-08
1536693121463444216,1288,1536693121463183608,base_link,-0.0417789610821,0.0829871737944,-0.975110028957,-0.201315868288,1.0,0.0,0.0,0.0,1.0,0.0,0.0,0.0,1.0,-0.0858009830117,0.161430805922,0.160397812724,1.21846967915e-07,0.0,0.0,0.0,1.21846967915e-07,0.0,0.0,0.0,1.21846967915e-07,-0.1372931,0.38245935,7.16866115,9e-08,0.0,0.0,0.0,9e-08,0.0,0.0,0.0,9e-08
1536693121832862008,1289,1536693121832422008,base_link,0.000599246232593,0.0882038867881,-0.980347892704,-0.176458846562,1.0,0.0,0.0,0.0,1.0,0.0,0.0,0.0,1.0,-0.0429017841816,0.278541386127,0.132369235158,1.21846967915e-07,0.0,0.0,0.0,1.21846967915e-07,0.0,0.0,0.0,1.21846967915e-07,-0.14709975,0.44129925,6.56064885,9e-08,0.0,0.0,0.0,9e-08,0.0,0.0,0.0,9e-08
1536693122226340856,1290,1536693122226111608,base_link,0.0482466758076,0.0823026881544,-0.983351201116,-0.154657495973,1.0,0.0,0.0,0.0,1.0,0.0,0.0,0.0,1.0,-0.0221969541162,0.170736089349,0.0993968620896,1.21846967915e-07,0.0,0.0,0.0,1.21846967915e-07,0.0,0.0,0.0,1.21846967915e-07,-0.16671305,0.32361945,6.54103555,9e-08,0.0,0.0,0.0,9e-08,0.0,0.0,0.0,9e-08
1536693122578022104,1291,1536693122577768728,base_link,0.0718494044115,0.0716331457805,-0.985102635247,-0.138849391574,1.0,0.0,0.0,0.0,1.0,0.0,0.0,0.0,1.0,0.0992868617177,0.134970083833,0.111221216619,1.21846967915e-07,0.0,0.0,0.0,1.21846967915e-07,0.0,0.0,0.0,1.21846967915e-07,-0.18632635,0.30400615,8.1591328,9e-08,0.0,0.0,0.0,9e-08,0.0,0.0,0.0,9e-08
1536693122942489816,1292,1536693122942236824,base_link,0.0946831619473,0.0710728285708,-0.986267160723,-0.115155718751,1.0,0.0,0.0,0.0,1.0,0.0,0.0,0.0,1.0,0.00619423668832,0.0864573270082,0.140909433365,1.21846967915e-07,0.0,0.0,0.0,1.21846967915e-07,0.0,0.0,0.0,1.21846967915e-07,-0.16671305,0.20593965,8.0022264,9e-08,0.0,0.0,0.0,9e-08,0.0,0.0,0.0,9e-08
1536693123406605016,1293,1536693123406263032,base_link,0.10396471882,0.0630468808467,-0.989530119107,-0.0777597031633,1.0,0.0,0.0,0.0,1.0,0.0,0.0,0.0,1.0,0.0308903381228,-0.0185428056866,0.138731315732,1.21846967915e-07,0.0,0.0,0.0,1.21846967915e-07,0.0,0.0,0.0,1.21846967915e-07,-0.0980665,0.51975245,9.414384,9e-08,0.0,0.0,0.0,9e-08,0.0,0.0,0.0,9e-08
1536693123734203320,1294,1536693123733891896,base_link,0.100448375858,0.0575468460828,-0.991669225724,-0.0564856711453,1.0,0.0,0.0,0.0,1.0,0.0,0.0,0.0,1.0,0.0439765751362,-0.0290050730109,0.0831693410873,1.21846967915e-07,0.0,0.0,0.0,1.21846967915e-07,0.0,0.0,0.0,1.21846967915e-07,-0.12748645,0.392266,9.7478101,9e-08,0.0,0.0,0.0,9e-08,0.0,0.0,0.0,9e-08
1536693124195307160,1295,1536693124194631544,base_link,0.0831869035445,0.0411555446817,-0.995173465007,-0.03187373161,1.0,0.0,0.0,0.0,1.0,0.0,0.0,0.0,1.0,0.169754087925,-0.0839623212814,0.135677322745,1.21846967915e-07,0.0,0.0,0.0,1.21846967915e-07,0.0,0.0,0.0,1.21846967915e-07,-0.08825985,0.392266,11.34629405,9e-08,0.0,0.0,0.0,9e-08,0.0,0.0,0.0,9e-08
1536693124464046008,1296,1536693124463796760,base_link,0.0684539891449,0.0112696503647,-0.997502670159,-0.0132464854573,1.0,0.0,0.0,0.0,1.0,0.0,0.0,0.0,1.0,0.209016129375,-0.0265409909189,0.102222710848,1.21846967915e-07,0.0,0.0,0.0,1.21846967915e-07,0.0,0.0,0.0,1.21846967915e-07,-0.16671305,0.7649187,11.24822755,9e-08,0.0,0.0,0.0,9e-08,0.0,0.0,0.0,9e-08
1536693124818334424,1297,1536693124817618072,base_link,0.0472571286852,-0.0202756063468,-0.998665129721,-0.00486027311379,1.0,0.0,0.0,0.0,1.0,0.0,0.0,0.0,1.0,0.175538957119,-0.141465261579,0.0200203824788,1.21846967915e-07,0.0,0.0,0.0,1.21846967915e-07,0.0,0.0,0.0,1.21846967915e-07,-0.02941995,0.7453054,12.13082605,9e-08,0.0,0.0,0.0,9e-08,0.0,0.0,0.0,9e-08
1536693125277424152,1298,1536693125277101880,base_link,0.0201451355004,-0.0501840911319,-0.99851679672,-0.0063195870943,1.0,0.0,0.0,0.0,1.0,0.0,0.0,0.0,1.0,0.0349541120231,-0.0581117384136,-0.0250161569566,1.21846967915e-07,0.0,0.0,0.0,1.21846967915e-07,0.0,0.0,0.0,1.21846967915e-07,0.04903325,0.8237586,11.4541672,9e-08,0.0,0.0,0.0,9e-08,0.0,0.0,0.0,9e-08
1536693125726193080,1299,1536693125725684984,base_link,3.82133318677e-06,-0.0529392988305,-0.998437536619,-0.0178861984643,1.0,0.0,0.0,0.0,1.0,0.0,0.0,0.0,1.0,-0.00744822528213,-0.101741634309,-0.0664728879929,1.21846967915e-07,0.0,0.0,0.0,1.21846967915e-07,0.0,0.0,0.0,1.21846967915e-07,0.0196133,0.7649187,11.66010685,9e-08,0.0,0.0,0.0,9e-08,0.0,0.0,0.0,9e-08
1536693126079955960,1300,1536693126079232600,base_link,-0.0160299784574,-0.0628125651136,-0.997449644568,-0.0298634895029,1.0,0.0,0.0,0.0,1.0,0.0,0.0,0.0,1.0,0.0833114311099,-0.0700783208013,-0.0423482991755,1.21846967915e-07,0.0,0.0,0.0,1.21846967915e-07,0.0,0.0,0.0,1.21846967915e-07,0.0,0.55897905,10.983448,9e-08,0.0,0.0,0.0,9e-08,0.0,0.0,0.0,9e-08
1536693126477089464,1301,1536693126476845432,base_link,-0.0227883021233,-0.0784548643647,-0.996077014339,-0.034001603637,1.0,0.0,0.0,0.0,1.0,0.0,0.0,0.0,1.0,0.0678654313087,-0.00693303672597,-0.0128961801529,1.21846967915e-07,0.0,0.0,0.0,1.21846967915e-07,0.0,0.0,0.0,1.21846967915e-07,0.0,0.4903325,10.75789505,9e-08,0.0,0.0,0.0,9e-08,0.0,0.0,0.0,9e-08
1536693126740570776,1302,1536693126739266840,base_link,-0.0236789703238,-0.0921005411691,-0.994971915923,-0.0314274276021,1.0,0.0,0.0,0.0,1.0,0.0,0.0,0.0,1.0,0.177601382136,0.0119143771008,0.00718209287152,1.21846967915e-07,0.0,0.0,0.0,1.21846967915e-07,0.0,0.0,0.0,1.21846967915e-07,0.0,0.65704555,10.56176205,9e-08,0.0,0.0,0.0,9e-08,0.0,0.0,0.0,9e-08
1536693127126203576,1303,1536693127119655896,base_link,-0.016456688375,-0.0897373561333,-0.995334848071,-0.0313835073982,1.0,0.0,0.0,0.0,1.0,0.0,0.0,0.0,1.0,-0.0942101851106,0.0190862547606,0.00964716263115,1.21846967915e-07,0.0,0.0,0.0,1.21846967915e-07,0.0,0.0,0.0,1.21846967915e-07,0.02941995,0.46091255,9.24767095,9e-08,0.0,0.0,0.0,9e-08,0.0,0.0,0.0,9e-08
1536693127525891800,1304,1536693127525544312,base_link,-0.00482057900704,-0.0770762216345,-0.996571705997,-0.0296791657961,1.0,0.0,0.0,0.0,1.0,0.0,0.0,0.0,1.0,-0.198580145836,0.097495265305,-0.00387815013528,1.21846967915e-07,0.0,0.0,0.0,1.21846967915e-07,0.0,0.0,0.0,1.21846967915e-07,0.0,0.97085835,8.73772515,9e-08,0.0,0.0,0.0,9e-08,0.0,0.0,0.0,9e-08
1536693127986792024,1305,1536693127986525208,base_link,0.0253297670532,-0.0420286895054,-0.997139959015,-0.057479511953,1.0,0.0,0.0,0.0,1.0,0.0,0.0,0.0,1.0,-0.0858324170113,0.0654851272702,-0.138485088944,1.21846967915e-07,0.0,0.0,0.0,1.21846967915e-07,0.0,0.0,0.0,1.21846967915e-07,-0.20593965,0.59820565,8.0218397,9e-08,0.0,0.0,0.0,9e-08,0.0,0.0,0.0,9e-08
1536693128353635160,1306,1536693128353405080,base_link,0.0262725001382,-0.0268308154218,-0.996738863575,-0.0714247920476,1.0,0.0,0.0,0.0,1.0,0.0,0.0,0.0,1.0,-0.0672123879194,-0.0333005674183,-0.0260823667049,1.21846967915e-07,0.0,0.0,0.0,1.21846967915e-07,0.0,0.0,0.0,1.21846967915e-07,-0.0980665,0.24516625,9.32612415,9e-08,0.0,0.0,0.0,9e-08,0.0,0.0,0.0,9e-08
1536693128769800568,1307,1536693128769463000,base_link,0.0273611079283,-0.0194100483887,-0.997581894484,-0.0608685763873,1.0,0.0,0.0,0.0,1.0,0.0,0.0,0.0,1.0,-0.101400531828,0.00221422128379,0.0709316059947,1.21846967915e-07,0.0,0.0,0.0,1.21846967915e-07,0.0,0.0,0.0,1.21846967915e-07,0.0,0.5295591,9.6693569,9e-08,0.0,0.0,0.0,9e-08,0.0,0.0,0.0,9e-08
1536693129082971672,1308,1536693129082620152,base_link,0.0236584851152,-0.0126766162217,-0.998314302123,-0.0514600200101,1.0,0.0,0.0,0.0,1.0,0.0,0.0,0.0,1.0,0.0826995000243,-0.0836959332228,0.0632108598948,1.21846967915e-07,0.0,0.0,0.0,1.21846967915e-07,0.0,0.0,0.0,1.21846967915e-07,-0.1176798,0.392266,10.1204628,9e-08,0.0,0.0,0.0,9e-08,0.0,0.0,0.0,9e-08
1536693129377431032,1309,1536693129375305048,base_link,0.0133149584604,-0.0231153050808,-0.998884549903,-0.0389621677722,1.0,0.0,0.0,0.0,1.0,0.0,0.0,0.0,1.0,-0.00954137183726,-5.91554271523e-05,0.0763813704252,1.21846967915e-07,0.0,0.0,0.0,1.21846967915e-07,0.0,0.0,0.0,1.21846967915e-07,0.0588399,0.63743225,11.34629405,9e-08,0.0,0.0,0.0,9e-08,0.0,0.0,0.0,9e-08
1536693129761728184,1310,1536693129761464920,base_link,0.00932667453699,-0.0285417497188,-0.999289251766,-0.0227897558174,1.0,0.0,0.0,0.0,1.0,0.0,0.0,0.0,1.0,0.0578284002841,-0.0227251723409,0.100073702633,1.21846967915e-07,0.0,0.0,0.0,1.21846967915e-07,0.0,0.0,0.0,1.21846967915e-07,0.10787315,0.6472389,11.4933938,9e-08,0.0,0.0,0.0,9e-08,0.0,0.0,0.0,9e-08
1536693130110548152,1311,1536693130110189592,base_link,0.00890395669748,-0.00904911288922,-0.999760268812,-0.0178392268714,1.0,0.0,0.0,0.0,1.0,0.0,0.0,0.0,1.0,-0.123672105372,-0.00641486002132,-0.0898279845715,1.21846967915e-07,0.0,0.0,0.0,1.21846967915e-07,0.0,0.0,0.0,1.21846967915e-07,-0.0588399,1.38273765,9.32612415,9e-08,0.0,0.0,0.0,9e-08,0.0,0.0,0.0,9e-08
1536693130410368120,1312,1536693130410073016,base_link,0.00334046083598,-0.00875668448799,-0.999168187285,-0.0396874705015,1.0,0.0,0.0,0.0,1.0,0.0,0.0,0.0,1.0,0.0685073658824,-0.0947549045086,-0.128593787551,1.21846967915e-07,0.0,0.0,0.0,1.21846967915e-07,0.0,0.0,0.0,1.21846967915e-07,-0.10787315,0.46091255,9.77723005,9e-08,0.0,0.0,0.0,9e-08,0.0,0.0,0.0,9e-08
1536693130806166136,1313,1536693130805905304,base_link,-0.0205235761569,-0.0692926694868,-0.99697689428,-0.0285373623167,1.0,0.0,0.0,0.0,1.0,0.0,0.0,0.0,1.0,0.201834455132,-0.142411887646,0.241713106632,1.21846967915e-07,0.0,0.0,0.0,1.21846967915e-07,0.0,0.0,0.0,1.21846967915e-07,0.14709975,0.2157463,11.1011278,9e-08,0.0,0.0,0.0,9e-08,0.0,0.0,0.0,9e-08
1536693131153532312,1314,1536693131153261240,base_link,-0.0309686866512,-0.062427047621,-0.997568882747,-0.000358255585899,1.0,0.0,0.0,0.0,1.0,0.0,0.0,0.0,1.0,-0.158433437347,0.00837767217308,0.0719271674752,1.21846967915e-07,0.0,0.0,0.0,1.21846967915e-07,0.0,0.0,0.0,1.21846967915e-07,0.1569064,0.99047165,11.8660465,9e-08,0.0,0.0,0.0,9e-08,0.0,0.0,0.0,9e-08
1536693131575852312,1315,1536693131575509720,base_link,-0.0341191088301,-0.0428723937904,-0.998421073393,-0.0123775792651,1.0,0.0,0.0,0.0,1.0,0.0,0.0,0.0,1.0,-0.139593303204,-0.0279017165303,-0.112776868045,1.21846967915e-07,0.0,0.0,0.0,1.21846967915e-07,0.0,0.0,0.0,1.21846967915e-07,0.0980665,0.8629852,9.1005712,9e-08,0.0,0.0,0.0,9e-08,0.0,0.0,0.0,9e-08
1536693131872554008,1316,1536693131871743160,base_link,-0.0404370411286,-0.0316858219554,-0.998129428766,-0.0331435939913,1.0,0.0,0.0,0.0,1.0,0.0,0.0,0.0,1.0,-0.0473042614758,-0.0439868010581,-0.143646582961,1.21846967915e-07,0.0,0.0,0.0,1.21846967915e-07,0.0,0.0,0.0,1.21846967915e-07,-0.06864655,0.7649187,10.4735022,9e-08,0.0,0.0,0.0,9e-08,0.0,0.0,0.0,9e-08
1536693132213617496,1317,1536693132213272600,base_link,-0.0510479244971,-0.0404920245759,-0.996645806834,-0.0495140492236,1.0,0.0,0.0,0.0,1.0,0.0,0.0,0.0,1.0,0.145526334643,-0.0842418521643,0.00774074997753,1.21846967915e-07,0.0,0.0,0.0,1.21846967915e-07,0.0,0.0,0.0,1.21846967915e-07,0.0,0.32361945,10.591182,9e-08,0.0,0.0,0.0,9e-08,0.0,0.0,0.0,9e-08
1536693132627966936,1318,1536693132627629432,base_link,-0.0726860489722,-0.0601786270923,-0.994842023497,-0.0372104744779,1.0,0.0,0.0,0.0,1.0,0.0,0.0,0.0,1.0,0.0334990695119,-0.0752055197954,0.0454805195332,1.21846967915e-07,0.0,0.0,0.0,1.21846967915e-07,0.0,0.0,0.0,1.21846967915e-07,0.18632635,0.8433719,10.46369555,9e-08,0.0,0.0,0.0,9e-08,0.0,0.0,0.0,9e-08
1536693133020629528,1319,1536693133019706552,base_link,-0.0837082044969,-0.0715023572183,-0.993023032691,-0.0422564309635,1.0,0.0,0.0,0.0,1.0,0.0,0.0,0.0,1.0,-0.0649347901344,-0.0135092064738,-0.0458696931601,1.21846967915e-07,0.0,0.0,0.0,1.21846967915e-07,0.0,0.0,0.0,1.21846967915e-07,0.38245935,0.6668522,11.8268199,9e-08,0.0,0.0,0.0,9e-08,0.0,0.0,0.0,9e-08
1536693133526091576,1320,1536693133525656088,base_link,-0.0778970484103,-0.0459344275334,-0.994619681305,-0.0505348174642,1.0,0.0,0.0,0.0,1.0,0.0,0.0,0.0,1.0,-0.138271987438,-0.012205359526,-0.0210590660572,1.21846967915e-07,0.0,0.0,0.0,1.21846967915e-07,0.0,0.0,0.0,1.21846967915e-07,0.22555295,0.53936575,9.14960445,9e-08,0.0,0.0,0.0,9e-08,0.0,0.0,0.0,9e-08
1536693133942200024,1321,1536693133941904664,base_link,-0.0820983149193,-0.0461734965903,-0.994427334146,-0.047351367489,1.0,0.0,0.0,0.0,1.0,0.0,0.0,0.0,1.0,-0.0417602807283,0.0162919200957,0.035339448601,1.21846967915e-07,0.0,0.0,0.0,1.21846967915e-07,0.0,0.0,0.0,1.21846967915e-07,0.5295591,0.8433719,10.54214875,9e-08,0.0,0.0,0.0,9e-08,0.0,0.0,0.0,9e-08
1536693134328747256,1322,1536693134324647704,base_link,-0.067025362456,-0.0525046305801,-0.995267583223,-0.046832705888,1.0,0.0,0.0,0.0,1.0,0.0,0.0,0.0,1.0,0.121337532997,0.112058848143,-0.0229431577027,1.21846967915e-07,0.0,0.0,0.0,1.21846967915e-07,0.0,0.0,0.0,1.21846967915e-07,0.20593965,0.51975245,7.9041599,9e-08,0.0,0.0,0.0,9e-08,0.0,0.0,0.0,9e-08
1536693134739583224,1323,1536693134739034840,base_link,-0.04185020293,-0.0616273210414,-0.995955206947,-0.0502380291337,1.0,0.0,0.0,0.0,1.0,0.0,0.0,0.0,1.0,-0.0595021545887,0.109571874142,-0.0316932350397,1.21846967915e-07,0.0,0.0,0.0,1.21846967915e-07,0.0,0.0,0.0,1.21846967915e-07,0.0784532,0.7256921,6.97252815,9e-08,0.0,0.0,0.0,9e-08,0.0,0.0,0.0,9e-08
1536693135058075192,1324,1536693135057734808,base_link,-0.018651954961,-0.0407175965604,-0.997154799707,-0.0606340442961,1.0,0.0,0.0,0.0,1.0,0.0,0.0,0.0,1.0,-0.133781835437,0.135548278689,-0.0960645228624,1.21846967915e-07,0.0,0.0,0.0,1.21846967915e-07,0.0,0.0,0.0,1.21846967915e-07,0.0980665,0.89240515,7.52170055,9e-08,0.0,0.0,0.0,9e-08,0.0,0.0,0.0,9e-08
1536693135478219864,1325,1536693135477926712,base_link,0.00342066496812,-0.035136321154,-0.99593189201,-0.0829059977541,1.0,0.0,0.0,0.0,1.0,0.0,0.0,0.0,1.0,0.097628057003,0.0834240242839,-0.082708530128,1.21846967915e-07,0.0,0.0,0.0,1.21846967915e-07,0.0,0.0,0.0,1.21846967915e-07,0.22555295,0.4903325,8.38468575,9e-08,0.0,0.0,0.0,9e-08,0.0,0.0,0.0,9e-08
1536693135896651192,1326,1536693135896225016,base_link,0.0154879936972,-0.0609136714288,-0.994119009066,-0.0881875416235,1.0,0.0,0.0,0.0,1.0,0.0,0.0,0.0,1.0,0.0676458030939,0.0563899986446,0.00056811212562,1.21846967915e-07,0.0,0.0,0.0,1.21846967915e-07,0.0,0.0,0.0,1.21846967915e-07,0.38245935,0.36284605,9.01231135,9e-08,0.0,0.0,0.0,9e-08,0.0,0.0,0.0,9e-08
1536693136219219960,1327,1536693136217131576,base_link,0.0273488873242,-0.0743520314176,-0.993354925009,-0.0834853684623,1.0,0.0,0.0,0.0,1.0,0.0,0.0,0.0,1.0,0.0284276045859,0.0884817615151,0.0337628796697,1.21846967915e-07,0.0,0.0,0.0,1.21846967915e-07,0.0,0.0,0.0,1.21846967915e-07,0.40207265,0.59820565,8.5317855,9e-08,0.0,0.0,0.0,9e-08,0.0,0.0,0.0,9e-08
1536693136517452216,1328,1536693136517194648,base_link,0.0394735112005,-0.0622204155504,-0.994097507221,-0.0796279344204,1.0,0.0,0.0,0.0,1.0,0.0,0.0,0.0,1.0,-0.0698244124651,0.0983637347817,0.00617646146566,1.21846967915e-07,0.0,0.0,0.0,1.21846967915e-07,0.0,0.0,0.0,1.21846967915e-07,0.4707192,0.8237586,9.16921775,9e-08,0.0,0.0,0.0,9e-08,0.0,0.0,0.0,9e-08
1536693136995432408,1329,1536693136993270904,base_link,0.0649596740836,-0.0719128066228,-0.990560621931,-0.0969455685741,1.0,0.0,0.0,0.0,1.0,0.0,0.0,0.0,1.0,0.318564593792,0.0395214743912,-0.0986673906446,1.21846967915e-07,0.0,0.0,0.0,1.21846967915e-07,0.0,0.0,0.0,1.21846967915e-07,0.4511059,0.61781895,9.05153795,9e-08,0.0,0.0,0.0,9e-08,0.0,0.0,0.0,9e-08
1536693137414216664,1330,1536693137413947352,base_link,0.073864533194,-0.126896798546,-0.982695908591,-0.112915829238,1.0,0.0,0.0,0.0,1.0,0.0,0.0,0.0,1.0,0.162191092968,0.0491487495601,-0.0378885678947,1.21846967915e-07,0.0,0.0,0.0,1.21846967915e-07,0.0,0.0,0.0,1.21846967915e-07,0.48052585,0.7453054,9.2378643,9e-08,0.0,0.0,0.0,9e-08,0.0,0.0,0.0,9e-08
1536693137852418872,1331,1536693137851341016,base_link,0.0817774058708,-0.163027448568,-0.973898242361,-0.135117431997,1.0,0.0,0.0,0.0,1.0,0.0,0.0,0.0,1.0,0.192981377244,-0.0208291895688,-0.176902607083,1.21846967915e-07,0.0,0.0,0.0,1.21846967915e-07,0.0,0.0,0.0,1.21846967915e-07,0.4314926,0.83356525,9.2378643,9e-08,0.0,0.0,0.0,9e-08,0.0,0.0,0.0,9e-08
1536693138177607928,1332,1536693138177118680,base_link,0.0771439866611,-0.1899821475,-0.965595553616,-0.159940038111,1.0,0.0,0.0,0.0,1.0,0.0,0.0,0.0,1.0,0.089236907661,0.0253248494118,-0.115257881582,1.21846967915e-07,0.0,0.0,0.0,1.21846967915e-07,0.0,0.0,0.0,1.21846967915e-07,0.8825985,0.980665,10.95402805,9e-08,0.0,0.0,0.0,9e-08,0.0,0.0,0.0,9e-08
1536693138603730904,1333,1536693138603281624,base_link,0.0776083160801,-0.215261299627,-0.955325469419,-0.187063544383,1.0,0.0,0.0,0.0,1.0,0.0,0.0,0.0,1.0,0.296165198088,0.0389422103763,-0.126537770033,1.21846967915e-07,0.0,0.0,0.0,1.21846967915e-07,0.0,0.0,0.0,1.21846967915e-07,0.980665,0.99047165,11.26784085,9e-08,0.0,0.0,0.0,9e-08,0.0,0.0,0.0,9e-08
1536693138973784280,1334,1536693138973460280,base_link,0.0748773788701,-0.265908820064,-0.934660891082,-0.223818891577,1.0,0.0,0.0,0.0,1.0,0.0,0.0,0.0,1.0,0.284753471613,-0.0403471365571,-0.219062790275,1.21846967915e-07,0.0,0.0,0.0,1.21846967915e-07,0.0,0.0,0.0,1.21846967915e-07,1.08853815,1.1375714,10.1400761,9e-08,0.0,0.0,0.0,9e-08,0.0,0.0,0.0,9e-08
1536693139486834712,1335,1536693139486523960,base_link,0.0293507816797,-0.367547804883,-0.880204145547,-0.298810650584,1.0,0.0,0.0,0.0,1.0,0.0,0.0,0.0,1.0,0.36171105504,-0.130303993821,-0.12320484966,1.21846967915e-07,0.0,0.0,0.0,1.21846967915e-07,0.0,0.0,0.0,1.21846967915e-07,0.89240515,0.0784532,14.03331615,9e-08,0.0,0.0,0.0,9e-08,0.0,0.0,0.0,9e-08
1536693139738085240,1336,1536693139737819576,base_link,0.0107746529049,-0.375760876675,-0.873548888866,-0.309192511514,1.0,0.0,0.0,0.0,1.0,0.0,0.0,0.0,1.0,0.10092497617,-0.0558750927448,-0.0560862794518,1.21846967915e-07,0.0,0.0,0.0,1.21846967915e-07,0.0,0.0,0.0,1.21846967915e-07,0.5295591,0.9414384,12.03275955,9e-08,0.0,0.0,0.0,9e-08,0.0,0.0,0.0,9e-08
1536693140061734936,1337,1536693140061531736,base_link,0.00796389950099,-0.389013748524,-0.855321945363,-0.34209538077,1.0,0.0,0.0,0.0,1.0,0.0,0.0,0.0,1.0,0.0523482561111,-0.0602759383619,-0.317676156759,1.21846967915e-07,0.0,0.0,0.0,1.21846967915e-07,0.0,0.0,0.0,1.21846967915e-07,0.63743225,1.5298374,7.69822025,9e-08,0.0,0.0,0.0,9e-08,0.0,0.0,0.0,9e-08
1536693140489113848,1338,1536693140488818552,base_link,0.0166685072544,-0.395121603273,-0.820919388993,-0.411937417903,1.0,0.0,0.0,0.0,1.0,0.0,0.0,0.0,1.0,0.0931131839752,-0.169802442193,-0.296936303377,1.21846967915e-07,0.0,0.0,0.0,1.21846967915e-07,0.0,0.0,0.0,1.21846967915e-07,-0.0588399,0.34323275,8.67888525,9e-08,0.0,0.0,0.0,9e-08,0.0,0.0,0.0,9e-08
1536693140876816312,1339,1536693140876446200,base_link,-0.00527343973513,-0.390392583668,-0.799537261221,-0.456405509793,1.0,0.0,0.0,0.0,1.0,0.0,0.0,0.0,1.0,0.0466311872005,-0.129128530622,-0.145048618317,1.21846967915e-07,0.0,0.0,0.0,1.21846967915e-07,0.0,0.0,0.0,1.21846967915e-07,-0.34323275,0.67665885,11.48358715,9e-08,0.0,0.0,0.0,9e-08,0.0,0.0,0.0,9e-08
