%time,field.header.seq,field.header.stamp,field.header.frame_id,field.orientation.x,field.orientation.y,field.orientation.z,field.orientation.w,field.orientation_covariance0,field.orientation_covariance1,field.orientation_covariance2,field.orientation_covariance3,field.orientation_covariance4,field.orientation_covariance5,field.orientation_covariance6,field.orientation_covariance7,field.orientation_covariance8,field.angular_velocity.x,field.angular_velocity.y,field.angular_velocity.z,field.angular_velocity_covariance0,field.angular_velocity_covariance1,field.angular_velocity_covariance2,field.angular_velocity_covariance3,field.angular_velocity_covariance4,field.angular_velocity_covariance5,field.angular_velocity_covariance6,field.angular_velocity_covariance7,field.angular_velocity_covariance8,field.linear_acceleration.x,field.linear_acceleration.y,field.linear_acceleration.z,field.linear_acceleration_covariance0,field.linear_acceleration_covariance1,field.linear_acceleration_covariance2,field.linear_acceleration_covariance3,field.linear_acceleration_covariance4,field.linear_acceleration_covariance5,field.linear_acceleration_covariance6,field.linear_acceleration_covariance7,field.linear_acceleration_covariance8
1539875279087975304,713,1539875279087638952,base_link,0.0132777939027,-0.162995848138,-0.977188123496,-0.135496955604,1.0,0.0,0.0,0.0,1.0,0.0,0.0,0.0,1.0,0.6091324687,0.140065461397,-0.0938963890076,1.21846967915e-07,0.0,0.0,0.0,1.21846967915e-07,0.0,0.0,0.0,1.21846967915e-07,-0.7649187,0.24516625,5.63882375,9e-08,0.0,0.0,0.0,9e-08,0.0,0.0,0.0,9e-08
1539875279402863048,714,1539875279398483656,base_link,0.00578376695484,-0.257229964319,-0.954004754028,-0.153864299917,1.0,0.0,0.0,0.0,1.0,0.0,0.0,0.0,1.0,0.52927428484,-0.00537051819265,-0.11729709059,1.21846967915e-07,0.0,0.0,0.0,1.21846967915e-07,0.0,0.0,0.0,1.21846967915e-07,-0.42168595,0.44129925,10.1596894,9e-08,0.0,0.0,0.0,9e-08,0.0,0.0,0.0,9e-08
1539875279842971112,715,1539875279842487240,base_link,0.00938626591706,-0.308599106059,-0.933876509762,-0.180424926953,1.0,0.0,0.0,0.0,1.0,0.0,0.0,0.0,1.0,-0.12087213248,0.0235808640718,-0.101813398302,1.21846967915e-07,0.0,0.0,0.0,1.21846967915e-07,0.0,0.0,0.0,1.21846967915e-07,-1.2944778,-0.04903325,7.6295737,9e-08,0.0,0.0,0.0,9e-08,0.0,0.0,0.0,9e-08
1539875280348115528,716,1539875280347317096,base_link,0.0477749332682,-0.270657999684,-0.938934181536,-0.207037208495,1.0,0.0,0.0,0.0,1.0,0.0,0.0,0.0,1.0,-0.246363729239,0.142585605383,-0.306734740734,1.21846967915e-07,0.0,0.0,0.0,1.21846967915e-07,0.0,0.0,0.0,1.21846967915e-07,-1.8632635,0.61781895,2.4124359,9e-08,0.0,0.0,0.0,9e-08,0.0,0.0,0.0,9e-08
1539875280778017320,717,1539875280777710376,base_link,0.0841116457703,-0.26829771551,-0.922068629787,-0.265953020027,1.0,0.0,0.0,0.0,1.0,0.0,0.0,0.0,1.0,0.226902723312,0.0208965316415,-0.27091562748,1.21846967915e-07,0.0,0.0,0.0,1.21846967915e-07,0.0,0.0,0.0,1.21846967915e-07,-2.1378497,0.9022118,2.941995,9e-08,0.0,0.0,0.0,9e-08,0.0,0.0,0.0,9e-08
1539875281156822248,718,1539875281156510600,base_link,0.0992577932304,-0.255491777709,-0.90879543726,-0.314583367682,1.0,0.0,0.0,0.0,1.0,0.0,0.0,0.0,1.0,-0.090542010963,-0.0179645381868,-0.234930574894,1.21846967915e-07,0.0,0.0,0.0,1.21846967915e-07,0.0,0.0,0.0,1.21846967915e-07,-2.0397832,0.5295591,7.44324735,9e-08,0.0,0.0,0.0,9e-08,0.0,0.0,0.0,9e-08
1539875281564906088,719,1539875281564540936,base_link,0.113855409808,-0.230983919691,-0.905297935114,-0.337815072458,1.0,0.0,0.0,0.0,1.0,0.0,0.0,0.0,1.0,-0.0360587909818,0.01432815101,-0.0621839538217,1.21846967915e-07,0.0,0.0,0.0,1.21846967915e-07,0.0,0.0,0.0,1.21846967915e-07,-1.96133,0.53936575,9.97336305,9e-08,0.0,0.0,0.0,9e-08,0.0,0.0,0.0,9e-08
1539875281849418344,720,1539875281849066536,base_link,0.125989572255,-0.205337199359,-0.908612133347,-0.341155761166,1.0,0.0,0.0,0.0,1.0,0.0,0.0,0.0,1.0,-0.276445895433,0.00776290753856,-0.0393366403878,1.21846967915e-07,0.0,0.0,0.0,1.21846967915e-07,0.0,0.0,0.0,1.21846967915e-07,-2.0593965,0.588399,8.6494653,9e-08,0.0,0.0,0.0,9e-08,0.0,0.0,0.0,9e-08
1539875282320519688,721,1539875282316994376,base_link,0.157888353619,-0.141483501996,-0.913636019495,-0.346875929312,1.0,0.0,0.0,0.0,1.0,0.0,0.0,0.0,1.0,-0.205932989717,0.0491023138165,-0.109815523028,1.21846967915e-07,0.0,0.0,0.0,1.21846967915e-07,0.0,0.0,0.0,1.21846967915e-07,-2.18688295,0.5295591,9.22805765,9e-08,0.0,0.0,0.0,9e-08,0.0,0.0,0.0,9e-08
1539875282673187656,722,1539875282672766760,base_link,0.164441417746,-0.124088613361,-0.918080019872,-0.338659287892,1.0,0.0,0.0,0.0,1.0,0.0,0.0,0.0,1.0,-0.335644990206,-0.0418633557856,0.124711118639,1.21846967915e-07,0.0,0.0,0.0,1.21846967915e-07,0.0,0.0,0.0,1.21846967915e-07,-2.46146915,0.9022118,8.75733845,9e-08,0.0,0.0,0.0,9e-08,0.0,0.0,0.0,9e-08
1539875283008760648,723,1539875283007921224,base_link,0.190845017773,-0.0816254834128,-0.918286707377,-0.337142377496,1.0,0.0,0.0,0.0,1.0,0.0,0.0,0.0,1.0,-0.273606866598,0.0566197559237,-0.259189665318,1.21846967915e-07,0.0,0.0,0.0,1.21846967915e-07,0.0,0.0,0.0,1.21846967915e-07,-3.12832135,1.63771055,9.44380395,9e-08,0.0,0.0,0.0,9e-08,0.0,0.0,0.0,9e-08
1539875283381791976,724,1539875283381416584,base_link,0.181202805068,-0.089737222388,-0.902237530322,-0.380893965865,1.0,0.0,0.0,0.0,1.0,0.0,0.0,0.0,1.0,-0.301001995802,-0.0805594697595,-0.0545589514077,1.21846967915e-07,0.0,0.0,0.0,1.21846967915e-07,0.0,0.0,0.0,1.21846967915e-07,-2.8047019,0.6472389,8.3160392,9e-08,0.0,0.0,0.0,9e-08,0.0,0.0,0.0,9e-08
1539875283711234664,725,1539875283710435912,base_link,0.185888912169,-0.0722342804323,-0.90295199521,-0.380664176683,1.0,0.0,0.0,0.0,1.0,0.0,0.0,0.0,1.0,-0.0144288390875,0.00981434527785,-6.93947076797e-05,1.21846967915e-07,0.0,0.0,0.0,1.21846967915e-07,0.0,0.0,0.0,1.21846967915e-07,-3.20677455,-0.7649187,8.1199062,9e-08,0.0,0.0,0.0,9e-08,0.0,0.0,0.0,9e-08
1539875284241260776,726,1539875284240368840,base_link,0.167497953518,-0.0750268250847,-0.92017105117,-0.345833265712,1.0,0.0,0.0,0.0,1.0,0.0,0.0,0.0,1.0,-0.364642351866,-0.0680645629764,-0.0205352082849,1.21846967915e-07,0.0,0.0,0.0,1.21846967915e-07,0.0,0.0,0.0,1.21846967915e-07,-3.34406765,0.89240515,9.87529655,9e-08,0.0,0.0,0.0,9e-08,0.0,0.0,0.0,9e-08
1539875284585805480,727,1539875284585432392,base_link,0.165438427253,-0.0257771057727,-0.915676949511,-0.365378422654,1.0,0.0,0.0,0.0,1.0,0.0,0.0,0.0,1.0,-0.133520200849,-0.150923997164,-0.145695701241,1.21846967915e-07,0.0,0.0,0.0,1.21846967915e-07,0.0,0.0,0.0,1.21846967915e-07,-2.9027684,0.1569064,12.18966595,9e-08,0.0,0.0,0.0,9e-08,0.0,0.0,0.0,9e-08
1539875284941263784,728,1539875284939279752,base_link,0.136343104625,-0.0268744576865,-0.919003897983,-0.36894465281,1.0,0.0,0.0,0.0,1.0,0.0,0.0,0.0,1.0,0.152680307627,-0.165021494031,0.090920984745,1.21846967915e-07,0.0,0.0,0.0,1.21846967915e-07,0.0,0.0,0.0,1.21846967915e-07,-2.83412185,0.2353596,16.4555587,9e-08,0.0,0.0,0.0,9e-08,0.0,0.0,0.0,9e-08
1539875285329182632,729,1539875285327662664,base_link,0.114492554276,-0.0228382858119,-0.919413396908,-0.375564739164,1.0,0.0,0.0,0.0,1.0,0.0,0.0,0.0,1.0,-0.0977843105793,-0.152344435453,-0.113388165832,1.21846967915e-07,0.0,0.0,0.0,1.21846967915e-07,0.0,0.0,0.0,1.21846967915e-07,-2.6674088,0.6080123,10.24794925,9e-08,0.0,0.0,0.0,9e-08,0.0,0.0,0.0,9e-08
1539875285751463464,730,1539875285748752936,base_link,0.0852480914286,-0.045243599627,-0.920489725088,-0.378661386476,1.0,0.0,0.0,0.0,1.0,0.0,0.0,0.0,1.0,0.416303515434,-0.00425332318991,0.222177997231,1.21846967915e-07,0.0,0.0,0.0,1.21846967915e-07,0.0,0.0,0.0,1.21846967915e-07,-2.38301595,-0.5491724,9.1005712,9e-08,0.0,0.0,0.0,9e-08,0.0,0.0,0.0,9e-08
1539875286086549544,731,1539875286086253448,base_link,0.0971447225313,0.0264285081939,-0.93522291978,-0.339444438984,1.0,0.0,0.0,0.0,1.0,0.0,0.0,0.0,1.0,-0.452029168606,-0.0749095976353,0.0316930413246,1.21846967915e-07,0.0,0.0,0.0,1.21846967915e-07,0.0,0.0,0.0,1.21846967915e-07,-2.1378497,1.01008495,15.89657965,9e-08,0.0,0.0,0.0,9e-08,0.0,0.0,0.0,9e-08
1539875286474856008,732,1539875286474641736,base_link,0.074758692657,0.0178604347557,-0.92900429761,-0.361998836691,1.0,0.0,0.0,0.0,1.0,0.0,0.0,0.0,1.0,0.394078731537,-0.165539324284,-0.161361917853,1.21846967915e-07,0.0,0.0,0.0,1.21846967915e-07,0.0,0.0,0.0,1.21846967915e-07,-1.4317709,0.14709975,11.38552065,9e-08,0.0,0.0,0.0,9e-08,0.0,0.0,0.0,9e-08
1539875286805721864,733,1539875286805179400,base_link,0.0274010983817,-0.0256754907326,-0.927899867279,-0.370933666963,1.0,0.0,0.0,0.0,1.0,0.0,0.0,0.0,1.0,0.431674480438,-0.176129296422,0.0143250674009,1.21846967915e-07,0.0,0.0,0.0,1.21846967915e-07,0.0,0.0,0.0,1.21846967915e-07,-0.93163175,-0.2745862,9.0417313,9e-08,0.0,0.0,0.0,9e-08,0.0,0.0,0.0,9e-08
1539875287085269160,734,1539875287084783592,base_link,-0.0118610158189,-0.0498379820002,-0.929187650899,-0.366040709855,1.0,0.0,0.0,0.0,1.0,0.0,0.0,0.0,1.0,0.0794139653444,-0.189575195312,0.012325739488,1.21846967915e-07,0.0,0.0,0.0,1.21846967915e-07,0.0,0.0,0.0,1.21846967915e-07,-0.6472389,0.5099458,13.36646395,9e-08,0.0,0.0,0.0,9e-08,0.0,0.0,0.0,9e-08
1539875287473356360,735,1539875287472161256,base_link,-0.0505915857896,-0.0392511783046,-0.929369202124,-0.363555666428,1.0,0.0,0.0,0.0,1.0,0.0,0.0,0.0,1.0,-0.528704881668,-0.189373120666,-0.0278560556471,1.21846967915e-07,0.0,0.0,0.0,1.21846967915e-07,0.0,0.0,0.0,1.21846967915e-07,0.1765197,0.97085835,18.240369,9e-08,0.0,0.0,0.0,9e-08,0.0,0.0,0.0,9e-08
1539875287882804968,736,1539875287882362984,base_link,-0.0637117095,-0.0042462668897,-0.923018555411,-0.379419996385,1.0,0.0,0.0,0.0,1.0,0.0,0.0,0.0,1.0,0.301827192307,-0.0464643649757,-0.0163382608443,1.21846967915e-07,0.0,0.0,0.0,1.21846967915e-07,0.0,0.0,0.0,1.21846967915e-07,0.4314926,-0.0588399,9.26728425,9e-08,0.0,0.0,0.0,9e-08,0.0,0.0,0.0,9e-08
1539875288200746696,737,1539875288199018056,base_link,-0.0836451037962,-0.0435857164386,-0.92459119313,-0.369100132105,1.0,0.0,0.0,0.0,1.0,0.0,0.0,0.0,1.0,0.267136693001,-0.0142887542024,0.0667714253068,1.21846967915e-07,0.0,0.0,0.0,1.21846967915e-07,0.0,0.0,0.0,1.21846967915e-07,-0.18632635,0.1176798,11.5522337,9e-08,0.0,0.0,0.0,9e-08,0.0,0.0,0.0,9e-08
1539875288503547336,738,1539875288503082952,base_link,-0.0931497316486,-0.0581713197609,-0.931907491068,-0.34566986149,1.0,0.0,0.0,0.0,1.0,0.0,0.0,0.0,1.0,0.0601057112217,0.0133517486975,0.219620138407,1.21846967915e-07,0.0,0.0,0.0,1.21846967915e-07,0.0,0.0,0.0,1.21846967915e-07,-0.0980665,0.2745862,9.89490985,9e-08,0.0,0.0,0.0,9e-08,0.0,0.0,0.0,9e-08
1539875288966348680,739,1539875288964195272,base_link,-0.0483981487457,-0.0182938106208,-0.938133471344,-0.342386544179,1.0,0.0,0.0,0.0,1.0,0.0,0.0,0.0,1.0,-0.0411038585007,0.206268429756,-0.147344529629,1.21846967915e-07,0.0,0.0,0.0,1.21846967915e-07,0.0,0.0,0.0,1.21846967915e-07,-0.6668522,0.4903325,7.36479415,9e-08,0.0,0.0,0.0,9e-08,0.0,0.0,0.0,9e-08
1539875289426461672,740,1539875289426120552,base_link,-0.0163548943993,-0.0122186311666,-0.934086232923,-0.356463366905,1.0,0.0,0.0,0.0,1.0,0.0,0.0,0.0,1.0,0.0260017421097,0.12228679657,0.0325395874679,1.21846967915e-07,0.0,0.0,0.0,1.21846967915e-07,0.0,0.0,0.0,1.21846967915e-07,-0.588399,0.42168595,7.3942141,9e-08,0.0,0.0,0.0,9e-08,0.0,0.0,0.0,9e-08
1539875289930101192,741,1539875289928684296,base_link,0.0227309769898,0.0182429080816,-0.937411184152,-0.347002551599,1.0,0.0,0.0,0.0,1.0,0.0,0.0,0.0,1.0,-0.0254343096167,0.118994787335,0.114515654743,1.21846967915e-07,0.0,0.0,0.0,1.21846967915e-07,0.0,0.0,0.0,1.21846967915e-07,-0.5491724,0.2157463,10.60098865,9e-08,0.0,0.0,0.0,9e-08,0.0,0.0,0.0,9e-08
1539875290203849576,742,1539875290203405352,base_link,0.03865245752,0.000377168927507,-0.935888080198,-0.350170453658,1.0,0.0,0.0,0.0,1.0,0.0,0.0,0.0,1.0,0.202566877007,0.131902173162,-0.105697445571,1.21846967915e-07,0.0,0.0,0.0,1.21846967915e-07,0.0,0.0,0.0,1.21846967915e-07,-0.67665885,0.7453054,8.8848249,9e-08,0.0,0.0,0.0,9e-08,0.0,0.0,0.0,9e-08
1539875290668354504,743,1539875290667632712,base_link,0.0446227786107,-0.0615177718682,-0.920054795131,-0.384348208437,1.0,0.0,0.0,0.0,1.0,0.0,0.0,0.0,1.0,0.295941829681,0.0963220521808,-0.116829708219,1.21846967915e-07,0.0,0.0,0.0,1.21846967915e-07,0.0,0.0,0.0,1.21846967915e-07,-0.89240515,0.0784532,5.9428299,9e-08,0.0,0.0,0.0,9e-08,0.0,0.0,0.0,9e-08
1539875291082906792,744,1539875291082384936,base_link,0.022243021456,-0.124155362619,-0.911590703403,-0.3912711124,1.0,0.0,0.0,0.0,1.0,0.0,0.0,0.0,1.0,0.159047886729,0.00860047806054,0.0506494566798,1.21846967915e-07,0.0,0.0,0.0,1.21846967915e-07,0.0,0.0,0.0,1.21846967915e-07,-0.91201845,0.26477955,10.6696352,9e-08,0.0,0.0,0.0,9e-08,0.0,0.0,0.0,9e-08
1539875291413878408,745,1539875291413544136,base_link,0.0306202331925,-0.113248297036,-0.913175715143,-0.390316970949,1.0,0.0,0.0,0.0,1.0,0.0,0.0,0.0,1.0,0.0353693850338,-0.000890088267624,-0.0761993601918,1.21846967915e-07,0.0,0.0,0.0,1.21846967915e-07,0.0,0.0,0.0,1.21846967915e-07,-1.1375714,0.53936575,7.56092715,9e-08,0.0,0.0,0.0,9e-08,0.0,0.0,0.0,9e-08
1539875291874084712,746,1539875291873809736,base_link,-0.00252448085384,-0.15172051835,-0.899479652769,-0.409769283332,1.0,0.0,0.0,0.0,1.0,0.0,0.0,0.0,1.0,0.388967603445,-0.0278791654855,-0.051279976964,1.21846967915e-07,0.0,0.0,0.0,1.21846967915e-07,0.0,0.0,0.0,1.21846967915e-07,-0.6080123,0.87279185,12.56231865,9e-08,0.0,0.0,0.0,9e-08,0.0,0.0,0.0,9e-08
1539875292314367112,747,1539875292314074440,base_link,-0.0517891202444,-0.253379983454,-0.855998514201,-0.447641614122,1.0,0.0,0.0,0.0,1.0,0.0,0.0,0.0,1.0,0.533356249332,-0.0847848653793,-0.224287539721,1.21846967915e-07,0.0,0.0,0.0,1.21846967915e-07,0.0,0.0,0.0,1.21846967915e-07,-0.63743225,0.2157463,6.28606265,9e-08,0.0,0.0,0.0,9e-08,0.0,0.0,0.0,9e-08
1539875292669809128,748,1539875292669596456,base_link,-0.10155003718,-0.310372454071,-0.808521963802,-0.48953933831,1.0,0.0,0.0,0.0,1.0,0.0,0.0,0.0,1.0,0.270544230938,-0.238289520144,-0.219436630607,1.21846967915e-07,0.0,0.0,0.0,1.21846967915e-07,0.0,0.0,0.0,1.21846967915e-07,-0.2745862,0.69627215,14.75900825,9e-08,0.0,0.0,0.0,9e-08,0.0,0.0,0.0,9e-08
1539875292964639368,749,1539875292964314248,base_link,-0.134504112186,-0.326763932485,-0.773478462588,-0.526179669072,1.0,0.0,0.0,0.0,1.0,0.0,0.0,0.0,1.0,0.239301607013,-0.314036250114,-0.235827967525,1.21846967915e-07,0.0,0.0,0.0,1.21846967915e-07,0.0,0.0,0.0,1.21846967915e-07,-0.75511205,0.22555295,12.32695905,9e-08,0.0,0.0,0.0,9e-08,0.0,0.0,0.0,9e-08
1539875293317642440,750,1539875293317125512,base_link,-0.17920544381,-0.31108520797,-0.738248837902,-0.571051710116,1.0,0.0,0.0,0.0,1.0,0.0,0.0,0.0,1.0,-0.104044854641,-0.361858338118,-0.217116504908,1.21846967915e-07,0.0,0.0,0.0,1.21846967915e-07,0.0,0.0,0.0,1.21846967915e-07,-0.36284605,0.9414384,15.87696635,9e-08,0.0,0.0,0.0,9e-08,0.0,0.0,0.0,9e-08
1539875293538814280,751,1539875293537961288,base_link,-0.192923429217,-0.298866352216,-0.704923429544,-0.613630517862,1.0,0.0,0.0,0.0,1.0,0.0,0.0,0.0,1.0,0.171860024333,-0.27662178874,-0.459009826183,1.21846967915e-07,0.0,0.0,0.0,1.21846967915e-07,0.0,0.0,0.0,1.21846967915e-07,-0.5687857,1.0787315,13.07226445,9e-08,0.0,0.0,0.0,9e-08,0.0,0.0,0.0,9e-08
1539875293903473032,752,1539875293903061256,base_link,-0.23759701135,-0.297621389792,-0.636990614617,-0.670232888947,1.0,0.0,0.0,0.0,1.0,0.0,0.0,0.0,1.0,0.209822282195,-0.356530785561,-0.316190868616,1.21846967915e-07,0.0,0.0,0.0,1.21846967915e-07,0.0,0.0,0.0,1.21846967915e-07,-0.48052585,-0.2549729,11.9444997,9e-08,0.0,0.0,0.0,9e-08,0.0,0.0,0.0,9e-08
1539875294318533864,753,1539875294317159400,base_link,-0.290073689789,-0.245319710951,-0.597584489966,-0.706093670318,1.0,0.0,0.0,0.0,1.0,0.0,0.0,0.0,1.0,-0.423247396946,-0.409939885139,-0.000521006528288,1.21846967915e-07,0.0,0.0,0.0,1.21846967915e-07,0.0,0.0,0.0,1.21846967915e-07,0.3334261,1.3140911,15.81812645,9e-08,0.0,0.0,0.0,9e-08,0.0,0.0,0.0,9e-08
1539875294782834088,754,1539875294782284936,base_link,-0.241115221183,-0.188619973337,-0.551179130307,-0.77620069704,1.0,0.0,0.0,0.0,1.0,0.0,0.0,0.0,1.0,-0.0555233284831,-0.125563487411,-0.518872737885,1.21846967915e-07,0.0,0.0,0.0,1.21846967915e-07,0.0,0.0,0.0,1.21846967915e-07,0.20593965,1.4709975,16.2005858,9e-08,0.0,0.0,0.0,9e-08,0.0,0.0,0.0,9e-08
1539875295148059336,755,1539875295147634984,base_link,-0.263491044722,-0.184355577011,-0.474786411939,-0.819245600302,1.0,0.0,0.0,0.0,1.0,0.0,0.0,0.0,1.0,0.191399991512,-0.267379313707,-0.222494259477,1.21846967915e-07,0.0,0.0,0.0,1.21846967915e-07,0.0,0.0,0.0,1.21846967915e-07,0.02941995,0.42168595,14.97475455,9e-08,0.0,0.0,0.0,9e-08,0.0,0.0,0.0,9e-08
1539875295479815016,756,1539875295478054664,base_link,-0.306596887214,-0.175303538252,-0.427900712858,-0.831966344369,1.0,0.0,0.0,0.0,1.0,0.0,0.0,0.0,1.0,0.19102473557,-0.231884032488,-0.19660449028,1.21846967915e-07,0.0,0.0,0.0,1.21846967915e-07,0.0,0.0,0.0,1.21846967915e-07,0.02941995,0.44129925,12.0425662,9e-08,0.0,0.0,0.0,9e-08,0.0,0.0,0.0,9e-08
1539875295967901224,757,1539875295967512392,base_link,-0.328484573043,-0.161567223755,-0.341620320573,-0.865615084234,1.0,0.0,0.0,0.0,1.0,0.0,0.0,0.0,1.0,0.154976695776,-0.21923469007,-0.376586228609,1.21846967915e-07,0.0,0.0,0.0,1.21846967915e-07,0.0,0.0,0.0,1.21846967915e-07,0.00980665,0.6668522,9.48303055,9e-08,0.0,0.0,0.0,9e-08,0.0,0.0,0.0,9e-08
1539875296323029128,758,1539875296321123432,base_link,-0.341970899649,-0.150564852684,-0.275232180045,-0.885795335276,1.0,0.0,0.0,0.0,1.0,0.0,0.0,0.0,1.0,0.0794269815087,-0.235605448484,-0.278545051813,1.21846967915e-07,0.0,0.0,0.0,1.21846967915e-07,0.0,0.0,0.0,1.21846967915e-07,-0.0392266,0.32361945,10.32640245,9e-08,0.0,0.0,0.0,9e-08,0.0,0.0,0.0,9e-08
1539875296737954504,759,1539875296737562952,base_link,-0.349392170671,-0.113290816782,-0.211973900465,-0.905625401272,1.0,0.0,0.0,0.0,1.0,0.0,0.0,0.0,1.0,-0.220103815198,-0.217149227858,-0.315398424864,1.21846967915e-07,0.0,0.0,0.0,1.21846967915e-07,0.0,0.0,0.0,1.21846967915e-07,0.71588545,1.73577705,13.34685065,9e-08,0.0,0.0,0.0,9e-08,0.0,0.0,0.0,9e-08
1539875297176524872,760,1539875297176276264,base_link,-0.400655272179,-0.0893679203257,-0.112271778178,-0.90492197206,1.0,0.0,0.0,0.0,1.0,0.0,0.0,0.0,1.0,0.159326657653,-0.380488663912,-0.255244255066,1.21846967915e-07,0.0,0.0,0.0,1.21846967915e-07,0.0,0.0,0.0,1.21846967915e-07,0.95124505,1.1179581,16.56343185,9e-08,0.0,0.0,0.0,9e-08,0.0,0.0,0.0,9e-08
1539875297513348744,761,1539875297512889608,base_link,-0.390374721378,-0.049031715297,-0.0489155734934,-0.918047239783,1.0,0.0,0.0,0.0,1.0,0.0,0.0,0.0,1.0,-0.140772685409,-0.331422895193,-0.313409894705,1.21846967915e-07,0.0,0.0,0.0,1.21846967915e-07,0.0,0.0,0.0,1.21846967915e-07,1.2552512,1.372931,14.68055505,9e-08,0.0,0.0,0.0,9e-08,0.0,0.0,0.0,9e-08
1539875297937396584,762,1539875297937064776,base_link,-0.375135206028,0.00235877799393,0.042469661242,-0.925993704751,1.0,0.0,0.0,0.0,1.0,0.0,0.0,0.0,1.0,-0.324730813503,-0.367744892836,-0.270553290844,1.21846967915e-07,0.0,0.0,0.0,1.21846967915e-07,0.0,0.0,0.0,1.21846967915e-07,1.12776475,1.1964113,17.58332345,9e-08,0.0,0.0,0.0,9e-08,0.0,0.0,0.0,9e-08
1539875298447616200,763,1539875298447406952,base_link,-0.242710089316,0.0632455058057,0.109461588576,-0.96182637683,1.0,0.0,0.0,0.0,1.0,0.0,0.0,0.0,1.0,-1.04991090298,-0.221229895949,-0.0732160285115,1.21846967915e-07,0.0,0.0,0.0,1.21846967915e-07,0.0,0.0,0.0,1.21846967915e-07,0.34323275,1.34351105,17.1027976,9e-08,0.0,0.0,0.0,9e-08,0.0,0.0,0.0,9e-08
1539875298893386344,764,1539875298892893864,base_link,-0.0856434458483,0.0494181468374,0.171132637332,-0.980273771651,1.0,0.0,0.0,0.0,1.0,0.0,0.0,0.0,1.0,-0.31750357151,-0.0740750730038,-0.0896785855293,1.21846967915e-07,0.0,0.0,0.0,1.21846967915e-07,0.0,0.0,0.0,1.21846967915e-07,-0.75511205,-0.61781895,10.3165958,9e-08,0.0,0.0,0.0,9e-08,0.0,0.0,0.0,9e-08
1539875299203353576,765,1539875299202802888,base_link,-0.0296096441614,0.057674065133,0.163564307485,-0.984400166853,1.0,0.0,0.0,0.0,1.0,0.0,0.0,0.0,1.0,-0.224742308259,-0.0264814458787,0.123822018504,1.21846967915e-07,0.0,0.0,0.0,1.21846967915e-07,0.0,0.0,0.0,1.21846967915e-07,-0.6276256,0.4707192,14.28828905,9e-08,0.0,0.0,0.0,9e-08,0.0,0.0,0.0,9e-08
1539875299629578120,766,1539875299629117864,base_link,0.121456473898,0.0135206002406,0.163885150741,-0.978880572738,1.0,0.0,0.0,0.0,1.0,0.0,0.0,0.0,1.0,-0.300684422255,0.0722798630595,-0.133368551731,1.21846967915e-07,0.0,0.0,0.0,1.21846967915e-07,0.0,0.0,0.0,1.21846967915e-07,-0.77472535,-0.0588399,8.77695175,9e-08,0.0,0.0,0.0,9e-08,0.0,0.0,0.0,9e-08
1539875300152728648,767,1539875300152478728,base_link,0.196763553175,-0.0267263303906,0.143767978467,-0.969484695997,1.0,0.0,0.0,0.0,1.0,0.0,0.0,0.0,1.0,-0.145696029067,0.107740193605,0.234001338482,1.21846967915e-07,0.0,0.0,0.0,1.21846967915e-07,0.0,0.0,0.0,1.21846967915e-07,-0.73549875,-0.30400615,8.79656505,9e-08,0.0,0.0,0.0,9e-08,0.0,0.0,0.0,9e-08
1539875300616810120,768,1539875300616510216,base_link,0.201506631675,-0.0619754896092,0.0895575204027,-0.973413358557,1.0,0.0,0.0,0.0,1.0,0.0,0.0,0.0,1.0,0.0761719197035,0.00261141033843,0.22311013937,1.21846967915e-07,0.0,0.0,0.0,1.21846967915e-07,0.0,0.0,0.0,1.21846967915e-07,-0.5687857,0.04903325,-1.04931155,9e-08,0.0,0.0,0.0,9e-08,0.0,0.0,0.0,9e-08
1539875300992615336,769,1539875300992354856,base_link,0.205071998787,-0.0582294612649,0.0569142422765,-0.975354076313,1.0,0.0,0.0,0.0,1.0,0.0,0.0,0.0,1.0,-0.122110754251,-0.156492888927,0.25465592742,1.21846967915e-07,0.0,0.0,0.0,1.21846967915e-07,0.0,0.0,0.0,1.21846967915e-07,-0.1569064,-0.46091255,16.8282114,9e-08,0.0,0.0,0.0,9e-08,0.0,0.0,0.0,9e-08
1539875301364649320,770,1539875301364392744,base_link,0.255999444827,-0.0500276077683,0.0068245744202,-0.965357419764,1.0,0.0,0.0,0.0,1.0,0.0,0.0,0.0,1.0,-0.518625617027,-0.165487185121,0.160079583526,1.21846967915e-07,0.0,0.0,0.0,1.21846967915e-07,0.0,0.0,0.0,1.21846967915e-07,-0.2157463,0.4511059,15.4356671,9e-08,0.0,0.0,0.0,9e-08,0.0,0.0,0.0,9e-08
1539875301684670504,771,1539875301684272552,base_link,0.2325980226,-0.0274043197409,-0.0215191649688,-0.97194860393,1.0,0.0,0.0,0.0,1.0,0.0,0.0,0.0,1.0,0.616077899933,-0.18249951303,0.212267830968,1.21846967915e-07,0.0,0.0,0.0,1.21846967915e-07,0.0,0.0,0.0,1.21846967915e-07,0.3726527,-0.4314926,16.3182656,9e-08,0.0,0.0,0.0,9e-08,0.0,0.0,0.0,9e-08
1539875302040670664,772,1539875302040277832,base_link,0.141993523146,-0.0123538339243,-0.061264869646,-0.987892624691,1.0,0.0,0.0,0.0,1.0,0.0,0.0,0.0,1.0,0.476297318935,-0.140414401889,0.135551780462,1.21846967915e-07,0.0,0.0,0.0,1.21846967915e-07,0.0,0.0,0.0,1.21846967915e-07,-0.06864655,0.38245935,16.6320784,9e-08,0.0,0.0,0.0,9e-08,0.0,0.0,0.0,9e-08
1539875302577157576,773,1539875302576899560,base_link,-0.0494682061652,-0.020545744213,-0.114646924161,-0.991961114033,1.0,0.0,0.0,0.0,1.0,0.0,0.0,0.0,1.0,0.562865972519,0.0546910315752,0.115822508931,1.21846967915e-07,0.0,0.0,0.0,1.21846967915e-07,0.0,0.0,0.0,1.21846967915e-07,-0.4903325,0.6668522,10.44408225,9e-08,0.0,0.0,0.0,9e-08,0.0,0.0,0.0,9e-08
1539875302888209224,774,1539875302887928552,base_link,-0.117800192041,-0.0392519192909,-0.102292761297,-0.986974463993,1.0,0.0,0.0,0.0,1.0,0.0,0.0,0.0,1.0,0.247978687286,0.0518476590514,-0.210108444095,1.21846967915e-07,0.0,0.0,0.0,1.21846967915e-07,0.0,0.0,0.0,1.21846967915e-07,-0.79433865,1.1179581,8.60043205,9e-08,0.0,0.0,0.0,9e-08,0.0,0.0,0.0,9e-08
1539875303277719976,775,1539875303276524744,base_link,-0.225874260583,-0.0710395478433,-0.0470941997864,-0.97042070124,1.0,0.0,0.0,0.0,1.0,0.0,0.0,0.0,1.0,0.578708350658,0.068905107677,-0.188714712858,1.21846967915e-07,0.0,0.0,0.0,1.21846967915e-07,0.0,0.0,0.0,1.21846967915e-07,-1.24544455,0.14709975,8.58081875,9e-08,0.0,0.0,0.0,9e-08,0.0,0.0,0.0,9e-08
1539875303579676712,776,1539875303578589352,base_link,-0.28595740627,-0.0820899856818,-0.0185710783775,-0.954539004493,1.0,0.0,0.0,0.0,1.0,0.0,0.0,0.0,1.0,0.138074636459,-0.0705670267344,-0.178694248199,1.21846967915e-07,0.0,0.0,0.0,1.21846967915e-07,0.0,0.0,0.0,1.21846967915e-07,-1.08853815,0.4511059,3.57942725,9e-08,0.0,0.0,0.0,9e-08,0.0,0.0,0.0,9e-08
1539875303995778088,777,1539875303993500744,base_link,-0.310760254342,-0.0767717072449,0.030541746772,-0.946890369046,1.0,0.0,0.0,0.0,1.0,0.0,0.0,0.0,1.0,0.458331972361,-0.0951231867075,-0.227615982294,1.21846967915e-07,0.0,0.0,0.0,1.21846967915e-07,0.0,0.0,0.0,1.21846967915e-07,-0.9022118,0.4707192,8.1591328,9e-08,0.0,0.0,0.0,9e-08,0.0,0.0,0.0,9e-08
1539875304343570728,778,1539875304343160168,base_link,-0.361249395484,-0.0654621844373,0.0971198542032,-0.925084488353,1.0,0.0,0.0,0.0,1.0,0.0,0.0,0.0,1.0,0.223459109664,-0.258315831423,-0.318036705256,1.21846967915e-07,0.0,0.0,0.0,1.21846967915e-07,0.0,0.0,0.0,1.21846967915e-07,-0.34323275,0.3726527,11.1991943,9e-08,0.0,0.0,0.0,9e-08,0.0,0.0,0.0,9e-08
1539875304800766792,779,1539875304800449448,base_link,-0.408782443827,-0.0146952962142,0.162126350003,-0.897995550392,1.0,0.0,0.0,0.0,1.0,0.0,0.0,0.0,1.0,0.0836167111993,-0.336379170418,-0.145771443844,1.21846967915e-07,0.0,0.0,0.0,1.21846967915e-07,0.0,0.0,0.0,1.21846967915e-07,0.1765197,1.44157755,9.75761675,9e-08,0.0,0.0,0.0,9e-08,0.0,0.0,0.0,9e-08
1539875305206589128,780,1539875305205765192,base_link,-0.358500315346,0.0134293694146,0.259974881015,-0.896498877398,1.0,0.0,0.0,0.0,1.0,0.0,0.0,0.0,1.0,-0.00461650732905,-0.431361347437,-0.412591069937,1.21846967915e-07,0.0,0.0,0.0,1.21846967915e-07,0.0,0.0,0.0,1.21846967915e-07,0.91201845,0.6080123,14.8276548,9e-08,0.0,0.0,0.0,9e-08,0.0,0.0,0.0,9e-08
1539875305627117672,781,1539875305626820936,base_link,-0.340372410034,0.0857591199057,0.327870098793,-0.877093606269,1.0,0.0,0.0,0.0,1.0,0.0,0.0,0.0,1.0,-0.104728162289,-0.387306988239,-0.154634252191,1.21846967915e-07,0.0,0.0,0.0,1.21846967915e-07,0.0,0.0,0.0,1.21846967915e-07,0.5295591,0.588399,16.1613592,9e-08,0.0,0.0,0.0,9e-08,0.0,0.0,0.0,9e-08
1539875305996807848,782,1539875305995430504,base_link,-0.311639398035,0.134474800334,0.390086809732,-0.855937903437,1.0,0.0,0.0,0.0,1.0,0.0,0.0,0.0,1.0,-0.0934781208634,-0.357268959284,-0.289381831884,1.21846967915e-07,0.0,0.0,0.0,1.21846967915e-07,0.0,0.0,0.0,1.21846967915e-07,0.83356525,0.97085835,16.3378789,9e-08,0.0,0.0,0.0,9e-08,0.0,0.0,0.0,9e-08
1539875306453494856,783,1539875306453211816,base_link,-0.314704457591,0.197445962093,0.461256278895,-0.80574117532,1.0,0.0,0.0,0.0,1.0,0.0,0.0,0.0,1.0,0.299421101809,-0.349275022745,-0.196313217282,1.21846967915e-07,0.0,0.0,0.0,1.21846967915e-07,0.0,0.0,0.0,1.21846967915e-07,0.4314926,1.65732385,15.40624715,9e-08,0.0,0.0,0.0,9e-08,0.0,0.0,0.0,9e-08
1539875306866286504,784,1539875306865850344,base_link,-0.303928839256,0.237401764956,0.522018731211,-0.760765474328,1.0,0.0,0.0,0.0,1.0,0.0,0.0,0.0,1.0,-0.35616055131,-0.21671448648,-0.27435362339,1.21846967915e-07,0.0,0.0,0.0,1.21846967915e-07,0.0,0.0,0.0,1.21846967915e-07,0.0392266,1.46119085,10.7677017,9e-08,0.0,0.0,0.0,9e-08,0.0,0.0,0.0,9e-08
1539875307250016808,785,1539875307249725672,base_link,-0.293816659399,0.244243707372,0.592443783678,-0.709244066066,1.0,0.0,0.0,0.0,1.0,0.0,0.0,0.0,1.0,-0.167709082365,-0.172494679689,-0.437532424927,1.21846967915e-07,0.0,0.0,0.0,1.21846967915e-07,0.0,0.0,0.0,1.21846967915e-07,0.04903325,0.61781895,10.16949605,9e-08,0.0,0.0,0.0,9e-08,0.0,0.0,0.0,9e-08
1539875307624099528,786,1539875307623817896,base_link,-0.270987362354,0.279579242465,0.647756727796,-0.654837780081,1.0,0.0,0.0,0.0,1.0,0.0,0.0,0.0,1.0,-0.0287659689784,-0.389222204685,-0.229390144348,1.21846967915e-07,0.0,0.0,0.0,1.21846967915e-07,0.0,0.0,0.0,1.21846967915e-07,0.10787315,0.77472535,18.1619158,9e-08,0.0,0.0,0.0,9e-08,0.0,0.0,0.0,9e-08
1539875308059448520,787,1539875308059079208,base_link,0.220901524385,-0.298116535229,-0.704948808129,0.604463585226,1.0,0.0,0.0,0.0,1.0,0.0,0.0,0.0,1.0,-0.411296933889,-0.245180010796,-0.243085637689,1.21846967915e-07,0.0,0.0,0.0,1.21846967915e-07,0.0,0.0,0.0,1.21846967915e-07,-0.59820565,1.30428445,13.18994425,9e-08,0.0,0.0,0.0,9e-08,0.0,0.0,0.0,9e-08
1539875308361209032,788,1539875308360894376,base_link,0.154402301671,-0.224518728672,-0.770712369936,0.575980652924,1.0,0.0,0.0,0.0,1.0,0.0,0.0,0.0,1.0,-0.357586741447,-0.0494620837271,-0.443688303232,1.21846967915e-07,0.0,0.0,0.0,1.21846967915e-07,0.0,0.0,0.0,1.21846967915e-07,-0.42168595,1.372931,11.52281375,9e-08,0.0,0.0,0.0,9e-08,0.0,0.0,0.0,9e-08
1539875308836841640,789,1539875308836331880,base_link,0.102428438579,-0.171451422697,-0.816554976271,0.541618680765,1.0,0.0,0.0,0.0,1.0,0.0,0.0,0.0,1.0,-0.144339114428,-0.0474818795919,-0.0331980548799,1.21846967915e-07,0.0,0.0,0.0,1.21846967915e-07,0.0,0.0,0.0,1.21846967915e-07,-1.2356379,0.2157463,9.1594111,9e-08,0.0,0.0,0.0,9e-08,0.0,0.0,0.0,9e-08
1539875309282726792,790,1539875309282321896,base_link,0.0559213069284,-0.0880723140837,-0.83156279763,0.545545038032,1.0,0.0,0.0,0.0,1.0,0.0,0.0,0.0,1.0,-0.645517289639,0.133892506361,-0.151213347912,1.21846967915e-07,0.0,0.0,0.0,1.21846967915e-07,0.0,0.0,0.0,1.21846967915e-07,-1.372931,0.8433719,10.1793027,9e-08,0.0,0.0,0.0,9e-08,0.0,0.0,0.0,9e-08
1539875309707679944,791,1539875309707139112,base_link,0.038683139315,-0.00633962316928,-0.85193951421,0.522170937565,1.0,0.0,0.0,0.0,1.0,0.0,0.0,0.0,1.0,0.378877192736,0.101879835129,-0.0474007129669,1.21846967915e-07,0.0,0.0,0.0,1.21846967915e-07,0.0,0.0,0.0,1.21846967915e-07,-1.1964113,0.44129925,7.3353742,9e-08,0.0,0.0,0.0,9e-08,0.0,0.0,0.0,9e-08
1539875310024376968,792,1539875310023952840,base_link,0.0497926382139,0.0191642514718,-0.858160526941,0.510601541953,1.0,0.0,0.0,0.0,1.0,0.0,0.0,0.0,1.0,-0.479763329029,0.191272810102,-0.0627641379833,1.21846967915e-07,0.0,0.0,0.0,1.21846967915e-07,0.0,0.0,0.0,1.21846967915e-07,-1.176798,0.69627215,3.14793465,9e-08,0.0,0.0,0.0,9e-08,0.0,0.0,0.0,9e-08
1539875310358220168,793,1539875310357930184,base_link,0.0350707850417,0.0974667071609,-0.865814165296,0.489526416248,1.0,0.0,0.0,0.0,1.0,0.0,0.0,0.0,1.0,-0.543808817863,0.106031596661,-0.187654271722,1.21846967915e-07,0.0,0.0,0.0,1.21846967915e-07,0.0,0.0,0.0,1.21846967915e-07,-1.59848395,0.1569064,6.05070305,9e-08,0.0,0.0,0.0,9e-08,0.0,0.0,0.0,9e-08
1539875310926915752,794,1539875310926525416,base_link,0.0515655032256,0.112847019909,-0.854400986848,0.504584485144,1.0,0.0,0.0,0.0,1.0,0.0,0.0,0.0,1.0,-0.0961287766695,0.00580794084817,0.220896527171,1.21846967915e-07,0.0,0.0,0.0,1.21846967915e-07,0.0,0.0,0.0,1.21846967915e-07,-1.67693715,-0.02941995,7.99241975,9e-08,0.0,0.0,0.0,9e-08,0.0,0.0,0.0,9e-08
1539875311298748232,795,1539875311297986472,base_link,0.0370388233881,0.132941220184,-0.836479132016,0.53033708077,1.0,0.0,0.0,0.0,1.0,0.0,0.0,0.0,1.0,-0.277093917131,-0.0396999828517,0.0643381625414,1.21846967915e-07,0.0,0.0,0.0,1.21846967915e-07,0.0,0.0,0.0,1.21846967915e-07,-1.24544455,0.55897905,8.65927195,9e-08,0.0,0.0,0.0,9e-08,0.0,0.0,0.0,9e-08
1539875311789872872,796,1539875311788317864,base_link,0.0307839135269,0.10693583007,-0.822913502613,0.557162854229,1.0,0.0,0.0,0.0,1.0,0.0,0.0,0.0,1.0,0.0557065196335,-0.123086467385,0.284244388342,1.21846967915e-07,0.0,0.0,0.0,1.21846967915e-07,0.0,0.0,0.0,1.21846967915e-07,-0.8629852,-0.04903325,12.56231865,9e-08,0.0,0.0,0.0,9e-08,0.0,0.0,0.0,9e-08
1539875312233083400,797,1539875312232422344,base_link,0.0017551981532,0.11737801751,-0.791526862197,0.599753738384,1.0,0.0,0.0,0.0,1.0,0.0,0.0,0.0,1.0,-0.0805947631598,-0.0244378186762,0.0145628098398,1.21846967915e-07,0.0,0.0,0.0,1.21846967915e-07,0.0,0.0,0.0,1.21846967915e-07,-0.85317855,0.65704555,8.89463155,9e-08,0.0,0.0,0.0,9e-08,0.0,0.0,0.0,9e-08
1539875312558370184,798,1539875312557996296,base_link,-0.0170913638377,0.119652315516,-0.794366777192,0.595292056026,1.0,0.0,0.0,0.0,1.0,0.0,0.0,0.0,1.0,-0.354804575443,-0.0834131762385,0.067789517343,1.21846967915e-07,0.0,0.0,0.0,1.21846967915e-07,0.0,0.0,0.0,1.21846967915e-07,-1.38273765,-0.4903325,11.4345539,9e-08,0.0,0.0,0.0,9e-08,0.0,0.0,0.0,9e-08
1539875312778973256,799,1539875312778615848,base_link,-0.0359090647108,0.122367978566,-0.781063433034,0.611290872229,1.0,0.0,0.0,0.0,1.0,0.0,0.0,0.0,1.0,0.213411524892,-0.140629693866,0.135533079505,1.21846967915e-07,0.0,0.0,0.0,1.21846967915e-07,0.0,0.0,0.0,1.21846967915e-07,-0.89240515,1.34868734844e-15,11.01286795,9e-08,0.0,0.0,0.0,9e-08,0.0,0.0,0.0,9e-08
1539875313142608264,800,1539875313142288200,base_link,-0.015585194214,0.0771892551893,-0.769635223578,0.633609140743,1.0,0.0,0.0,0.0,1.0,0.0,0.0,0.0,1.0,0.134370937943,-0.0385292507708,0.0377004556358,1.21846967915e-07,0.0,0.0,0.0,1.21846967915e-07,0.0,0.0,0.0,1.21846967915e-07,-0.8629852,1.1571847,7.6099604,9e-08,0.0,0.0,0.0,9e-08,0.0,0.0,0.0,9e-08
1539875313548488104,801,1539875313547818824,base_link,-0.00817894437099,0.0519985032574,-0.767264158617,0.639167404856,1.0,0.0,0.0,0.0,1.0,0.0,0.0,0.0,1.0,0.242948710918,-0.0403533354402,0.142501547933,1.21846967915e-07,0.0,0.0,0.0,1.21846967915e-07,0.0,0.0,0.0,1.21846967915e-07,-0.6276256,0.16671305,14.7884282,9e-08,0.0,0.0,0.0,9e-08,0.0,0.0,0.0,9e-08
1539875313909651784,802,1539875313909164680,base_link,0.0279390096162,-0.000448757392962,-0.753235166039,0.65715751156,1.0,0.0,0.0,0.0,1.0,0.0,0.0,0.0,1.0,0.360013216734,0.0535669624805,0.148838073015,1.21846967915e-07,0.0,0.0,0.0,1.21846967915e-07,0.0,0.0,0.0,1.21846967915e-07,-0.99047165,-0.51975245,11.3561007,9e-08,0.0,0.0,0.0,9e-08,0.0,0.0,0.0,9e-08
1539875314342691112,803,1539875314342329832,base_link,0.0257644824503,0.000394134596347,-0.732782605724,0.679974770745,1.0,0.0,0.0,0.0,1.0,0.0,0.0,0.0,1.0,-0.147566989064,0.123262666166,-0.022438313812,1.21846967915e-07,0.0,0.0,0.0,1.21846967915e-07,0.0,0.0,0.0,1.21846967915e-07,-0.83356525,1.06892485,7.83551335,9e-08,0.0,0.0,0.0,9e-08,0.0,0.0,0.0,9e-08
1539875314748648680,804,1539875314748249672,base_link,0.0856703400058,-0.0323926587767,-0.749249818193,0.655923790115,1.0,0.0,0.0,0.0,1.0,0.0,0.0,0.0,1.0,0.604744493961,0.122689038515,-0.123577028513,1.21846967915e-07,0.0,0.0,0.0,1.21846967915e-07,0.0,0.0,0.0,1.21846967915e-07,-0.8237586,0.3334261,8.69849855,9e-08,0.0,0.0,0.0,9e-08,0.0,0.0,0.0,9e-08
1539875315093323272,805,1539875315092995784,base_link,0.158080866822,-0.0777957238582,-0.760029586107,0.625550392164,1.0,0.0,0.0,0.0,1.0,0.0,0.0,0.0,1.0,0.470527768135,0.074845649302,-0.290420770645,1.21846967915e-07,0.0,0.0,0.0,1.21846967915e-07,0.0,0.0,0.0,1.21846967915e-07,-1.08853815,0.6668522,4.95235825,9e-08,0.0,0.0,0.0,9e-08,0.0,0.0,0.0,9e-08
1539875315358343976,806,1539875315357899976,base_link,0.188799945173,-0.103249897792,-0.780236933288,0.587302619816,1.0,0.0,0.0,0.0,1.0,0.0,0.0,0.0,1.0,0.30982285738,-0.0670672655106,-0.338113844395,1.21846967915e-07,0.0,0.0,0.0,1.21846967915e-07,0.0,0.0,0.0,1.21846967915e-07,-0.87279185,0.10787315,9.4536106,9e-08,0.0,0.0,0.0,9e-08,0.0,0.0,0.0,9e-08
1539875315775656680,807,1539875315775362376,base_link,0.213913561605,-0.154182811522,-0.797795869155,0.542208815819,1.0,0.0,0.0,0.0,1.0,0.0,0.0,0.0,1.0,0.131332308054,-0.163349628448,-0.0558116845787,1.21846967915e-07,0.0,0.0,0.0,1.21846967915e-07,0.0,0.0,0.0,1.21846967915e-07,-0.83356525,0.24516625,9.69877685,9e-08,0.0,0.0,0.0,9e-08,0.0,0.0,0.0,9e-08
1539875316059078728,808,1539875316058835016,base_link,0.209219546955,-0.195493023528,-0.807762070548,0.515296124871,1.0,0.0,0.0,0.0,1.0,0.0,0.0,0.0,1.0,0.262810587883,-0.236675441265,-0.200512215495,1.21846967915e-07,0.0,0.0,0.0,1.21846967915e-07,0.0,0.0,0.0,1.21846967915e-07,0.1176798,1.2160246,16.082906,9e-08,0.0,0.0,0.0,9e-08,0.0,0.0,0.0,9e-08
1539875316446551240,809,1539875316446145736,base_link,0.223478800365,-0.26738051501,-0.825749803093,0.44351115958,1.0,0.0,0.0,0.0,1.0,0.0,0.0,0.0,1.0,0.410393834114,-0.271091431379,-0.368930876255,1.21846967915e-07,0.0,0.0,0.0,1.21846967915e-07,0.0,0.0,0.0,1.21846967915e-07,0.46091255,0.9022118,11.81701325,9e-08,0.0,0.0,0.0,9e-08,0.0,0.0,0.0,9e-08
1539875316932086760,810,1539875316931788040,base_link,0.184405540944,-0.337924616362,-0.854423275225,0.348944718945,1.0,0.0,0.0,0.0,1.0,0.0,0.0,0.0,1.0,-0.285882472992,-0.444214135408,-0.222080245614,1.21846967915e-07,0.0,0.0,0.0,1.21846967915e-07,0.0,0.0,0.0,1.21846967915e-07,0.9218251,1.5102241,14.5334553,9e-08,0.0,0.0,0.0,9e-08,0.0,0.0,0.0,9e-08
1539875317352063656,811,1539875317348317064,base_link,0.121197040757,-0.313511779192,-0.899250835895,0.27994566573,1.0,0.0,0.0,0.0,1.0,0.0,0.0,0.0,1.0,-0.107823520899,-0.379105180502,-0.291889727116,1.21846967915e-07,0.0,0.0,0.0,1.21846967915e-07,0.0,0.0,0.0,1.21846967915e-07,0.73549875,1.0787315,16.21039245,9e-08,0.0,0.0,0.0,9e-08,0.0,0.0,0.0,9e-08
1539875317891357224,812,1539875317891073512,base_link,0.067600163528,-0.346976239699,-0.920009978149,0.169172536429,1.0,0.0,0.0,0.0,1.0,0.0,0.0,0.0,1.0,-0.116862215102,-0.383108705282,-0.198495402932,1.21846967915e-07,0.0,0.0,0.0,1.21846967915e-07,0.0,0.0,0.0,1.21846967915e-07,0.9414384,1.24544455,22.1238024,9e-08,0.0,0.0,0.0,9e-08,0.0,0.0,0.0,9e-08
1539875318282199944,813,1539875318281040392,base_link,0.0158277160085,-0.335652799328,-0.934352186356,0.118628299998,1.0,0.0,0.0,0.0,1.0,0.0,0.0,0.0,1.0,0.163383513689,-0.242062717676,-0.153802409768,1.21846967915e-07,0.0,0.0,0.0,1.21846967915e-07,0.0,0.0,0.0,1.21846967915e-07,0.5099458,1.0787315,14.93552795,9e-08,0.0,0.0,0.0,9e-08,0.0,0.0,0.0,9e-08
1539875318699302696,814,1539875318698849448,base_link,-0.00154281757756,-0.2724668237,-0.95982833464,0.0670001322292,1.0,0.0,0.0,0.0,1.0,0.0,0.0,0.0,1.0,-0.421468108892,-0.0679677650332,-0.235441014171,1.21846967915e-07,0.0,0.0,0.0,1.21846967915e-07,0.0,0.0,0.0,1.21846967915e-07,0.1569064,0.5687857,9.414384,9e-08,0.0,0.0,0.0,9e-08,0.0,0.0,0.0,9e-08
1539875319070096072,815,1539875319069755976,base_link,-0.00107482181418,-0.194660514732,-0.980612382878,0.0224829559661,1.0,0.0,0.0,0.0,1.0,0.0,0.0,0.0,1.0,-0.125755086541,0.0240332782269,-0.245852395892,1.21846967915e-07,0.0,0.0,0.0,1.21846967915e-07,0.0,0.0,0.0,1.21846967915e-07,-0.36284605,0.32361945,8.11009955,9e-08,0.0,0.0,0.0,9e-08,0.0,0.0,0.0,9e-08
1539875319367125448,816,1539875319366342856,base_link,0.00792468918623,-0.161806584253,-0.986789590597,-0.00146030238596,1.0,0.0,0.0,0.0,1.0,0.0,0.0,0.0,1.0,-0.302602231503,0.0628953799605,-0.132357627153,1.21846967915e-07,0.0,0.0,0.0,1.21846967915e-07,0.0,0.0,0.0,1.21846967915e-07,-0.7256921,0.32361945,7.34518085,9e-08,0.0,0.0,0.0,9e-08,0.0,0.0,0.0,9e-08
1539875319796321320,817,1539875319794454088,base_link,0.0383512055622,-0.0823036102904,-0.994812657857,-0.0458593123775,1.0,0.0,0.0,0.0,1.0,0.0,0.0,0.0,1.0,0.0350507646799,0.109099045396,-0.304406553507,1.21846967915e-07,0.0,0.0,0.0,1.21846967915e-07,0.0,0.0,0.0,1.21846967915e-07,-0.73549875,0.2745862,6.44296905,9e-08,0.0,0.0,0.0,9e-08,0.0,0.0,0.0,9e-08
1539875320135154184,818,1539875320134718792,base_link,0.0530452668393,-0.0879410827596,-0.991636148113,-0.0781685063524,1.0,0.0,0.0,0.0,1.0,0.0,0.0,0.0,1.0,0.225624516606,0.105412900448,-0.110002852976,1.21846967915e-07,0.0,0.0,0.0,1.21846967915e-07,0.0,0.0,0.0,1.21846967915e-07,-0.8825985,0.0196133,3.48136075,9e-08,0.0,0.0,0.0,9e-08,0.0,0.0,0.0,9e-08
1539875320490475912,819,1539875320489433416,base_link,0.0523162424958,-0.102512432101,-0.989613959952,-0.086130263583,1.0,0.0,0.0,0.0,1.0,0.0,0.0,0.0,1.0,-0.101709276438,-0.060396566987,0.0605124160647,1.21846967915e-07,0.0,0.0,0.0,1.21846967915e-07,0.0,0.0,0.0,1.21846967915e-07,-0.97085835,0.14709975,7.16866115,9e-08,0.0,0.0,0.0,9e-08,0.0,0.0,0.0,9e-08
1539875320807086760,820,1539875320806370088,base_link,0.0414771285384,-0.0913190477127,-0.991622346303,-0.081397798774,1.0,0.0,0.0,0.0,1.0,0.0,0.0,0.0,1.0,-0.0682230442762,-0.0563344024122,0.0492829494178,1.21846967915e-07,0.0,0.0,0.0,1.21846967915e-07,0.0,0.0,0.0,1.21846967915e-07,-0.44129925,0.34323275,12.9251647,9e-08,0.0,0.0,0.0,9e-08,0.0,0.0,0.0,9e-08
1539875321138001896,821,1539875321137695912,base_link,0.0334914190786,-0.0898407515392,-0.992362523879,-0.0776117607768,1.0,0.0,0.0,0.0,1.0,0.0,0.0,0.0,1.0,-0.112790115178,-0.0423987694085,0.0181217379868,1.21846967915e-07,0.0,0.0,0.0,1.21846967915e-07,0.0,0.0,0.0,1.21846967915e-07,-0.7256921,0.61781895,10.1596894,9e-08,0.0,0.0,0.0,9e-08,0.0,0.0,0.0,9e-08
1539875321620132264,822,1539875321619775560,base_link,0.0349121456368,-0.0375432677018,-0.993090416923,-0.105560735852,1.0,0.0,0.0,0.0,1.0,0.0,0.0,0.0,1.0,0.0188290402293,0.00590431829914,-0.275824218988,1.21846967915e-07,0.0,0.0,0.0,1.21846967915e-07,0.0,0.0,0.0,1.21846967915e-07,-0.2941995,0.20593965,12.5328987,9e-08,0.0,0.0,0.0,9e-08,0.0,0.0,0.0,9e-08
1539875321943424008,823,1539875321942858248,base_link,0.0326578589998,-0.0393595941197,-0.990644900883,-0.126518642698,1.0,0.0,0.0,0.0,1.0,0.0,0.0,0.0,1.0,0.0404665507376,-0.0541127100587,0.00626129377633,1.21846967915e-07,0.0,0.0,0.0,1.21846967915e-07,0.0,0.0,0.0,1.21846967915e-07,-0.71588545,-0.2549729,11.34629405,9e-08,0.0,0.0,0.0,9e-08,0.0,0.0,0.0,9e-08
1539875322290936008,824,1539875322289937640,base_link,0.0184150747535,-0.0263672256968,-0.993707230042,-0.107292103126,1.0,0.0,0.0,0.0,1.0,0.0,0.0,0.0,1.0,-0.456087529659,-0.106621161103,0.143012627959,1.21846967915e-07,0.0,0.0,0.0,1.21846967915e-07,0.0,0.0,0.0,1.21846967915e-07,-0.55897905,0.77472535,15.03359445,9e-08,0.0,0.0,0.0,9e-08,0.0,0.0,0.0,9e-08
1539875322646872456,825,1539875322646338984,base_link,0.0273037909536,0.0169678560821,-0.993244049535,-0.111502703659,1.0,0.0,0.0,0.0,1.0,0.0,0.0,0.0,1.0,-0.0509370416403,-0.000176789239049,-0.0935674309731,1.21846967915e-07,0.0,0.0,0.0,1.21846967915e-07,0.0,0.0,0.0,1.21846967915e-07,-0.99047165,0.9022118,9.52225715,9e-08,0.0,0.0,0.0,9e-08,0.0,0.0,0.0,9e-08
1539875322964743208,826,1539875322964313192,base_link,0.0245668720716,0.036715305794,-0.992529865003,-0.113723006444,1.0,0.0,0.0,0.0,1.0,0.0,0.0,0.0,1.0,0.0562032833695,-0.0533849112689,0.141119346023,1.21846967915e-07,0.0,0.0,0.0,1.21846967915e-07,0.0,0.0,0.0,1.21846967915e-07,-0.77472535,-0.40207265,11.30706745,9e-08,0.0,0.0,0.0,9e-08,0.0,0.0,0.0,9e-08
1539875323446124040,827,1539875323445313160,base_link,0.0252348955672,0.0918856062436,-0.993344037735,-0.0647136624503,1.0,0.0,0.0,0.0,1.0,0.0,0.0,0.0,1.0,0.0358194559813,-0.0143009843305,0.137209534645,1.21846967915e-07,0.0,0.0,0.0,1.21846967915e-07,0.0,0.0,0.0,1.21846967915e-07,-0.8237586,0.12748645,11.4149406,9e-08,0.0,0.0,0.0,9e-08,0.0,0.0,0.0,9e-08
1539875323886304360,828,1539875323885761000,base_link,0.0411163974392,-0.0549108765809,-0.99530856757,-0.0682282406071,1.0,0.0,0.0,0.0,1.0,0.0,0.0,0.0,1.0,0.507344901562,0.0882961452007,-0.0634017065167,1.21846967915e-07,0.0,0.0,0.0,1.21846967915e-07,0.0,0.0,0.0,1.21846967915e-07,-0.7453054,-0.08825985,2.7850886,9e-08,0.0,0.0,0.0,9e-08,0.0,0.0,0.0,9e-08
1539875324339414184,829,1539875324338922216,base_link,0.0561956864679,-0.060624061269,-0.994565366618,-0.0632969157317,1.0,0.0,0.0,0.0,1.0,0.0,0.0,0.0,1.0,-0.397690176964,0.0841766372323,-0.129153162241,1.21846967915e-07,0.0,0.0,0.0,1.21846967915e-07,0.0,0.0,0.0,1.21846967915e-07,-1.0002783,1.50041745,8.6886919,9e-08,0.0,0.0,0.0,9e-08,0.0,0.0,0.0,9e-08
1539875324686075080,830,1539875324685705096,base_link,0.070707484882,-0.046539252023,-0.989841600342,-0.114228524613,1.0,0.0,0.0,0.0,1.0,0.0,0.0,0.0,1.0,0.237117439508,-0.0348332859576,-0.257971316576,1.21846967915e-07,0.0,0.0,0.0,1.21846967915e-07,0.0,0.0,0.0,1.21846967915e-07,-0.81395195,-0.10787315,7.36479415,9e-08,0.0,0.0,0.0,9e-08,0.0,0.0,0.0,9e-08
1539875325078158696,831,1539875325076696456,base_link,0.0461533313741,-0.0696004550683,-0.989924520904,-0.11434635792,1.0,0.0,0.0,0.0,1.0,0.0,0.0,0.0,1.0,-0.169443815947,-0.12876740098,0.125991463661,1.21846967915e-07,0.0,0.0,0.0,1.21846967915e-07,0.0,0.0,0.0,1.21846967915e-07,-0.36284605,0.55897905,11.964113,9e-08,0.0,0.0,0.0,9e-08,0.0,0.0,0.0,9e-08
1539875325397769480,832,1539875325396953544,base_link,0.0313939200284,-0.0416304017839,-0.99284467617,-0.107428024434,1.0,0.0,0.0,0.0,1.0,0.0,0.0,0.0,1.0,-0.173060819507,-0.0983561351895,-0.0459400378168,1.21846967915e-07,0.0,0.0,0.0,1.21846967915e-07,0.0,0.0,0.0,1.21846967915e-07,-0.196133,0.51975245,11.0815145,9e-08,0.0,0.0,0.0,9e-08,0.0,0.0,0.0,9e-08
1539875325783435496,833,1539875325782310408,base_link,0.0145756013644,0.00227331259177,-0.992759035536,-0.119213595095,1.0,0.0,0.0,0.0,1.0,0.0,0.0,0.0,1.0,-0.502988517284,-0.153668507934,-0.0431068241596,1.21846967915e-07,0.0,0.0,0.0,1.21846967915e-07,0.0,0.0,0.0,1.21846967915e-07,0.1372931,0.2157463,11.4737805,9e-08,0.0,0.0,0.0,9e-08,0.0,0.0,0.0,9e-08
1539875326177895976,834,1539875326177591432,base_link,-0.0039465244659,0.0835741714568,-0.989714993413,-0.116034540648,1.0,0.0,0.0,0.0,1.0,0.0,0.0,0.0,1.0,0.163907065988,-0.0746210366488,-0.0183199942112,1.21846967915e-07,0.0,0.0,0.0,1.21846967915e-07,0.0,0.0,0.0,1.21846967915e-07,0.42168595,1.0002783,13.54298365,9e-08,0.0,0.0,0.0,9e-08,0.0,0.0,0.0,9e-08
1539875326685369288,835,1539875326685095656,base_link,-0.0352735717584,-0.00155120221075,-0.992957591667,-0.113086648449,1.0,0.0,0.0,0.0,1.0,0.0,0.0,0.0,1.0,0.229394257069,-0.0631419345737,0.102925948799,1.21846967915e-07,0.0,0.0,0.0,1.21846967915e-07,0.0,0.0,0.0,1.21846967915e-07,0.36284605,0.12748645,11.8268199,9e-08,0.0,0.0,0.0,9e-08,0.0,0.0,0.0,9e-08
1539875327090462664,836,1539875327090087624,base_link,-0.0397040165795,-0.0101682076403,-0.993725237167,-0.10406897539,1.0,0.0,0.0,0.0,1.0,0.0,0.0,0.0,1.0,0.0780162364244,0.0213778875768,-0.0343591123819,1.21846967915e-07,0.0,0.0,0.0,1.21846967915e-07,0.0,0.0,0.0,1.21846967915e-07,0.24516625,0.392266,9.67916355,9e-08,0.0,0.0,0.0,9e-08,0.0,0.0,0.0,9e-08
1539875327486385288,837,1539875327486050600,base_link,-0.0422484029394,-0.019076154578,-0.992435811296,-0.11367644098,1.0,0.0,0.0,0.0,1.0,0.0,0.0,0.0,1.0,0.221041843295,0.0134059814736,-0.0325082652271,1.21846967915e-07,0.0,0.0,0.0,1.21846967915e-07,0.0,0.0,0.0,1.21846967915e-07,0.2941995,0.1569064,10.8853815,9e-08,0.0,0.0,0.0,9e-08,0.0,0.0,0.0,9e-08
1539875327871964904,838,1539875327871636360,base_link,-0.0482017671621,-0.038225685519,-0.992484301272,-0.105784206464,1.0,0.0,0.0,0.0,1.0,0.0,0.0,0.0,1.0,-0.374577313662,-0.0296032261103,0.091260753572,1.21846967915e-07,0.0,0.0,0.0,1.21846967915e-07,0.0,0.0,0.0,1.21846967915e-07,0.67665885,0.28439285,11.24822755,9e-08,0.0,0.0,0.0,9e-08,0.0,0.0,0.0,9e-08
1539875328297305096,839,1539875328297122408,base_link,-0.0384856952679,-0.0159549618399,-0.992800089007,-0.112304379793,1.0,0.0,0.0,0.0,1.0,0.0,0.0,0.0,1.0,0.0608585551381,0.0722161903977,-0.0991421118379,1.21846967915e-07,0.0,0.0,0.0,1.21846967915e-07,0.0,0.0,0.0,1.21846967915e-07,0.55897905,0.40207265,7.8257067,9e-08,0.0,0.0,0.0,9e-08,0.0,0.0,0.0,9e-08
1539875328665820104,840,1539875328665603144,base_link,-0.0385638199836,-0.0266096216334,-0.991568259457,-0.120818651964,1.0,0.0,0.0,0.0,1.0,0.0,0.0,0.0,1.0,0.191379219294,-0.0225409939885,0.0329511128366,1.21846967915e-07,0.0,0.0,0.0,1.21846967915e-07,0.0,0.0,0.0,1.21846967915e-07,0.8629852,-0.2157463,10.591182,9e-08,0.0,0.0,0.0,9e-08,0.0,0.0,0.0,9e-08
1539875329073436744,841,1539875329073197768,base_link,-0.0477068250347,-0.0373518852248,-0.994213122337,-0.0887083022487,1.0,0.0,0.0,0.0,1.0,0.0,0.0,0.0,1.0,-0.161600336432,-0.04238294065,0.188296601176,1.21846967915e-07,0.0,0.0,0.0,1.21846967915e-07,0.0,0.0,0.0,1.21846967915e-07,0.97085835,0.46091255,12.13082605,9e-08,0.0,0.0,0.0,9e-08,0.0,0.0,0.0,9e-08
1539875329447880936,842,1539875329447592328,base_link,-0.0421912940023,-0.00957964517199,-0.995765623129,-0.0811107200215,1.0,0.0,0.0,0.0,1.0,0.0,0.0,0.0,1.0,-0.130257710814,0.0713507756591,-0.0927693247795,1.21846967915e-07,0.0,0.0,0.0,1.21846967915e-07,0.0,0.0,0.0,1.21846967915e-07,0.99047165,0.8825985,10.52253545,9e-08,0.0,0.0,0.0,9e-08,0.0,0.0,0.0,9e-08
1539875329900672744,843,1539875329900383368,base_link,-0.0307928810886,-0.053113708606,-0.992945050226,-0.101443874453,1.0,0.0,0.0,0.0,1.0,0.0,0.0,0.0,1.0,0.372243732214,0.0499396361411,-0.0303324460983,1.21846967915e-07,0.0,0.0,0.0,1.21846967915e-07,0.0,0.0,0.0,1.21846967915e-07,0.95124505,0.06864655,7.63938035,9e-08,0.0,0.0,0.0,9e-08,0.0,0.0,0.0,9e-08
1539875330341606664,844,1539875330341163304,base_link,-0.0352960284689,-0.0863061360697,-0.991015684995,-0.0958819761172,1.0,0.0,0.0,0.0,1.0,0.0,0.0,0.0,1.0,-0.0419838875532,-0.0300173889846,0.0355143025517,1.21846967915e-07,0.0,0.0,0.0,1.21846967915e-07,0.0,0.0,0.0,1.21846967915e-07,1.08853815,0.4118793,9.48303055,9e-08,0.0,0.0,0.0,9e-08,0.0,0.0,0.0,9e-08
1539875330757632808,845,1539875330757317672,base_link,-0.035997638788,-0.0611073141384,-0.992802551102,-0.096504718463,1.0,0.0,0.0,0.0,1.0,0.0,0.0,0.0,1.0,-0.101559452713,-0.0165631696582,-4.51281666756e-05,1.21846967915e-07,0.0,0.0,0.0,1.21846967915e-07,0.0,0.0,0.0,1.21846967915e-07,1.1571847,0.3530394,10.5127288,9e-08,0.0,0.0,0.0,9e-08,0.0,0.0,0.0,9e-08
1539875331050042728,846,1539875331046827624,base_link,-0.0362999053472,-0.0512914964679,-0.993191089181,-0.098096685128,1.0,0.0,0.0,0.0,1.0,0.0,0.0,0.0,1.0,-0.0958625003695,-0.0109985079616,-0.0279600471258,1.21846967915e-07,0.0,0.0,0.0,1.21846967915e-07,0.0,0.0,0.0,1.21846967915e-07,1.2552512,0.6080123,9.79684335,9e-08,0.0,0.0,0.0,9e-08,0.0,0.0,0.0,9e-08
1539875331297891624,847,1539875331297416328,base_link,-0.0340007325805,-0.0212863726848,-0.99399839334,-0.101774429794,1.0,0.0,0.0,0.0,1.0,0.0,0.0,0.0,1.0,-0.227456107736,0.00825971458107,-0.0523969009519,1.21846967915e-07,0.0,0.0,0.0,1.21846967915e-07,0.0,0.0,0.0,1.21846967915e-07,1.22583125,0.6668522,10.7284751,9e-08,0.0,0.0,0.0,9e-08,0.0,0.0,0.0,9e-08
1539875331778608872,848,1539875331776707624,base_link,-0.0393420787389,0.0664333694844,-0.991728599708,-0.102533861634,1.0,0.0,0.0,0.0,1.0,0.0,0.0,0.0,1.0,-0.13704225421,-0.0853203684092,0.0667119622231,1.21846967915e-07,0.0,0.0,0.0,1.21846967915e-07,0.0,0.0,0.0,1.21846967915e-07,1.28467115,0.40207265,12.6309652,9e-08,0.0,0.0,0.0,9e-08,0.0,0.0,0.0,9e-08
1539875332067191208,849,1539875332066542792,base_link,-0.0450984441306,0.0500358425954,-0.994002700558,-0.0861462481814,1.0,0.0,0.0,0.0,1.0,0.0,0.0,0.0,1.0,0.22259926796,-0.0256417598575,0.110446833074,1.21846967915e-07,0.0,0.0,0.0,1.21846967915e-07,0.0,0.0,0.0,1.21846967915e-07,1.1375714,0.3138128,11.05209455,9e-08,0.0,0.0,0.0,9e-08,0.0,0.0,0.0,9e-08
1539875332483576488,850,1539875332483222536,base_link,-0.0454630583551,-0.0084571301383,-0.995745645888,-0.0797006648036,1.0,0.0,0.0,0.0,1.0,0.0,0.0,0.0,1.0,0.0521985031664,0.110609300435,-0.136193618178,1.21846967915e-07,0.0,0.0,0.0,1.21846967915e-07,0.0,0.0,0.0,1.21846967915e-07,1.06892485,1.24544455,12.2779258,9e-08,0.0,0.0,0.0,9e-08,0.0,0.0,0.0,9e-08
1539875332908303272,851,1539875332908062728,base_link,-0.0263526922621,-0.0272095970208,-0.994138775749,-0.101258421837,1.0,0.0,0.0,0.0,1.0,0.0,0.0,0.0,1.0,0.0763613954186,0.0764157474041,-0.0731497332454,1.21846967915e-07,0.0,0.0,0.0,1.21846967915e-07,0.0,0.0,0.0,1.21846967915e-07,0.3530394,0.32361945,9.77723005,9e-08,0.0,0.0,0.0,9e-08,0.0,0.0,0.0,9e-08
1539875333323239880,852,1539875333323039592,base_link,-0.0161253982874,-0.072849695722,-0.993091339519,-0.0905675700028,1.0,0.0,0.0,0.0,1.0,0.0,0.0,0.0,1.0,0.0465260259807,0.00490039028227,0.0909238532186,1.21846967915e-07,0.0,0.0,0.0,1.21846967915e-07,0.0,0.0,0.0,1.21846967915e-07,-0.1765197,0.4903325,7.5903471,9e-08,0.0,0.0,0.0,9e-08,0.0,0.0,0.0,9e-08
1539875333721398888,853,1539875333721187336,base_link,0.00377067442844,-0.0330338938416,-0.995874097419,-0.0844353359753,1.0,0.0,0.0,0.0,1.0,0.0,0.0,0.0,1.0,-0.246427729726,0.122465223074,-0.0816291496158,1.21846967915e-07,0.0,0.0,0.0,1.21846967915e-07,0.0,0.0,0.0,1.21846967915e-07,-0.34323275,0.6080123,6.2370294,9e-08,0.0,0.0,0.0,9e-08,0.0,0.0,0.0,9e-08
1539875334178021512,854,1539875334177660648,base_link,0.0173606809331,-0.0493173425692,-0.994184973434,-0.0941416224534,1.0,0.0,0.0,0.0,1.0,0.0,0.0,0.0,1.0,0.0567519888282,0.0485220849514,0.145065054297,1.21846967915e-07,0.0,0.0,0.0,1.21846967915e-07,0.0,0.0,0.0,1.21846967915e-07,-0.20593965,-0.7453054,8.1591328,9e-08,0.0,0.0,0.0,9e-08,0.0,0.0,0.0,9e-08
1539875334567462568,855,1539875334566867912,base_link,0.020214269792,-0.0377437369888,-0.997432736108,-0.0573997435141,1.0,0.0,0.0,0.0,1.0,0.0,0.0,0.0,1.0,-0.046089373529,0.0260012969375,0.0805288106203,1.21846967915e-07,0.0,0.0,0.0,1.21846967915e-07,0.0,0.0,0.0,1.21846967915e-07,-0.3726527,0.6472389,8.28661925,9e-08,0.0,0.0,0.0,9e-08,0.0,0.0,0.0,9e-08
1539875335050597640,856,1539875335050341384,base_link,0.0288761448985,-0.0498300877534,-0.99594409019,-0.0691266940214,1.0,0.0,0.0,0.0,1.0,0.0,0.0,0.0,1.0,-0.121376462281,0.00486709643155,-0.151880949736,1.21846967915e-07,0.0,0.0,0.0,1.21846967915e-07,0.0,0.0,0.0,1.21846967915e-07,-0.08825985,0.9218251,8.83579165,9e-08,0.0,0.0,0.0,9e-08,0.0,0.0,0.0,9e-08
1539875335439721448,857,1539875335439397800,base_link,0.0250927217671,-0.0288818780548,-0.994469694371,-0.0978070519572,1.0,0.0,0.0,0.0,1.0,0.0,0.0,0.0,1.0,-0.108947873116,-0.0531730502844,-0.141958475113,1.21846967915e-07,0.0,0.0,0.0,1.21846967915e-07,0.0,0.0,0.0,1.21846967915e-07,0.0,0.8237586,10.4931155,9e-08,0.0,0.0,0.0,9e-08,0.0,0.0,0.0,9e-08
1539875335760492552,858,1539875335760190152,base_link,0.0152158310724,-0.0180569253582,-0.99286082712,-0.116917936616,1.0,0.0,0.0,0.0,1.0,0.0,0.0,0.0,1.0,0.136096984148,-0.075075879693,-0.100944243371,1.21846967915e-07,0.0,0.0,0.0,1.21846967915e-07,0.0,0.0,0.0,1.21846967915e-07,0.26477955,0.30400615,10.91480145,9e-08,0.0,0.0,0.0,9e-08,0.0,0.0,0.0,9e-08
1539875336221811304,859,1539875336220770888,base_link,-0.00139322023987,-0.0381518576895,-0.990944891434,-0.128727296381,1.0,0.0,0.0,0.0,1.0,0.0,0.0,0.0,1.0,0.154563069344,-0.0577591955662,-0.119256153703,1.21846967915e-07,0.0,0.0,0.0,1.21846967915e-07,0.0,0.0,0.0,1.21846967915e-07,0.26477955,0.81395195,8.42391235,9e-08,0.0,0.0,0.0,9e-08,0.0,0.0,0.0,9e-08
1539875336709388200,860,1539875336709057160,base_link,-0.0481125356555,-0.104544359145,-0.990559915763,-0.074476265793,1.0,0.0,0.0,0.0,1.0,0.0,0.0,0.0,1.0,-0.262084543705,-0.108469441533,0.527036607265,1.21846967915e-07,0.0,0.0,0.0,1.21846967915e-07,0.0,0.0,0.0,1.21846967915e-07,0.588399,0.55897905,11.1011278,9e-08,0.0,0.0,0.0,9e-08,0.0,0.0,0.0,9e-08
1539875337104033640,861,1539875337090133064,base_link,-0.0250274618032,-0.00472445116435,-0.997571819861,-0.0648210608987,1.0,0.0,0.0,0.0,1.0,0.0,0.0,0.0,1.0,-0.339559555054,0.244431376457,-0.239966318011,1.21846967915e-07,0.0,0.0,0.0,1.21846967915e-07,0.0,0.0,0.0,1.21846967915e-07,0.4314926,1.22583125,6.52142225,9e-08,0.0,0.0,0.0,9e-08,0.0,0.0,0.0,9e-08
1539875337442981640,862,1539875337442533320,base_link,-0.00324557752885,0.0171279516637,-0.993964599602,-0.108307313863,1.0,0.0,0.0,0.0,1.0,0.0,0.0,0.0,1.0,-0.103396736085,0.063586935401,-0.140930354595,1.21846967915e-07,0.0,0.0,0.0,1.21846967915e-07,0.0,0.0,0.0,1.21846967915e-07,0.59820565,0.50013915,5.99186315,9e-08,0.0,0.0,0.0,9e-08,0.0,0.0,0.0,9e-08
1539875337953173032,863,1539875337952662664,base_link,0.00344975282153,0.0163567257926,-0.990138336484,-0.139092168546,1.0,0.0,0.0,0.0,1.0,0.0,0.0,0.0,1.0,0.211722955108,-0.00521217659116,-0.0526191033423,1.21846967915e-07,0.0,0.0,0.0,1.21846967915e-07,0.0,0.0,0.0,1.21846967915e-07,0.50013915,0.14709975,9.48303055,9e-08,0.0,0.0,0.0,9e-08,0.0,0.0,0.0,9e-08
1539875338352791688,864,1539875338352391752,base_link,-0.012522524856,-0.0212989488099,-0.991052845882,-0.131163248737,1.0,0.0,0.0,0.0,1.0,0.0,0.0,0.0,1.0,0.0893337875605,-0.0390108264983,0.0636269822717,1.21846967915e-07,0.0,0.0,0.0,1.21846967915e-07,0.0,0.0,0.0,1.21846967915e-07,0.6276256,0.85317855,11.5522337,9e-08,0.0,0.0,0.0,9e-08,0.0,0.0,0.0,9e-08
1539875338722771080,865,1539875338722498856,base_link,-0.0347811422829,-0.0808863037793,-0.987147084455,-0.133372829521,1.0,0.0,0.0,0.0,1.0,0.0,0.0,0.0,1.0,0.587235808372,-0.0840966105461,-0.0940776765347,1.21846967915e-07,0.0,0.0,0.0,1.21846967915e-07,0.0,0.0,0.0,1.21846967915e-07,0.77472535,0.588399,11.18938765,9e-08,0.0,0.0,0.0,9e-08,0.0,0.0,0.0,9e-08
1539875339174629256,866,1539875339174359944,base_link,-0.0566010879031,-0.150171855145,-0.975408238253,-0.151074483346,1.0,0.0,0.0,0.0,1.0,0.0,0.0,0.0,1.0,0.0686737671494,-0.0594198815525,-0.0952786505222,1.21846967915e-07,0.0,0.0,0.0,1.21846967915e-07,0.0,0.0,0.0,1.21846967915e-07,0.7256921,0.81395195,11.75817335,9e-08,0.0,0.0,0.0,9e-08,0.0,0.0,0.0,9e-08
1539875339571206792,867,1539875339570925192,base_link,-0.0731350113326,-0.198068521653,-0.960257093997,-0.182555318398,1.0,0.0,0.0,0.0,1.0,0.0,0.0,0.0,1.0,0.21979162097,-0.0708705931902,-0.177862897515,1.21846967915e-07,0.0,0.0,0.0,1.21846967915e-07,0.0,0.0,0.0,1.21846967915e-07,0.87279185,1.34868734844e-15,11.01286795,9e-08,0.0,0.0,0.0,9e-08,0.0,0.0,0.0,9e-08
1539875339983131592,868,1539875339982424616,base_link,-0.0892923946494,-0.208256954501,-0.952207146685,-0.20483519952,1.0,0.0,0.0,0.0,1.0,0.0,0.0,0.0,1.0,-0.0696598216891,-0.0791639387608,-0.0455962941051,1.21846967915e-07,0.0,0.0,0.0,1.21846967915e-07,0.0,0.0,0.0,1.21846967915e-07,0.99047165,0.53936575,11.46397385,9e-08,0.0,0.0,0.0,9e-08,0.0,0.0,0.0,9e-08
1539875340423601416,869,1539875340423345000,base_link,-0.101482033133,-0.208521556621,-0.945181955365,-0.229893950831,1.0,0.0,0.0,0.0,1.0,0.0,0.0,0.0,1.0,-0.143285468221,-0.0542228594422,-0.121053792536,1.21846967915e-07,0.0,0.0,0.0,1.21846967915e-07,0.0,0.0,0.0,1.21846967915e-07,0.69627215,1.0983448,10.6304086,9e-08,0.0,0.0,0.0,9e-08,0.0,0.0,0.0,9e-08
1539875340763865352,870,1539875340763601480,base_link,-0.0871654809669,-0.207515276076,-0.936418058401,-0.269185454701,1.0,0.0,0.0,0.0,1.0,0.0,0.0,0.0,1.0,0.0142387915403,0.0404132790864,-0.310963958502,1.21846967915e-07,0.0,0.0,0.0,1.21846967915e-07,0.0,0.0,0.0,1.21846967915e-07,0.4903325,1.3925443,9.1005712,9e-08,0.0,0.0,0.0,9e-08,0.0,0.0,0.0,9e-08
1539875341109819176,871,1539875341109307656,base_link,-0.0738446479352,-0.221601830605,-0.918075703138,-0.320275818556,1.0,0.0,0.0,0.0,1.0,0.0,0.0,0.0,1.0,0.123859271407,-0.0590034723282,-0.244323179126,1.21846967915e-07,0.0,0.0,0.0,1.21846967915e-07,0.0,0.0,0.0,1.21846967915e-07,0.59820565,0.18632635,8.237586,9e-08,0.0,0.0,0.0,9e-08,0.0,0.0,0.0,9e-08
1539875341550234152,872,1539875341549714184,base_link,-0.0694833110639,-0.220482458731,-0.904867363556,-0.35745574446,1.0,0.0,0.0,0.0,1.0,0.0,0.0,0.0,1.0,0.0738726854324,-0.0316351540387,-0.264051645994,1.21846967915e-07,0.0,0.0,0.0,1.21846967915e-07,0.0,0.0,0.0,1.21846967915e-07,0.18632635,0.9218251,7.6688003,9e-08,0.0,0.0,0.0,9e-08,0.0,0.0,0.0,9e-08
1539875341855666024,873,1539875341854944840,base_link,-0.0883370454136,-0.245441498865,-0.88186971305,-0.392760545686,1.0,0.0,0.0,0.0,1.0,0.0,0.0,0.0,1.0,0.189570561051,-0.160425037146,-0.166535034776,1.21846967915e-07,0.0,0.0,0.0,1.21846967915e-07,0.0,0.0,0.0,1.21846967915e-07,0.3138128,0.4707192,10.395049,9e-08,0.0,0.0,0.0,9e-08,0.0,0.0,0.0,9e-08
1539875342147930216,874,1539875342147608616,base_link,-0.112256226827,-0.250327072823,-0.866750814121,-0.416506809514,1.0,0.0,0.0,0.0,1.0,0.0,0.0,0.0,1.0,0.0562442950904,-0.173082828522,-0.123710647225,1.21846967915e-07,0.0,0.0,0.0,1.21846967915e-07,0.0,0.0,0.0,1.21846967915e-07,0.63743225,0.7060788,12.5917386,9e-08,0.0,0.0,0.0,9e-08,0.0,0.0,0.0,9e-08
1539875342602615016,875,1539875342602046120,base_link,-0.10778251896,-0.215463503968,-0.848143539318,-0.471816642117,1.0,0.0,0.0,0.0,1.0,0.0,0.0,0.0,1.0,-0.21477432549,-0.0639608502388,-0.370194226503,1.21846967915e-07,0.0,0.0,0.0,1.21846967915e-07,0.0,0.0,0.0,1.21846967915e-07,0.50013915,0.97085835,11.1991943,9e-08,0.0,0.0,0.0,9e-08,0.0,0.0,0.0,9e-08
1539875343052553704,876,1539875343052237576,base_link,-0.114698471316,-0.196471884491,-0.808974544584,-0.542036203125,1.0,0.0,0.0,0.0,1.0,0.0,0.0,0.0,1.0,-0.0405386686325,-0.195509806275,-0.200163185596,1.21846967915e-07,0.0,0.0,0.0,1.21846967915e-07,0.0,0.0,0.0,1.21846967915e-07,0.1372931,0.3138128,12.2386992,9e-08,0.0,0.0,0.0,9e-08,0.0,0.0,0.0,9e-08
1539875343544328488,877,1539875343543480616,base_link,-0.141381573201,-0.169936611243,-0.790937246749,-0.570570828753,1.0,0.0,0.0,0.0,1.0,0.0,0.0,0.0,1.0,-0.221514597535,-0.110545285046,-0.0754604712129,1.21846967915e-07,0.0,0.0,0.0,1.21846967915e-07,0.0,0.0,0.0,1.21846967915e-07,0.1765197,0.69627215,12.1994726,9e-08,0.0,0.0,0.0,9e-08,0.0,0.0,0.0,9e-08
1539875343982358728,878,1539875343981305704,base_link,-0.10134419591,-0.112150597253,-0.785042552546,-0.600716062864,1.0,0.0,0.0,0.0,1.0,0.0,0.0,0.0,1.0,-0.177571579814,0.0362953878939,-0.128453955054,1.21846967915e-07,0.0,0.0,0.0,1.21846967915e-07,0.0,0.0,0.0,1.21846967915e-07,-0.16671305,0.87279185,9.42419065,9e-08,0.0,0.0,0.0,9e-08,0.0,0.0,0.0,9e-08
1539875344509444552,879,1539875344508891336,base_link,-0.0221329312396,-0.0426745367889,-0.768752162923,-0.637737508122,1.0,0.0,0.0,0.0,1.0,0.0,0.0,0.0,1.0,-0.21650275588,0.0758423060179,-0.141440704465,1.21846967915e-07,0.0,0.0,0.0,1.21846967915e-07,0.0,0.0,0.0,1.21846967915e-07,-0.46091255,0.30400615,8.8455983,9e-08,0.0,0.0,0.0,9e-08,0.0,0.0,0.0,9e-08
1539875344953196104,880,1539875344951880936,base_link,-0.0206954959153,-0.0601141402466,-0.76049053215,-0.646229167634,1.0,0.0,0.0,0.0,1.0,0.0,0.0,0.0,1.0,-0.0593662783504,0.0410800538957,0.0378126464784,1.21846967915e-07,0.0,0.0,0.0,1.21846967915e-07,0.0,0.0,0.0,1.21846967915e-07,-0.4903325,0.16671305,9.1005712,9e-08,0.0,0.0,0.0,9e-08,0.0,0.0,0.0,9e-08
1539875345173413608,881,1539875345173164744,base_link,0.000406260378082,-0.0452018207546,-0.766630240659,-0.640495670915,1.0,0.0,0.0,0.0,1.0,0.0,0.0,0.0,1.0,-0.0306685864925,0.038566634059,0.0578080974519,1.21846967915e-07,0.0,0.0,0.0,1.21846967915e-07,0.0,0.0,0.0,1.21846967915e-07,-0.40207265,0.2549729,8.16893945,9e-08,0.0,0.0,0.0,9e-08,0.0,0.0,0.0,9e-08
1539875345578167592,882,1539875345577314696,base_link,0.0241720390873,-0.0315704031927,-0.766788892614,-0.640666696757,1.0,0.0,0.0,0.0,1.0,0.0,0.0,0.0,1.0,-0.0282377377152,0.0544532686472,-0.0459284558892,1.21846967915e-07,0.0,0.0,0.0,1.21846967915e-07,0.0,0.0,0.0,1.21846967915e-07,-0.196133,0.1372931,9.6301303,9e-08,0.0,0.0,0.0,9e-08,0.0,0.0,0.0,9e-08
1539875346004300328,883,1539875346003650664,base_link,0.0132496855419,-0.0636005521414,-0.764633644478,-0.641182349517,1.0,0.0,0.0,0.0,1.0,0.0,0.0,0.0,1.0,-0.0611617900431,0.0413206517696,-0.0325675159693,1.21846967915e-07,0.0,0.0,0.0,1.21846967915e-07,0.0,0.0,0.0,1.21846967915e-07,-0.61781895,0.91201845,9.18883105,9e-08,0.0,0.0,0.0,9e-08,0.0,0.0,0.0,9e-08
1539875346509412264,884,1539875346509001064,base_link,-0.00221691389649,-0.0787681830292,-0.752217159128,-0.654186520916,1.0,0.0,0.0,0.0,1.0,0.0,0.0,0.0,1.0,0.0602487847209,-0.0840993374586,0.0519922599196,1.21846967915e-07,0.0,0.0,0.0,1.21846967915e-07,0.0,0.0,0.0,1.21846967915e-07,-0.392266,-0.32361945,10.65982855,9e-08,0.0,0.0,0.0,9e-08,0.0,0.0,0.0,9e-08
1539875346944413192,885,1539875346942320680,base_link,0.00481643872813,-0.0631103428436,-0.761189524651,-0.64543349317,1.0,0.0,0.0,0.0,1.0,0.0,0.0,0.0,1.0,-0.235986575484,0.0144298002124,-0.112439975142,1.21846967915e-07,0.0,0.0,0.0,1.21846967915e-07,0.0,0.0,0.0,1.21846967915e-07,-0.5099458,0.980665,8.9044382,9e-08,0.0,0.0,0.0,9e-08,0.0,0.0,0.0,9e-08
1539875347360932488,886,1539875347360174376,base_link,0.0620770911397,0.0173081340133,-0.753275976623,-0.654539659834,1.0,0.0,0.0,0.0,1.0,0.0,0.0,0.0,1.0,-0.0592988729477,-0.0773471146822,0.00228684907779,1.21846967915e-07,0.0,0.0,0.0,1.21846967915e-07,0.0,0.0,0.0,1.21846967915e-07,-0.2549729,-0.0784532,10.9638347,9e-08,0.0,0.0,0.0,9e-08,0.0,0.0,0.0,9e-08
1539875347680941672,887,1539875347680432520,base_link,0.0325183316153,-0.00269269453219,-0.768911068732,-0.638522572731,1.0,0.0,0.0,0.0,1.0,0.0,0.0,0.0,1.0,0.319319397211,-0.0686409473419,0.262085825205,1.21846967915e-07,0.0,0.0,0.0,1.21846967915e-07,0.0,0.0,0.0,1.21846967915e-07,-0.392266,-0.5099458,12.6505785,9e-08,0.0,0.0,0.0,9e-08,0.0,0.0,0.0,9e-08
1539875348148470024,888,1539875348147716072,base_link,0.00429518046688,-0.0256916417431,-0.790983228372,-0.611283095958,1.0,0.0,0.0,0.0,1.0,0.0,0.0,0.0,1.0,0.0869962498546,0.0175499096513,-0.053749576211,1.21846967915e-07,0.0,0.0,0.0,1.21846967915e-07,0.0,0.0,0.0,1.21846967915e-07,-0.3726527,0.83356525,12.2583125,9e-08,0.0,0.0,0.0,9e-08,0.0,0.0,0.0,9e-08
1539875348447941320,889,1539875348445925992,base_link,-0.0124388922095,-0.0593165029305,-0.782098113183,-0.620201070458,1.0,0.0,0.0,0.0,1.0,0.0,0.0,0.0,1.0,0.539632797241,0.0619294457138,0.00519776018336,1.21846967915e-07,0.0,0.0,0.0,1.21846967915e-07,0.0,0.0,0.0,1.21846967915e-07,-0.71588545,0.0980665,8.237586,9e-08,0.0,0.0,0.0,9e-08,0.0,0.0,0.0,9e-08
1539875349000188808,890,1539875348999896808,base_link,-0.0142939304958,-0.0671803769331,-0.778372136245,-0.624034692965,1.0,0.0,0.0,0.0,1.0,0.0,0.0,0.0,1.0,0.165575459599,-0.0182905420661,0.0395910553634,1.21846967915e-07,0.0,0.0,0.0,1.21846967915e-07,0.0,0.0,0.0,1.21846967915e-07,-0.55897905,0.4707192,9.83606995,9e-08,0.0,0.0,0.0,9e-08,0.0,0.0,0.0,9e-08
1539875349446421576,891,1539875349446170664,base_link,-0.0560145760482,-0.139805391638,-0.764160367424,-0.627196741539,1.0,0.0,0.0,0.0,1.0,0.0,0.0,0.0,1.0,0.689640402794,0.148400217295,-0.0527277775109,1.21846967915e-07,0.0,0.0,0.0,1.21846967915e-07,0.0,0.0,0.0,1.21846967915e-07,-0.93163175,0.0196133,5.56037055,9e-08,0.0,0.0,0.0,9e-08,0.0,0.0,0.0,9e-08
1539875349847468360,892,1539875349847156712,base_link,-0.0286605023883,-0.106307941307,-0.773240544321,-0.624480790607,1.0,0.0,0.0,0.0,1.0,0.0,0.0,0.0,1.0,-0.692316114902,0.0582001022995,-0.00370603334159,1.21846967915e-07,0.0,0.0,0.0,1.21846967915e-07,0.0,0.0,0.0,1.21846967915e-07,-0.8041453,0.30400615,9.52225715,9e-08,0.0,0.0,0.0,9e-08,0.0,0.0,0.0,9e-08
1539875350151582888,893,1539875350151255016,base_link,0.0249301474856,-0.0596523598475,-0.775104941889,-0.628516040185,1.0,0.0,0.0,0.0,1.0,0.0,0.0,0.0,1.0,-0.422986119986,0.0868316069245,-0.0747589841485,1.21846967915e-07,0.0,0.0,0.0,1.21846967915e-07,0.0,0.0,0.0,1.21846967915e-07,-0.89240515,1.0002783,9.5712904,9e-08,0.0,0.0,0.0,9e-08,0.0,0.0,0.0,9e-08
1539875350384356136,894,1539875350383176872,base_link,0.0488172888802,-0.0576635695395,-0.759229514215,-0.646422717576,1.0,0.0,0.0,0.0,1.0,0.0,0.0,0.0,1.0,-0.0451944731176,0.129647567868,-0.251210361719,1.21846967915e-07,0.0,0.0,0.0,1.21846967915e-07,0.0,0.0,0.0,1.21846967915e-07,-0.89240515,0.8237586,8.85540495,9e-08,0.0,0.0,0.0,9e-08,0.0,0.0,0.0,9e-08
1539875350904478984,895,1539875350904154728,base_link,0.077834010257,-0.0303226986814,-0.750659133015,-0.655387875088,1.0,0.0,0.0,0.0,1.0,0.0,0.0,0.0,1.0,0.0863967612386,-0.0444416888058,0.137417450547,1.21846967915e-07,0.0,0.0,0.0,1.21846967915e-07,0.0,0.0,0.0,1.21846967915e-07,-0.6668522,-0.2157463,8.5513988,9e-08,0.0,0.0,0.0,9e-08,0.0,0.0,0.0,9e-08
1539875351264193384,896,1539875351263864744,base_link,0.0700826772088,-0.0263360110716,-0.768489671573,-0.635467117609,1.0,0.0,0.0,0.0,1.0,0.0,0.0,0.0,1.0,-0.409779697657,-0.0245276801288,0.12518197298,1.21846967915e-07,0.0,0.0,0.0,1.21846967915e-07,0.0,0.0,0.0,1.21846967915e-07,-0.50013915,0.2549729,12.2975391,9e-08,0.0,0.0,0.0,9e-08,0.0,0.0,0.0,9e-08
1539875351620354984,897,1539875351619806024,base_link,0.122288874239,0.0460073558569,-0.781445129563,-0.610141183601,1.0,0.0,0.0,0.0,1.0,0.0,0.0,0.0,1.0,-0.0897588431835,0.0349107645452,-0.0342962369323,1.21846967915e-07,0.0,0.0,0.0,1.21846967915e-07,0.0,0.0,0.0,1.21846967915e-07,-0.3138128,0.99047165,11.4933938,9e-08,0.0,0.0,0.0,9e-08,0.0,0.0,0.0,9e-08
1539875352106533544,898,1539875352106266280,base_link,0.0613509443556,-0.0206621004243,-0.779359148764,-0.623224242525,1.0,0.0,0.0,0.0,1.0,0.0,0.0,0.0,1.0,0.473064810038,-0.0554334707558,0.156173318624,1.21846967915e-07,0.0,0.0,0.0,1.21846967915e-07,0.0,0.0,0.0,1.21846967915e-07,-0.51975245,-0.30400615,10.85596155,9e-08,0.0,0.0,0.0,9e-08,0.0,0.0,0.0,9e-08
1539875352408180168,899,1539875352407917160,base_link,0.0265570851443,-0.0536712075715,-0.796044775742,-0.602268077952,1.0,0.0,0.0,0.0,1.0,0.0,0.0,0.0,1.0,0.139844641089,-0.0484008416533,0.156365916133,1.21846967915e-07,0.0,0.0,0.0,1.21846967915e-07,0.0,0.0,0.0,1.21846967915e-07,-0.4314926,0.6864655,12.32695905,9e-08,0.0,0.0,0.0,9e-08,0.0,0.0,0.0,9e-08
1539875352796774280,900,1539875352792554984,base_link,0.0129511081299,-0.0771232301087,-0.786836278222,-0.612187019995,1.0,0.0,0.0,0.0,1.0,0.0,0.0,0.0,1.0,0.303105920553,0.0413880124688,-0.171711668372,1.21846967915e-07,0.0,0.0,0.0,1.21846967915e-07,0.0,0.0,0.0,1.21846967915e-07,-0.2745862,0.79433865,9.81645665,9e-08,0.0,0.0,0.0,9e-08,0.0,0.0,0.0,9e-08
1539875353039053096,901,1539875353038774888,base_link,-0.0145730422601,-0.108718773508,-0.771254316293,-0.627004493067,1.0,0.0,0.0,0.0,1.0,0.0,0.0,0.0,1.0,0.30701443553,-0.011925346218,-0.0843435972929,1.21846967915e-07,0.0,0.0,0.0,1.21846967915e-07,0.0,0.0,0.0,1.21846967915e-07,-0.3726527,0.2353596,11.79739995,9e-08,0.0,0.0,0.0,9e-08,0.0,0.0,0.0,9e-08
1539875353476365960,902,1539875353475567624,base_link,-0.0504766405817,-0.154213364258,-0.74891567271,-0.642491760422,1.0,0.0,0.0,0.0,1.0,0.0,0.0,0.0,1.0,0.289011538029,0.0816178023815,-0.102914460003,1.21846967915e-07,0.0,0.0,0.0,1.21846967915e-07,0.0,0.0,0.0,1.21846967915e-07,-0.5295591,1.12891015809e-15,9.218251,9e-08,0.0,0.0,0.0,9e-08,0.0,0.0,0.0,9e-08
1539875353908198728,903,1539875353907876872,base_link,-0.0784916853506,-0.159985933074,-0.76078813673,-0.624055260021,1.0,0.0,0.0,0.0,1.0,0.0,0.0,0.0,1.0,-0.155268371105,-0.148530006409,0.122274771333,1.21846967915e-07,0.0,0.0,0.0,1.21846967915e-07,0.0,0.0,0.0,1.21846967915e-07,-0.196133,0.40207265,13.1212977,9e-08,0.0,0.0,0.0,9e-08,0.0,0.0,0.0,9e-08
1539875354400018280,904,1539875354399611880,base_link,-0.0700763067718,-0.167726525172,-0.715173041288,-0.674896025324,1.0,0.0,0.0,0.0,1.0,0.0,0.0,0.0,1.0,0.145198479295,-0.0963788554072,-0.394824713469,1.21846967915e-07,0.0,0.0,0.0,1.21846967915e-07,0.0,0.0,0.0,1.21846967915e-07,-0.87279185,1.17935082473e-15,9.6301303,9e-08,0.0,0.0,0.0,9e-08,0.0,0.0,0.0,9e-08
1539875354792902664,905,1539875354792593512,base_link,-0.119545968197,-0.175026180656,-0.68664691427,-0.695406796556,1.0,0.0,0.0,0.0,1.0,0.0,0.0,0.0,1.0,0.0979025438428,-0.175961539149,0.0474831685424,1.21846967915e-07,0.0,0.0,0.0,1.21846967915e-07,0.0,0.0,0.0,1.21846967915e-07,-0.16671305,0.30400615,15.5337336,9e-08,0.0,0.0,0.0,9e-08,0.0,0.0,0.0,9e-08
1539875355235690888,906,1539875355235382920,base_link,-0.108105136124,-0.144708054049,-0.646463202163,-0.741254468375,1.0,0.0,0.0,0.0,1.0,0.0,0.0,0.0,1.0,0.00434877537191,-0.0898201689124,-0.385410875082,1.21846967915e-07,0.0,0.0,0.0,1.21846967915e-07,0.0,0.0,0.0,1.21846967915e-07,-0.08825985,-0.392266,9.3359308,9e-08,0.0,0.0,0.0,9e-08,0.0,0.0,0.0,9e-08
1539875355653007912,907,1539875355652454280,base_link,-0.158396317965,-0.150322213646,-0.624495082151,-0.749879810975,1.0,0.0,0.0,0.0,1.0,0.0,0.0,0.0,1.0,0.205363586545,-0.145632654428,0.0721261426806,1.21846967915e-07,0.0,0.0,0.0,1.21846967915e-07,0.0,0.0,0.0,1.21846967915e-07,-0.3530394,0.75511205,13.3174307,9e-08,0.0,0.0,0.0,9e-08,0.0,0.0,0.0,9e-08
1539875355899178024,908,1539875355898825416,base_link,-0.178558218809,-0.156970486011,-0.614643348352,-0.7521241808,1.0,0.0,0.0,0.0,1.0,0.0,0.0,0.0,1.0,-0.0157479941845,-0.0539800003171,-0.167835399508,1.21846967915e-07,0.0,0.0,0.0,1.21846967915e-07,0.0,0.0,0.0,1.21846967915e-07,-0.1569064,1.02969825,8.40429905,9e-08,0.0,0.0,0.0,9e-08,0.0,0.0,0.0,9e-08
1539875356308567688,909,1539875356308262568,base_link,-0.232161515947,-0.201529896611,-0.550400099524,-0.776238662866,1.0,0.0,0.0,0.0,1.0,0.0,0.0,0.0,1.0,0.313071429729,-0.0575831457973,-0.251984804869,1.21846967915e-07,0.0,0.0,0.0,1.21846967915e-07,0.0,0.0,0.0,1.21846967915e-07,-0.196133,0.196133,13.4743371,9e-08,0.0,0.0,0.0,9e-08,0.0,0.0,0.0,9e-08
1539875356727524456,910,1539875356727149928,base_link,-0.288487206452,-0.222541232748,-0.50265287485,-0.783958301726,1.0,0.0,0.0,0.0,1.0,0.0,0.0,0.0,1.0,0.526163578033,-0.140337511897,-0.225230038166,1.21846967915e-07,0.0,0.0,0.0,1.21846967915e-07,0.0,0.0,0.0,1.21846967915e-07,-0.28439285,0.5099458,8.46313895,9e-08,0.0,0.0,0.0,9e-08,0.0,0.0,0.0,9e-08
1539875357144251400,911,1539875357143647432,base_link,-0.319215515,-0.22334198393,-0.435569920412,-0.811479302034,1.0,0.0,0.0,0.0,1.0,0.0,0.0,0.0,1.0,-0.0233612395823,-0.244098484516,-0.32945433259,1.21846967915e-07,0.0,0.0,0.0,1.21846967915e-07,0.0,0.0,0.0,1.21846967915e-07,0.34323275,0.8237586,8.5513988,9e-08,0.0,0.0,0.0,9e-08,0.0,0.0,0.0,9e-08
1539875357465537608,912,1539875357465113320,base_link,-0.343192914623,-0.208149663776,-0.369525971164,-0.838059005952,1.0,0.0,0.0,0.0,1.0,0.0,0.0,0.0,1.0,-0.00846488028765,-0.32061111927,-0.306913584471,1.21846967915e-07,0.0,0.0,0.0,1.21846967915e-07,0.0,0.0,0.0,1.21846967915e-07,0.59820565,0.91201845,13.13110435,9e-08,0.0,0.0,0.0,9e-08,0.0,0.0,0.0,9e-08
1539875357903655592,913,1539875357903400072,base_link,-0.361940086837,-0.16915764001,-0.282366144683,-0.872155047399,1.0,0.0,0.0,0.0,1.0,0.0,0.0,0.0,1.0,-0.185569345951,-0.341250568628,-0.312607377768,1.21846967915e-07,0.0,0.0,0.0,1.21846967915e-07,0.0,0.0,0.0,1.21846967915e-07,0.784532,1.10815145,18.2599823,9e-08,0.0,0.0,0.0,9e-08,0.0,0.0,0.0,9e-08
1539875358373925096,914,1539875358371927432,base_link,-0.394825326171,-0.105834218566,-0.181428519648,-0.894424827614,1.0,0.0,0.0,0.0,1.0,0.0,0.0,0.0,1.0,-0.0456411167979,-0.487466663122,-0.000640436541289,1.21846967915e-07,0.0,0.0,0.0,1.21846967915e-07,0.0,0.0,0.0,1.21846967915e-07,0.7649187,-0.3530394,17.6127434,9e-08,0.0,0.0,0.0,9e-08,0.0,0.0,0.0,9e-08
1539875358786833192,915,1539875358786251176,base_link,-0.358197811581,-0.0249285524948,-0.136442797186,-0.923285577785,1.0,0.0,0.0,0.0,1.0,0.0,0.0,0.0,1.0,-0.179220765829,-0.235205322504,-0.36429592967,1.21846967915e-07,0.0,0.0,0.0,1.21846967915e-07,0.0,0.0,0.0,1.21846967915e-07,0.89240515,2.4516625,15.50431365,9e-08,0.0,0.0,0.0,9e-08,0.0,0.0,0.0,9e-08
1539875359062829448,916,1539875359062558664,base_link,-0.339504398345,-0.00836032286153,-0.0852549239412,-0.936695503592,1.0,0.0,0.0,0.0,1.0,0.0,0.0,0.0,1.0,-0.152356013656,-0.19506894052,-0.325046151876,1.21846967915e-07,0.0,0.0,0.0,1.21846967915e-07,0.0,0.0,0.0,1.21846967915e-07,-0.196133,1.0591182,11.07170785,9e-08,0.0,0.0,0.0,9e-08,0.0,0.0,0.0,9e-08
1539875359582466632,917,1539875359581929576,base_link,-0.270348247433,0.0339201836778,-0.010903370506,-0.962103093624,1.0,0.0,0.0,0.0,1.0,0.0,0.0,0.0,1.0,-0.434926092625,-0.182735309005,-0.1378249228,1.21846967915e-07,0.0,0.0,0.0,1.21846967915e-07,0.0,0.0,0.0,1.21846967915e-07,-0.77472535,0.85317855,11.8856598,9e-08,0.0,0.0,0.0,9e-08,0.0,0.0,0.0,9e-08
1539875359988516776,918,1539875359987920872,base_link,-0.124609741501,0.0386973828051,0.0373558109288,-0.990746924435,1.0,0.0,0.0,0.0,1.0,0.0,0.0,0.0,1.0,-0.801765263081,0.100233100355,-0.265626609325,1.21846967915e-07,0.0,0.0,0.0,1.21846967915e-07,0.0,0.0,0.0,1.21846967915e-07,-0.53936575,1.2944778,13.6116302,9e-08,0.0,0.0,0.0,9e-08,0.0,0.0,0.0,9e-08
1539875360458388456,919,1539875360457084456,base_link,0.0147121033966,0.0061339300211,0.0938268569116,-0.995460923311,1.0,0.0,0.0,0.0,1.0,0.0,0.0,0.0,1.0,-0.423546671867,0.0506914593279,-0.119563296437,1.21846967915e-07,0.0,0.0,0.0,1.21846967915e-07,0.0,0.0,0.0,1.21846967915e-07,-1.0591182,0.3726527,3.92266,9e-08,0.0,0.0,0.0,9e-08,0.0,0.0,0.0,9e-08
1539875360903617032,920,1539875360903273256,base_link,0.116190453987,-0.0159124806669,0.107420904104,-0.98727266787,1.0,0.0,0.0,0.0,1.0,0.0,0.0,0.0,1.0,-0.866739153862,-0.0168846845627,0.0578945092857,1.21846967915e-07,0.0,0.0,0.0,1.21846967915e-07,0.0,0.0,0.0,1.21846967915e-07,-1.12776475,-0.50013915,3.7853669,9e-08,0.0,0.0,0.0,9e-08,0.0,0.0,0.0,9e-08
1539875361346004584,921,1539875361345601736,base_link,0.184870256492,-0.0272798333442,0.0616629709318,-0.980447080149,1.0,0.0,0.0,0.0,1.0,0.0,0.0,0.0,1.0,-0.207659378648,0.0547201633453,0.193017199636,1.21846967915e-07,0.0,0.0,0.0,1.21846967915e-07,0.0,0.0,0.0,1.21846967915e-07,-1.02969825,0.36284605,7.73744685,9e-08,0.0,0.0,0.0,9e-08,0.0,0.0,0.0,9e-08
1539875361778884968,922,1539875361778560392,base_link,0.165980446132,-0.0490269400689,0.0279952810098,-0.98451161237,1.0,0.0,0.0,0.0,1.0,0.0,0.0,0.0,1.0,0.302675575018,0.0623792894185,0.238856270909,1.21846967915e-07,0.0,0.0,0.0,1.21846967915e-07,0.0,0.0,0.0,1.21846967915e-07,-0.8237586,-0.3726527,5.79573015,9e-08,0.0,0.0,0.0,9e-08,0.0,0.0,0.0,9e-08
1539875362182155400,923,1539875362179116552,base_link,0.132301573651,-0.059772762373,-0.0216402948026,-0.989168948223,1.0,0.0,0.0,0.0,1.0,0.0,0.0,0.0,1.0,0.0647397264838,-0.014529440552,0.19801877439,1.21846967915e-07,0.0,0.0,0.0,1.21846967915e-07,0.0,0.0,0.0,1.21846967915e-07,-0.7256921,0.59820565,10.6107953,9e-08,0.0,0.0,0.0,9e-08,0.0,0.0,0.0,9e-08
1539875362557761000,924,1539875362556472040,base_link,0.12307024664,-0.059059002039,-0.0534797797807,-0.989194450967,1.0,0.0,0.0,0.0,1.0,0.0,0.0,0.0,1.0,0.0121631482616,-0.0194896757603,0.0942253693938,1.21846967915e-07,0.0,0.0,0.0,1.21846967915e-07,0.0,0.0,0.0,1.21846967915e-07,-0.6864655,0.69627215,10.3362091,9e-08,0.0,0.0,0.0,9e-08,0.0,0.0,0.0,9e-08
1539875362878167208,925,1539875362873851496,base_link,0.110555609806,-0.0541992176559,-0.0631166211498,-0.990381842564,1.0,0.0,0.0,0.0,1.0,0.0,0.0,0.0,1.0,0.219551071525,-0.0592164508998,0.0418001823127,1.21846967915e-07,0.0,0.0,0.0,1.21846967915e-07,0.0,0.0,0.0,1.21846967915e-07,-0.4511059,0.0980665,9.65955025,9e-08,0.0,0.0,0.0,9e-08,0.0,0.0,0.0,9e-08
1539875363224773896,926,1539875363224284840,base_link,0.0671558294035,-0.0423745906188,-0.0815065031334,-0.993504493495,1.0,0.0,0.0,0.0,1.0,0.0,0.0,0.0,1.0,0.149972334504,-0.096971437335,0.166900262237,1.21846967915e-07,0.0,0.0,0.0,1.21846967915e-07,0.0,0.0,0.0,1.21846967915e-07,-0.28439285,0.0784532,11.83662655,9e-08,0.0,0.0,0.0,9e-08,0.0,0.0,0.0,9e-08
1539875363702231048,927,1539875363701568072,base_link,0.0231800910376,-0.0197712503238,-0.125317264121,-0.991648810998,1.0,0.0,0.0,0.0,1.0,0.0,0.0,0.0,1.0,0.0997706353664,-0.0606410466135,0.109020680189,1.21846967915e-07,0.0,0.0,0.0,1.21846967915e-07,0.0,0.0,0.0,1.21846967915e-07,-0.0196133,0.6668522,13.8273765,9e-08,0.0,0.0,0.0,9e-08,0.0,0.0,0.0,9e-08
1539875364122035432,928,1539875364121350312,base_link,0.00442182651641,-0.0125645985775,-0.123651801046,-0.992236267434,1.0,0.0,0.0,0.0,1.0,0.0,0.0,0.0,1.0,0.112946666777,-0.0628837421536,-0.0647994875908,1.21846967915e-07,0.0,0.0,0.0,1.21846967915e-07,0.0,0.0,0.0,1.21846967915e-07,0.02941995,0.81395195,12.5917386,9e-08,0.0,0.0,0.0,9e-08,0.0,0.0,0.0,9e-08
1539875364462809352,929,1539875364462372808,base_link,-0.00943298817848,-0.00556411901007,-0.110590673378,-0.993805696439,1.0,0.0,0.0,0.0,1.0,0.0,0.0,0.0,1.0,0.189922064543,-0.0101040173322,-0.064208842814,1.21846967915e-07,0.0,0.0,0.0,1.21846967915e-07,0.0,0.0,0.0,1.21846967915e-07,-0.16671305,0.28439285,11.77778665,9e-08,0.0,0.0,0.0,9e-08,0.0,0.0,0.0,9e-08
1539875364832307464,930,1539875364831583464,base_link,-0.0446676201346,-0.00633535689585,-0.107237538205,-0.993209332097,1.0,0.0,0.0,0.0,1.0,0.0,0.0,0.0,1.0,-0.0336904153228,-0.0128177078441,-0.011245476082,1.21846967915e-07,0.0,0.0,0.0,1.21846967915e-07,0.0,0.0,0.0,1.21846967915e-07,-0.0392266,0.42168595,10.24794925,9e-08,0.0,0.0,0.0,9e-08,0.0,0.0,0.0,9e-08
1539875365151518344,931,1539875365151056680,base_link,-0.0567340364335,-0.0128995479809,-0.106422612421,-0.992617286943,1.0,0.0,0.0,0.0,1.0,0.0,0.0,0.0,1.0,0.263403236866,0.0857661068439,-0.00843035057187,1.21846967915e-07,0.0,0.0,0.0,1.21846967915e-07,0.0,0.0,0.0,1.21846967915e-07,-0.26477955,0.12748645,8.01203305,9e-08,0.0,0.0,0.0,9e-08,0.0,0.0,0.0,9e-08
1539875365624593064,932,1539875365624091336,base_link,-0.0465838533945,-0.0237636380904,-0.114341615903,-0.992064125438,1.0,0.0,0.0,0.0,1.0,0.0,0.0,0.0,1.0,-0.237967222929,0.0367503874004,-0.0603668913245,1.21846967915e-07,0.0,0.0,0.0,1.21846967915e-07,0.0,0.0,0.0,1.21846967915e-07,-0.65704555,0.95124505,10.16949605,9e-08,0.0,0.0,0.0,9e-08,0.0,0.0,0.0,9e-08
1539875365998369576,933,1539875365998034824,base_link,0.00268367488436,-0.031898546999,-0.0975807440494,-0.994712661515,1.0,0.0,0.0,0.0,1.0,0.0,0.0,0.0,1.0,-0.305108547211,0.131905302405,-0.0936219096184,1.21846967915e-07,0.0,0.0,0.0,1.21846967915e-07,0.0,0.0,0.0,1.21846967915e-07,-0.4707192,0.97085835,12.552512,9e-08,0.0,0.0,0.0,9e-08,0.0,0.0,0.0,9e-08
1539875366463222408,934,1539875366462922568,base_link,0.0142866279859,-0.0344114948996,-0.0719198143728,-0.99671424269,1.0,0.0,0.0,0.0,1.0,0.0,0.0,0.0,1.0,0.0780503228307,-0.0219275765121,0.0458938218653,1.21846967915e-07,0.0,0.0,0.0,1.21846967915e-07,0.0,0.0,0.0,1.21846967915e-07,-0.6276256,0.4707192,11.54242705,9e-08,0.0,0.0,0.0,9e-08,0.0,0.0,0.0,9e-08
1539875366748929288,935,1539875366748679496,base_link,0.00697324142059,-0.0397025389989,-0.0632790228164,-0.997181451679,1.0,0.0,0.0,0.0,1.0,0.0,0.0,0.0,1.0,0.153541877866,0.00245638377964,-0.114167585969,1.21846967915e-07,0.0,0.0,0.0,1.21846967915e-07,0.0,0.0,0.0,1.21846967915e-07,-0.4707192,0.00980665,6.3939358,9e-08,0.0,0.0,0.0,9e-08,0.0,0.0,0.0,9e-08
1539875367138484680,936,1539875367138025832,base_link,-0.0542249741502,-0.0467572492119,-0.0644844859209,-0.995346755106,1.0,0.0,0.0,0.0,1.0,0.0,0.0,0.0,1.0,0.203092738986,0.0767018571496,0.149795934558,1.21846967915e-07,0.0,0.0,0.0,1.21846967915e-07,0.0,0.0,0.0,1.21846967915e-07,-0.4118793,0.2157463,6.9627215,9e-08,0.0,0.0,0.0,9e-08,0.0,0.0,0.0,9e-08
1539875367570712552,937,1539875367570029128,base_link,-0.0382441166131,-0.0540832459608,-0.0804489367827,-0.994555357243,1.0,0.0,0.0,0.0,1.0,0.0,0.0,0.0,1.0,-0.156456455588,0.066685475409,-0.041166678071,1.21846967915e-07,0.0,0.0,0.0,1.21846967915e-07,0.0,0.0,0.0,1.21846967915e-07,-0.4511059,0.9414384,8.1002929,9e-08,0.0,0.0,0.0,9e-08,0.0,0.0,0.0,9e-08
1539875367921740168,938,1539875367921285704,base_link,0.0164635335127,-0.0512305104513,-0.0775302374636,-0.995536764335,1.0,0.0,0.0,0.0,1.0,0.0,0.0,0.0,1.0,-0.50652295351,-0.0746744349599,0.0237176716328,1.21846967915e-07,0.0,0.0,0.0,1.21846967915e-07,0.0,0.0,0.0,1.21846967915e-07,-0.6276256,0.3726527,11.54242705,9e-08,0.0,0.0,0.0,9e-08,0.0,0.0,0.0,9e-08
1539875368348512776,939,1539875368348137096,base_link,0.0581154040082,-0.0404951701593,-0.0840123219948,-0.993943997801,1.0,0.0,0.0,0.0,1.0,0.0,0.0,0.0,1.0,-0.177256703377,-0.0614452324808,-0.0627440661192,1.21846967915e-07,0.0,0.0,0.0,1.21846967915e-07,0.0,0.0,0.0,1.21846967915e-07,-0.42168595,0.9218251,14.4746154,9e-08,0.0,0.0,0.0,9e-08,0.0,0.0,0.0,9e-08
1539875368859532040,940,1539875368859216232,base_link,-0.0298610275416,-0.0412306004028,-0.0450993592041,-0.997684521492,1.0,0.0,0.0,0.0,1.0,0.0,0.0,0.0,1.0,0.324987560511,-0.0641469806433,-0.153852760792,1.21846967915e-07,0.0,0.0,0.0,1.21846967915e-07,0.0,0.0,0.0,1.21846967915e-07,-0.8237586,0.196133,12.6701918,9e-08,0.0,0.0,0.0,9e-08,0.0,0.0,0.0,9e-08
1539875369382758824,941,1539875369382462952,base_link,-0.140442587955,-0.0512160999848,-0.0190173027382,-0.988580362331,1.0,0.0,0.0,0.0,1.0,0.0,0.0,0.0,1.0,-0.110229104757,-0.0497779548168,-0.147278040648,1.21846967915e-07,0.0,0.0,0.0,1.21846967915e-07,0.0,0.0,0.0,1.21846967915e-07,-0.77472535,0.65704555,8.2571993,9e-08,0.0,0.0,0.0,9e-08,0.0,0.0,0.0,9e-08
1539875369742050792,942,1539875369741769640,base_link,-0.0932067672935,-0.0459964309759,-0.00782562401292,-0.994552958106,1.0,0.0,0.0,0.0,1.0,0.0,0.0,0.0,1.0,-0.353388220072,0.00174402166158,-0.0502522997558,1.21846967915e-07,0.0,0.0,0.0,1.21846967915e-07,0.0,0.0,0.0,1.21846967915e-07,-0.6080123,0.79433865,12.8467115,9e-08,0.0,0.0,0.0,9e-08,0.0,0.0,0.0,9e-08
1539875370204915272,943,1539875370204493832,base_link,-0.0991172845203,-0.0564672414558,0.0118192003914,-0.993401993683,1.0,0.0,0.0,0.0,1.0,0.0,0.0,0.0,1.0,-0.0215660855174,0.00472451653332,-0.0797028690577,1.21846967915e-07,0.0,0.0,0.0,1.21846967915e-07,0.0,0.0,0.0,1.21846967915e-07,-0.77472535,0.3726527,5.7663102,9e-08,0.0,0.0,0.0,9e-08,0.0,0.0,0.0,9e-08
1539875370550387656,944,1539875370550041608,base_link,-0.0929862101086,-0.0615899897137,0.0178650588254,-0.993600059164,1.0,0.0,0.0,0.0,1.0,0.0,0.0,0.0,1.0,0.00985604804009,-0.0164841972291,0.00936139840633,1.21846967915e-07,0.0,0.0,0.0,1.21846967915e-07,0.0,0.0,0.0,1.21846967915e-07,-0.9610517,0.1569064,9.7281968,9e-08,0.0,0.0,0.0,9e-08,0.0,0.0,0.0,9e-08
1539875371039090472,945,1539875371038518504,base_link,-0.0801951717093,-0.061409344856,-0.0155079821818,-0.994764861305,1.0,0.0,0.0,0.0,1.0,0.0,0.0,0.0,1.0,-0.398940294981,0.0443759895861,0.00336486985907,1.21846967915e-07,0.0,0.0,0.0,1.21846967915e-07,0.0,0.0,0.0,1.21846967915e-07,-0.6276256,1.4121576,8.48275225,9e-08,0.0,0.0,0.0,9e-08,0.0,0.0,0.0,9e-08
1539875371390484168,946,1539875371390174280,base_link,-0.00662305099246,-0.0672786169036,-0.0130163670374,-0.997627333774,1.0,0.0,0.0,0.0,1.0,0.0,0.0,0.0,1.0,-0.161970570683,0.0167025458068,0.00994534790516,1.21846967915e-07,0.0,0.0,0.0,1.21846967915e-07,0.0,0.0,0.0,1.21846967915e-07,-0.14709975,0.48052585,10.48330885,9e-08,0.0,0.0,0.0,9e-08,0.0,0.0,0.0,9e-08
1539875371741827848,947,1539875371741373576,base_link,0.0026505245673,-0.0687620868556,0.00154400662765,-0.997628370775,1.0,0.0,0.0,0.0,1.0,0.0,0.0,0.0,1.0,0.117236159742,-0.00743523333222,-0.0997565239668,1.21846967915e-07,0.0,0.0,0.0,1.21846967915e-07,0.0,0.0,0.0,1.21846967915e-07,-0.53936575,0.34323275,9.3555441,9e-08,0.0,0.0,0.0,9e-08,0.0,0.0,0.0,9e-08
1539875372179428616,948,1539875372179177160,base_link,-0.102696548764,-0.0558890697507,0.0278001489517,-0.992752226123,1.0,0.0,0.0,0.0,1.0,0.0,0.0,0.0,1.0,0.788407742977,-0.119743920863,-0.0542253404856,1.21846967915e-07,0.0,0.0,0.0,1.21846967915e-07,0.0,0.0,0.0,1.21846967915e-07,-0.36284605,0.2941995,13.9058297,9e-08,0.0,0.0,0.0,9e-08,0.0,0.0,0.0,9e-08
1539875372634240584,949,1539875372633783496,base_link,-0.265533646429,-0.0180965346397,0.0396580035577,-0.963115590571,1.0,0.0,0.0,0.0,1.0,0.0,0.0,0.0,1.0,0.615624904633,-0.199405699968,0.118763826787,1.21846967915e-07,0.0,0.0,0.0,1.21846967915e-07,0.0,0.0,0.0,1.21846967915e-07,-0.1569064,0.24516625,17.063571,9e-08,0.0,0.0,0.0,9e-08,0.0,0.0,0.0,9e-08
1539875372888203528,950,1539875372887911656,base_link,-0.31491304413,0.00911465288796,0.032169159889,-0.948531413761,1.0,0.0,0.0,0.0,1.0,0.0,0.0,0.0,1.0,0.284362137318,-0.150147199631,0.11491265893,1.21846967915e-07,0.0,0.0,0.0,1.21846967915e-07,0.0,0.0,0.0,1.21846967915e-07,-0.20593965,0.30400615,11.79739995,9e-08,0.0,0.0,0.0,9e-08,0.0,0.0,0.0,9e-08
1539875373285106472,951,1539875373283151496,base_link,-0.381650899741,0.0243432672256,0.0579747414015,-0.922165346035,1.0,0.0,0.0,0.0,1.0,0.0,0.0,0.0,1.0,-0.0523176975548,-0.065282009542,-0.320960611105,1.21846967915e-07,0.0,0.0,0.0,1.21846967915e-07,0.0,0.0,0.0,1.21846967915e-07,-0.0588399,1.57887065,7.20788775,9e-08,0.0,0.0,0.0,9e-08,0.0,0.0,0.0,9e-08
1539875373754694792,952,1539875373754161384,base_link,-0.374871228101,0.0303862082053,0.174179584256,-0.910060279938,1.0,0.0,0.0,0.0,1.0,0.0,0.0,0.0,1.0,0.0978940725327,-0.327154040337,-0.364368498325,1.21846967915e-07,0.0,0.0,0.0,1.21846967915e-07,0.0,0.0,0.0,1.21846967915e-07,0.30400615,0.53936575,14.42558215,9e-08,0.0,0.0,0.0,9e-08,0.0,0.0,0.0,9e-08
1539875374227702888,953,1539875374227511272,base_link,-0.367242405982,0.0840644126601,0.265796625354,-0.887365958172,1.0,0.0,0.0,0.0,1.0,0.0,0.0,0.0,1.0,-0.249518841505,-0.286363512278,-0.396028190851,1.21846967915e-07,0.0,0.0,0.0,1.21846967915e-07,0.0,0.0,0.0,1.21846967915e-07,-0.1569064,1.176798,12.1014061,9e-08,0.0,0.0,0.0,9e-08,0.0,0.0,0.0,9e-08
1539875374560263752,954,1539875374559927368,base_link,-0.360038337275,0.12595689969,0.333937523099,-0.861970408877,1.0,0.0,0.0,0.0,1.0,0.0,0.0,0.0,1.0,0.507284104824,-0.433447986841,-0.0426956489682,1.21846967915e-07,0.0,0.0,0.0,1.21846967915e-07,0.0,0.0,0.0,1.21846967915e-07,-0.4707192,-1.0591182,14.4942287,9e-08,0.0,0.0,0.0,9e-08,0.0,0.0,0.0,9e-08
1539875374963379176,955,1539875374963105192,base_link,-0.335304060827,0.193968930965,0.353495949997,-0.85146218586,1.0,0.0,0.0,0.0,1.0,0.0,0.0,0.0,1.0,-0.161485731602,-0.210824489594,-0.0912784636021,1.21846967915e-07,0.0,0.0,0.0,1.21846967915e-07,0.0,0.0,0.0,1.21846967915e-07,0.14709975,1.67693715,11.81701325,9e-08,0.0,0.0,0.0,9e-08,0.0,0.0,0.0,9e-08
1539875375426943624,956,1539875375426452424,base_link,-0.320509459457,0.176155909222,0.45144056572,-0.813906749982,1.0,0.0,0.0,0.0,1.0,0.0,0.0,0.0,1.0,0.0607662461698,-0.111403152347,-0.459591478109,1.21846967915e-07,0.0,0.0,0.0,1.21846967915e-07,0.0,0.0,0.0,1.21846967915e-07,0.0196133,0.51975245,9.05153795,9e-08,0.0,0.0,0.0,9e-08,0.0,0.0,0.0,9e-08
1539875375784828040,957,1539875375784229864,base_link,-0.327110820455,0.201247281012,0.504866371014,-0.773051091743,1.0,0.0,0.0,0.0,1.0,0.0,0.0,0.0,1.0,0.0772950425744,-0.304906964302,-0.188362553716,1.21846967915e-07,0.0,0.0,0.0,1.21846967915e-07,0.0,0.0,0.0,1.21846967915e-07,0.08825985,0.28439285,9.93413645,9e-08,0.0,0.0,0.0,9e-08,0.0,0.0,0.0,9e-08
1539875376162398344,958,1539875376162152264,base_link,-0.297004974654,0.229468179775,0.55785912188,-0.740219967062,1.0,0.0,0.0,0.0,1.0,0.0,0.0,0.0,1.0,0.00266495719552,-0.312297731638,-0.264741957188,1.21846967915e-07,0.0,0.0,0.0,1.21846967915e-07,0.0,0.0,0.0,1.21846967915e-07,0.2157463,0.87279185,14.13138265,9e-08,0.0,0.0,0.0,9e-08,0.0,0.0,0.0,9e-08
1539875376473991240,959,1539875376473444648,base_link,-0.309655233178,0.280904768376,0.594344931798,-0.686993631496,1.0,0.0,0.0,0.0,1.0,0.0,0.0,0.0,1.0,0.552961170673,-0.33775049448,-0.24479906261,1.21846967915e-07,0.0,0.0,0.0,1.21846967915e-07,0.0,0.0,0.0,1.21846967915e-07,0.4903325,1.2552512,13.2389775,9e-08,0.0,0.0,0.0,9e-08,0.0,0.0,0.0,9e-08
1539875376919840488,960,1539875376919519528,base_link,0.267765981322,-0.282709825805,-0.675340639971,0.626331823911,1.0,0.0,0.0,0.0,1.0,0.0,0.0,0.0,1.0,-0.578942656517,-0.286949366331,-0.343967139721,1.21846967915e-07,0.0,0.0,0.0,1.21846967915e-07,0.0,0.0,0.0,1.21846967915e-07,1.3140911,1.1964113,13.66066345,9e-08,0.0,0.0,0.0,9e-08,0.0,0.0,0.0,9e-08
1539875377349222696,961,1539875377347547112,base_link,0.193121695862,-0.238298902519,-0.757332258175,0.576511486766,1.0,0.0,0.0,0.0,1.0,0.0,0.0,0.0,1.0,-0.320058524609,-0.253311634064,-0.353679597378,1.21846967915e-07,0.0,0.0,0.0,1.21846967915e-07,0.0,0.0,0.0,1.21846967915e-07,0.55897905,0.7649187,13.8862164,9e-08,0.0,0.0,0.0,9e-08,0.0,0.0,0.0,9e-08
1539875377738212616,962,1539875377737898088,base_link,0.139745159725,-0.206791609478,-0.810082264878,0.53054240614,1.0,0.0,0.0,0.0,1.0,0.0,0.0,0.0,1.0,-0.268381357193,-0.25774204731,-0.236509129405,1.21846967915e-07,0.0,0.0,0.0,1.21846967915e-07,0.0,0.0,0.0,1.21846967915e-07,0.12748645,0.57859235,14.24906245,9e-08,0.0,0.0,0.0,9e-08,0.0,0.0,0.0,9e-08
1539875378075706472,963,1539875378074812200,base_link,0.0755793098699,-0.152276683156,-0.842532041915,0.511115777523,1.0,0.0,0.0,0.0,1.0,0.0,0.0,0.0,1.0,-0.564858913422,-0.189579620957,-0.0822465792298,1.21846967915e-07,0.0,0.0,0.0,1.21846967915e-07,0.0,0.0,0.0,1.21846967915e-07,-0.16671305,0.2353596,7.649187,9e-08,0.0,0.0,0.0,9e-08,0.0,0.0,0.0,9e-08
1539875378568832136,964,1539875378559485608,base_link,-0.00113760334444,-0.0473497986887,-0.875768439689,0.480402271505,1.0,0.0,0.0,0.0,1.0,0.0,0.0,0.0,1.0,-0.37581384182,0.0250841341913,-0.287721008062,1.21846967915e-07,0.0,0.0,0.0,1.21846967915e-07,0.0,0.0,0.0,1.21846967915e-07,-0.4118793,0.6864655,11.1991943,9e-08,0.0,0.0,0.0,9e-08,0.0,0.0,0.0,9e-08
1539875378945981160,965,1539875378945571656,base_link,-0.0448354705631,0.0308557999307,-0.880750808118,0.470442041264,1.0,0.0,0.0,0.0,1.0,0.0,0.0,0.0,1.0,-0.459963142872,0.0255438387394,0.150269195437,1.21846967915e-07,0.0,0.0,0.0,1.21846967915e-07,0.0,0.0,0.0,1.21846967915e-07,-0.79433865,0.4314926,7.58054045,9e-08,0.0,0.0,0.0,9e-08,0.0,0.0,0.0,9e-08
1539875379391847016,966,1539875379391466504,base_link,-0.0657698463741,0.108520853567,-0.883897976609,0.450135444722,1.0,0.0,0.0,0.0,1.0,0.0,0.0,0.0,1.0,-0.477241367102,0.0353953056037,-0.155763313174,1.21846967915e-07,0.0,0.0,0.0,1.21846967915e-07,0.0,0.0,0.0,1.21846967915e-07,-1.0983448,0.57859235,8.6886919,9e-08,0.0,0.0,0.0,9e-08,0.0,0.0,0.0,9e-08
1539875379679358824,967,1539875379679113192,base_link,-0.0606240698298,0.126399839148,-0.87970892299,0.454378711685,1.0,0.0,0.0,0.0,1.0,0.0,0.0,0.0,1.0,0.185567766428,0.123849146068,0.230769649148,1.21846967915e-07,0.0,0.0,0.0,1.21846967915e-07,0.0,0.0,0.0,1.21846967915e-07,-1.6279039,-1.16699135,8.1199062,9e-08,0.0,0.0,0.0,9e-08,0.0,0.0,0.0,9e-08
1539875379982629608,968,1539875379981894920,base_link,-0.0246566920781,0.109292918125,-0.850419460572,0.514036814503,1.0,0.0,0.0,0.0,1.0,0.0,0.0,0.0,1.0,0.102939479053,-0.00870041828603,0.498434662819,1.21846967915e-07,0.0,0.0,0.0,1.21846967915e-07,0.0,0.0,0.0,1.21846967915e-07,-2.14765635,0.44129925,7.63938035,9e-08,0.0,0.0,0.0,9e-08,0.0,0.0,0.0,9e-08
1539875380340974120,969,1539875380340551208,base_link,-0.0311233745017,0.134319527974,-0.809849800279,0.570204262482,1.0,0.0,0.0,0.0,1.0,0.0,0.0,0.0,1.0,-0.338700830936,0.00941729545593,0.225075155497,1.21846967915e-07,0.0,0.0,0.0,1.21846967915e-07,0.0,0.0,0.0,1.21846967915e-07,-2.18688295,0.8629852,10.42446895,9e-08,0.0,0.0,0.0,9e-08,0.0,0.0,0.0,9e-08
1539875380739230728,970,1539875380738773128,base_link,-0.029962360807,0.12663296299,-0.806992198552,0.576046821964,1.0,0.0,0.0,0.0,1.0,0.0,0.0,0.0,1.0,0.470029085875,-0.0921719446778,-0.0896744728088,1.21846967915e-07,0.0,0.0,0.0,1.21846967915e-07,0.0,0.0,0.0,1.21846967915e-07,-2.0397832,-0.12748645,10.50292215,9e-08,0.0,0.0,0.0,9e-08,0.0,0.0,0.0,9e-08
1539875381086439944,971,1539875381086195656,base_link,-0.0125554615714,0.0877197124119,-0.811366527134,0.577781940775,1.0,0.0,0.0,0.0,1.0,0.0,0.0,0.0,1.0,0.103785738349,0.0167357102036,0.055174831301,1.21846967915e-07,0.0,0.0,0.0,1.21846967915e-07,0.0,0.0,0.0,1.21846967915e-07,-1.79461695,0.2745862,11.2188076,9e-08,0.0,0.0,0.0,9e-08,0.0,0.0,0.0,9e-08
1539875381492034216,972,1539875381491711528,base_link,0.013756895127,0.057060516229,-0.809658688001,0.58395860664,1.0,0.0,0.0,0.0,1.0,0.0,0.0,0.0,1.0,0.0378444902599,0.0121673438698,0.0265217255801,1.21846967915e-07,0.0,0.0,0.0,1.21846967915e-07,0.0,0.0,0.0,1.21846967915e-07,-1.8828768,-0.26477955,8.71811185,9e-08,0.0,0.0,0.0,9e-08,0.0,0.0,0.0,9e-08
1539875381799497128,973,1539875381799119912,base_link,0.0240383806363,0.0479653138488,-0.80184149876,0.595123261006,1.0,0.0,0.0,0.0,1.0,0.0,0.0,0.0,1.0,0.293985456228,-0.0371103771031,0.138234734535,1.21846967915e-07,0.0,0.0,0.0,1.21846967915e-07,0.0,0.0,0.0,1.21846967915e-07,-1.9809433,-0.34323275,7.85512665,9e-08,0.0,0.0,0.0,9e-08,0.0,0.0,0.0,9e-08
1539875382242401736,974,1539875382242142888,base_link,0.034358159824,0.0363067411466,-0.78263923553,0.620465280584,1.0,0.0,0.0,0.0,1.0,0.0,0.0,0.0,1.0,-0.241167113185,0.0544944107533,-0.0463605113328,1.21846967915e-07,0.0,0.0,0.0,1.21846967915e-07,0.0,0.0,0.0,1.21846967915e-07,-1.42196425,0.6668522,9.75761675,9e-08,0.0,0.0,0.0,9e-08,0.0,0.0,0.0,9e-08
1539875382560392232,975,1539875382559543848,base_link,0.0370489652678,0.0432233327987,-0.791780089457,0.60814752126,1.0,0.0,0.0,0.0,1.0,0.0,0.0,0.0,1.0,0.0418533869088,-0.00267658289522,-0.142332732677,1.21846967915e-07,0.0,0.0,0.0,1.21846967915e-07,0.0,0.0,0.0,1.21846967915e-07,-1.5102241,0.2157463,8.3356525,9e-08,0.0,0.0,0.0,9e-08,0.0,0.0,0.0,9e-08
1539875382994905512,976,1539875382994400008,base_link,0.0484181079512,0.0263026775405,-0.791942871734,0.608103892346,1.0,0.0,0.0,0.0,1.0,0.0,0.0,0.0,1.0,-0.159271851182,-0.069677606225,0.192459747195,1.21846967915e-07,0.0,0.0,0.0,1.21846967915e-07,0.0,0.0,0.0,1.21846967915e-07,-1.6475172,-0.3138128,6.3939358,9e-08,0.0,0.0,0.0,9e-08,0.0,0.0,0.0,9e-08
1539875383223184616,977,1539875383220075624,base_link,0.035534009462,0.0311018082155,-0.772917779796,0.632746487443,1.0,0.0,0.0,0.0,1.0,0.0,0.0,0.0,1.0,0.0378699451685,-0.0893200859427,0.223075062037,1.21846967915e-07,0.0,0.0,0.0,1.21846967915e-07,0.0,0.0,0.0,1.21846967915e-07,-1.16699135,0.392266,11.3168741,9e-08,0.0,0.0,0.0,9e-08,0.0,0.0,0.0,9e-08
1539875383730860488,978,1539875383730476424,base_link,0.0851788403635,-0.0597709147899,-0.747048927307,0.656574369824,1.0,0.0,0.0,0.0,1.0,0.0,0.0,0.0,1.0,0.276475280523,-0.028348447755,0.152936041355,1.21846967915e-07,0.0,0.0,0.0,1.21846967915e-07,0.0,0.0,0.0,1.21846967915e-07,-1.02969825,0.59820565,11.48358715,9e-08,0.0,0.0,0.0,9e-08,0.0,0.0,0.0,9e-08
1539875384193120104,979,1539875384192696488,base_link,0.135520983866,-0.121993823634,-0.746200297493,0.640262981866,1.0,0.0,0.0,0.0,1.0,0.0,0.0,0.0,1.0,0.0879527255893,-0.0341455861926,-0.17953760922,1.21846967915e-07,0.0,0.0,0.0,1.21846967915e-07,0.0,0.0,0.0,1.21846967915e-07,-1.0395049,0.79433865,10.5519554,9e-08,0.0,0.0,0.0,9e-08,0.0,0.0,0.0,9e-08
1539875384672907368,980,1539875384669879912,base_link,0.158598681646,-0.120660256195,-0.801907936483,0.563232831217,1.0,0.0,0.0,0.0,1.0,0.0,0.0,0.0,1.0,-0.26849552989,-0.0331927537918,-0.551130592823,1.21846967915e-07,0.0,0.0,0.0,1.21846967915e-07,0.0,0.0,0.0,1.21846967915e-07,-1.3140911,0.8629852,8.5513988,9e-08,0.0,0.0,0.0,9e-08,0.0,0.0,0.0,9e-08
1539875384930511976,981,1539875384930287912,base_link,0.165595290699,-0.126353861886,-0.840540175088,0.5001051043,1.0,0.0,0.0,0.0,1.0,0.0,0.0,0.0,1.0,0.534066319466,-0.100872792304,-0.550481796265,1.21846967915e-07,0.0,0.0,0.0,1.21846967915e-07,0.0,0.0,0.0,1.21846967915e-07,-1.32389775,0.0392266,6.7273619,9e-08,0.0,0.0,0.0,9e-08,0.0,0.0,0.0,9e-08
1539875385337430344,982,1539875385336791080,base_link,0.18654459282,-0.250790468266,-0.86291955314,0.397083241557,1.0,0.0,0.0,0.0,1.0,0.0,0.0,0.0,1.0,0.415121048689,-0.422779977322,-0.220172613859,1.21846967915e-07,0.0,0.0,0.0,1.21846967915e-07,0.0,0.0,0.0,1.21846967915e-07,-0.77472535,0.36284605,12.6113519,9e-08,0.0,0.0,0.0,9e-08,0.0,0.0,0.0,9e-08
1539875385821981512,983,1539875385820883752,base_link,0.137769053052,-0.359533387076,-0.876993635117,0.287467555671,1.0,0.0,0.0,0.0,1.0,0.0,0.0,0.0,1.0,0.00508868694305,-0.513697206974,-0.378616690636,1.21846967915e-07,0.0,0.0,0.0,1.21846967915e-07,0.0,0.0,0.0,1.21846967915e-07,-0.2941995,0.97085835,12.44463885,9e-08,0.0,0.0,0.0,9e-08,0.0,0.0,0.0,9e-08
1539875386176582888,984,1539875386175844744,base_link,0.081812053907,-0.343484412806,-0.916373242287,0.188640734774,1.0,0.0,0.0,0.0,1.0,0.0,0.0,0.0,1.0,-0.151307299733,-0.46448713541,-0.551897108555,1.21846967915e-07,0.0,0.0,0.0,1.21846967915e-07,0.0,0.0,0.0,1.21846967915e-07,0.1176798,0.4707192,13.8077632,9e-08,0.0,0.0,0.0,9e-08,0.0,0.0,0.0,9e-08
1539875386565187752,985,1539875386564876648,base_link,0.0343868930051,-0.298457305851,-0.950987711739,0.073233532593,1.0,0.0,0.0,0.0,1.0,0.0,0.0,0.0,1.0,-0.338227987289,-0.298013448715,-0.44794023037,1.21846967915e-07,0.0,0.0,0.0,1.21846967915e-07,0.0,0.0,0.0,1.21846967915e-07,-0.32361945,0.5099458,10.77750835,9e-08,0.0,0.0,0.0,9e-08,0.0,0.0,0.0,9e-08
1539875386785535048,986,1539875386785110728,base_link,0.0142965645977,-0.252898278426,-0.96724239529,0.0167397061701,1.0,0.0,0.0,0.0,1.0,0.0,0.0,0.0,1.0,-0.580361783504,-0.317707479,-0.444062232971,1.21846967915e-07,0.0,0.0,0.0,1.21846967915e-07,0.0,0.0,0.0,1.21846967915e-07,0.04903325,0.34323275,11.8072066,9e-08,0.0,0.0,0.0,9e-08,0.0,0.0,0.0,9e-08
1539875387142741480,987,1539875387142181288,base_link,-0.0126275591454,-0.179178775219,-0.981279703368,-0.0694669347165,1.0,0.0,0.0,0.0,1.0,0.0,0.0,0.0,1.0,-0.117232225835,-0.12032905966,-0.395971179008,1.21846967915e-07,0.0,0.0,0.0,1.21846967915e-07,0.0,0.0,0.0,1.21846967915e-07,0.5491724,-0.2549729,13.2782041,9e-08,0.0,0.0,0.0,9e-08,0.0,0.0,0.0,9e-08
1539875387521901416,988,1539875387520814248,base_link,-0.0152976920327,-0.19098549503,-0.974628867189,-0.115711246425,1.0,0.0,0.0,0.0,1.0,0.0,0.0,0.0,1.0,0.00847769714892,-0.187186747789,-0.171027705073,1.21846967915e-07,0.0,0.0,0.0,1.21846967915e-07,0.0,0.0,0.0,1.21846967915e-07,0.392266,0.0196133,12.69961175,9e-08,0.0,0.0,0.0,9e-08,0.0,0.0,0.0,9e-08
1539875387872170344,989,1539875387871233480,base_link,-0.0380384718754,-0.129824256074,-0.979927926858,-0.146424025884,1.0,0.0,0.0,0.0,1.0,0.0,0.0,0.0,1.0,-0.49179777503,-0.162085399032,-0.137028872967,1.21846967915e-07,0.0,0.0,0.0,1.21846967915e-07,0.0,0.0,0.0,1.21846967915e-07,0.00980665,0.0784532,10.46369555,9e-08,0.0,0.0,0.0,9e-08,0.0,0.0,0.0,9e-08
1539875388353924808,990,1539875388353419336,base_link,-0.0510264790694,-0.0461611395006,-0.981116376965,-0.180765324343,1.0,0.0,0.0,0.0,1.0,0.0,0.0,0.0,1.0,-0.225363343954,-0.06864220649,-0.100935153663,1.21846967915e-07,0.0,0.0,0.0,1.21846967915e-07,0.0,0.0,0.0,1.21846967915e-07,0.2941995,-0.196133,11.24822755,9e-08,0.0,0.0,0.0,9e-08,0.0,0.0,0.0,9e-08
1539875388720765032,991,1539875388720540552,base_link,-0.0525607774612,-0.00876106862563,-0.980572770768,-0.188779367457,1.0,0.0,0.0,0.0,1.0,0.0,0.0,0.0,1.0,-0.308672219515,-0.0742179378867,0.000526056624949,1.21846967915e-07,0.0,0.0,0.0,1.21846967915e-07,0.0,0.0,0.0,1.21846967915e-07,0.00980665,-0.2745862,9.3555441,9e-08,0.0,0.0,0.0,9e-08,0.0,0.0,0.0,9e-08
1539875389221706568,992,1539875389219123272,base_link,-0.0579942815457,0.0116063829984,-0.98420809728,-0.166842370011,1.0,0.0,0.0,0.0,1.0,0.0,0.0,0.0,1.0,-0.065816834569,-0.0357664003968,0.123086646199,1.21846967915e-07,0.0,0.0,0.0,1.21846967915e-07,0.0,0.0,0.0,1.21846967915e-07,-0.14709975,-0.04903325,8.87501825,9e-08,0.0,0.0,0.0,9e-08,0.0,0.0,0.0,9e-08
1539875389653523944,993,1539875389653080968,base_link,-0.0695564668756,0.0347826827652,-0.987508292868,-0.137038076507,1.0,0.0,0.0,0.0,1.0,0.0,0.0,0.0,1.0,0.0854260399938,-0.0580946095288,0.102483779192,1.21846967915e-07,0.0,0.0,0.0,1.21846967915e-07,0.0,0.0,0.0,1.21846967915e-07,0.7453054,0.0980665,9.9439431,9e-08,0.0,0.0,0.0,9e-08,0.0,0.0,0.0,9e-08
1539875389991738088,994,1539875389991382376,base_link,-0.0656671829812,0.0245487473513,-0.989707948301,-0.12475318494,1.0,0.0,0.0,0.0,1.0,0.0,0.0,0.0,1.0,0.00901469122618,0.120180912316,0.0148794222623,1.21846967915e-07,0.0,0.0,0.0,1.21846967915e-07,0.0,0.0,0.0,1.21846967915e-07,0.4903325,0.30400615,9.5712904,9e-08,0.0,0.0,0.0,9e-08,0.0,0.0,0.0,9e-08
1539875390345555976,995,1539875390345209480,base_link,-0.0433087860516,-0.0178047529332,-0.991726638119,-0.119522445877,1.0,0.0,0.0,0.0,1.0,0.0,0.0,0.0,1.0,0.285462349653,0.261236846447,0.0245809741318,1.21846967915e-07,0.0,0.0,0.0,1.21846967915e-07,0.0,0.0,0.0,1.21846967915e-07,0.57859235,-0.12748645,10.2381426,9e-08,0.0,0.0,0.0,9e-08,0.0,0.0,0.0,9e-08
1539875390672957288,996,1539875390672727080,base_link,-0.0289639549395,-0.0648701853608,-0.991754251743,-0.106660454314,1.0,0.0,0.0,0.0,1.0,0.0,0.0,0.0,1.0,-0.0371329709888,-0.0717166513205,0.0754169300199,1.21846967915e-07,0.0,0.0,0.0,1.21846967915e-07,0.0,0.0,0.0,1.21846967915e-07,0.44129925,0.4118793,9.4732239,9e-08,0.0,0.0,0.0,9e-08,0.0,0.0,0.0,9e-08
1539875391144745800,997,1539875391144536296,base_link,-0.0681117800353,-0.0294308180825,-0.98977666705,-0.121806246683,1.0,0.0,0.0,0.0,1.0,0.0,0.0,0.0,1.0,-0.221489921212,-0.242852181196,-0.148403167725,1.21846967915e-07,0.0,0.0,0.0,1.21846967915e-07,0.0,0.0,0.0,1.21846967915e-07,0.79433865,0.2157463,10.9442214,9e-08,0.0,0.0,0.0,9e-08,0.0,0.0,0.0,9e-08
1539875391643624200,998,1539875391637444072,base_link,-0.0585617615996,-0.0236675416362,-0.98281468256,-0.173452204643,1.0,0.0,0.0,0.0,1.0,0.0,0.0,0.0,1.0,0.179968833923,0.20388610661,-0.146607846022,1.21846967915e-07,0.0,0.0,0.0,1.21846967915e-07,0.0,0.0,0.0,1.21846967915e-07,0.4903325,0.57859235,9.414384,9e-08,0.0,0.0,0.0,9e-08,0.0,0.0,0.0,9e-08
1539875391914055656,999,1539875391913389736,base_link,-0.0448320349564,-0.0651357336792,-0.980241305268,-0.181313011905,1.0,0.0,0.0,0.0,1.0,0.0,0.0,0.0,1.0,0.268342167139,0.0706915780902,-0.00575487408787,1.21846967915e-07,0.0,0.0,0.0,1.21846967915e-07,0.0,0.0,0.0,1.21846967915e-07,0.2941995,-0.2941995,9.2574776,9e-08,0.0,0.0,0.0,9e-08,0.0,0.0,0.0,9e-08
1539875392278449704,1000,1539875392277602568,base_link,-0.0681951361374,-0.117211438043,-0.97568088039,-0.172214174332,1.0,0.0,0.0,0.0,1.0,0.0,0.0,0.0,1.0,0.156472682953,-0.250803619623,-0.00187744293362,1.21846967915e-07,0.0,0.0,0.0,1.21846967915e-07,0.0,0.0,0.0,1.21846967915e-07,0.38245935,0.8433719,9.3555441,9e-08,0.0,0.0,0.0,9e-08,0.0,0.0,0.0,9e-08
1539875392644954888,1001,1539875392644608520,base_link,-0.102899142002,-0.0651151712296,-0.971462499433,-0.203549485989,1.0,0.0,0.0,0.0,1.0,0.0,0.0,0.0,1.0,-0.509798645973,-0.0827805399895,-0.266977965832,1.21846967915e-07,0.0,0.0,0.0,1.21846967915e-07,0.0,0.0,0.0,1.21846967915e-07,0.5491724,1.08853815,9.14960445,9e-08,0.0,0.0,0.0,9e-08,0.0,0.0,0.0,9e-08
1539875393044317736,1002,1539875393043886312,base_link,-0.0180221861655,-0.030581975254,-0.956119596839,-0.290818259631,1.0,0.0,0.0,0.0,1.0,0.0,0.0,0.0,1.0,-0.0449379384518,0.599915981293,-0.430639237165,1.21846967915e-07,0.0,0.0,0.0,1.21846967915e-07,0.0,0.0,0.0,1.21846967915e-07,0.0,0.10787315,8.03164635,9e-08,0.0,0.0,0.0,9e-08,0.0,0.0,0.0,9e-08
1539875393435960360,1003,1539875393435678536,base_link,0.0870330698573,-0.090012749581,-0.929334118427,-0.347362988806,1.0,0.0,0.0,0.0,1.0,0.0,0.0,0.0,1.0,0.0217274948955,0.313305169344,-0.214341938496,1.21846967915e-07,0.0,0.0,0.0,1.21846967915e-07,0.0,0.0,0.0,1.21846967915e-07,0.00980665,0.44129925,7.7276402,9e-08,0.0,0.0,0.0,9e-08,0.0,0.0,0.0,9e-08
