%time,field.header.seq,field.header.stamp,field.header.frame_id,field.orientation.x,field.orientation.y,field.orientation.z,field.orientation.w,field.orientation_covariance0,field.orientation_covariance1,field.orientation_covariance2,field.orientation_covariance3,field.orientation_covariance4,field.orientation_covariance5,field.orientation_covariance6,field.orientation_covariance7,field.orientation_covariance8,field.angular_velocity.x,field.angular_velocity.y,field.angular_velocity.z,field.angular_velocity_covariance0,field.angular_velocity_covariance1,field.angular_velocity_covariance2,field.angular_velocity_covariance3,field.angular_velocity_covariance4,field.angular_velocity_covariance5,field.angular_velocity_covariance6,field.angular_velocity_covariance7,field.angular_velocity_covariance8,field.linear_acceleration.x,field.linear_acceleration.y,field.linear_acceleration.z,field.linear_acceleration_covariance0,field.linear_acceleration_covariance1,field.linear_acceleration_covariance2,field.linear_acceleration_covariance3,field.linear_acceleration_covariance4,field.linear_acceleration_covariance5,field.linear_acceleration_covariance6,field.linear_acceleration_covariance7,field.linear_acceleration_covariance8
1536690450437939921,5068,1536690450437563007,base_link,-0.0183688546865,-0.107483858993,-0.993491341616,-0.0329356853267,1.0,0.0,0.0,0.0,1.0,0.0,0.0,0.0,1.0,0.779634237289,0.0806980803609,-0.0547380000353,1.21846967915e-07,0.0,0.0,0.0,1.21846967915e-07,0.0,0.0,0.0,1.21846967915e-07,1.6082906,0.91201845,11.4345539,9e-08,0.0,0.0,0.0,9e-08,0.0,0.0,0.0,9e-08
1536690450710466586,5069,1536690450710170501,base_link,-0.0175300455912,-0.207109416288,-0.976846386447,-0.0506904771248,1.0,0.0,0.0,0.0,1.0,0.0,0.0,0.0,1.0,0.651076793671,0.0286432113498,-0.238494217396,1.21846967915e-07,0.0,0.0,0.0,1.21846967915e-07,0.0,0.0,0.0,1.21846967915e-07,-0.53936575,0.6864655,11.13054775,9e-08,0.0,0.0,0.0,9e-08,0.0,0.0,0.0,9e-08
1536690451154571859,5070,1536690451153656212,base_link,0.0172594549878,0.0286968998555,-0.997263846699,-0.0659046221441,1.0,0.0,0.0,0.0,1.0,0.0,0.0,0.0,1.0,-1.19778990746,0.143392503262,-0.0508659221232,1.21846967915e-07,0.0,0.0,0.0,1.21846967915e-07,0.0,0.0,0.0,1.21846967915e-07,-1.01008495,0.392266,10.2381426,9e-08,0.0,0.0,0.0,9e-08,0.0,0.0,0.0,9e-08
1536690451645315637,5071,1536690451644843718,base_link,0.0878095003587,0.223222137879,-0.96882767168,-0.0619218167884,1.0,0.0,0.0,0.0,1.0,0.0,0.0,0.0,1.0,-0.618680179119,0.252047210932,0.0605944022536,1.21846967915e-07,0.0,0.0,0.0,1.21846967915e-07,0.0,0.0,0.0,1.21846967915e-07,-1.4906108,0.46091255,3.04986815,9e-08,0.0,0.0,0.0,9e-08,0.0,0.0,0.0,9e-08
1536690452013116392,5072,1536690452012730295,base_link,0.115018979349,0.265579447615,-0.956770950588,-0.0287669863604,1.0,0.0,0.0,0.0,1.0,0.0,0.0,0.0,1.0,-0.172730982304,0.123478621244,0.342322349548,1.21846967915e-07,0.0,0.0,0.0,1.21846967915e-07,0.0,0.0,0.0,1.21846967915e-07,-1.6671305,0.57859235,3.6480738,9e-08,0.0,0.0,0.0,9e-08,0.0,0.0,0.0,9e-08
1536690452348852953,5073,1536690452348583139,base_link,0.138554965612,0.30089109966,-0.943038418825,0.0307507442248,1.0,0.0,0.0,0.0,1.0,0.0,0.0,0.0,1.0,-0.187333956361,-0.0452611856163,0.23411770165,1.21846967915e-07,0.0,0.0,0.0,1.21846967915e-07,0.0,0.0,0.0,1.21846967915e-07,-1.8240369,0.08825985,5.38385085,9e-08,0.0,0.0,0.0,9e-08,0.0,0.0,0.0,9e-08
1536690452807688467,5074,1536690452804840764,base_link,0.140402555742,0.33386687394,-0.927970859928,0.0876933061966,1.0,0.0,0.0,0.0,1.0,0.0,0.0,0.0,1.0,-0.122552864254,-0.175339609385,0.292500257492,1.21846967915e-07,0.0,0.0,0.0,1.21846967915e-07,0.0,0.0,0.0,1.21846967915e-07,-1.79461695,-0.22555295,8.7867584,9e-08,0.0,0.0,0.0,9e-08,0.0,0.0,0.0,9e-08
1536690453202650526,5075,1536690453200797570,base_link,0.140995742772,0.312626412429,-0.921804539027,0.18072442724,1.0,0.0,0.0,0.0,1.0,0.0,0.0,0.0,1.0,-0.124896816909,-0.128844231367,0.543794453144,1.21846967915e-07,0.0,0.0,0.0,1.21846967915e-07,0.0,0.0,0.0,1.21846967915e-07,-1.9221034,-0.22555295,11.40513395,9e-08,0.0,0.0,0.0,9e-08,0.0,0.0,0.0,9e-08
1536690453510851940,5076,1536690453510519921,base_link,0.135043673157,0.325863315743,-0.902694955401,0.246410477226,1.0,0.0,0.0,0.0,1.0,0.0,0.0,0.0,1.0,-0.111920520663,-0.18885615468,0.213324025273,1.21846967915e-07,0.0,0.0,0.0,1.21846967915e-07,0.0,0.0,0.0,1.21846967915e-07,-2.0986231,0.51975245,10.6892485,9e-08,0.0,0.0,0.0,9e-08,0.0,0.0,0.0,9e-08
1536690453976113649,5077,1536690453975840731,base_link,0.117551616578,0.294371292864,-0.906409558554,0.279193251243,1.0,0.0,0.0,0.0,1.0,0.0,0.0,0.0,1.0,0.11701785028,-0.117537423968,0.151236206293,1.21846967915e-07,0.0,0.0,0.0,1.21846967915e-07,0.0,0.0,0.0,1.21846967915e-07,-2.10842975,0.1176798,11.5326204,9e-08,0.0,0.0,0.0,9e-08,0.0,0.0,0.0,9e-08
1536690454451204916,5078,1536690454450454384,base_link,0.1319790015,0.227588997637,-0.911821850648,0.315223260562,1.0,0.0,0.0,0.0,1.0,0.0,0.0,0.0,1.0,0.35632827878,-0.116690121591,0.291329950094,1.21846967915e-07,0.0,0.0,0.0,1.21846967915e-07,0.0,0.0,0.0,1.21846967915e-07,-2.3339827,-0.53936575,11.5522337,9e-08,0.0,0.0,0.0,9e-08,0.0,0.0,0.0,9e-08
1536690454891596822,5079,1536690454891290561,base_link,0.140169478208,0.16737343542,-0.907749189757,0.358231850886,1.0,0.0,0.0,0.0,1.0,0.0,0.0,0.0,1.0,0.145509108901,-0.117601782084,0.106932200491,1.21846967915e-07,0.0,0.0,0.0,1.21846967915e-07,0.0,0.0,0.0,1.21846967915e-07,-2.6477955,0.04903325,9.5320638,9e-08,0.0,0.0,0.0,9e-08,0.0,0.0,0.0,9e-08
1536690455306428869,5080,1536690455305631970,base_link,0.148438296011,0.124909418432,-0.910499132629,0.365178092095,1.0,0.0,0.0,0.0,1.0,0.0,0.0,0.0,1.0,0.234138220549,-0.0809606835246,0.0638740509748,1.21846967915e-07,0.0,0.0,0.0,1.21846967915e-07,0.0,0.0,0.0,1.21846967915e-07,-2.7262487,0.83356525,10.7088618,9e-08,0.0,0.0,0.0,9e-08,0.0,0.0,0.0,9e-08
1536690455677719991,5081,1536690455677130541,base_link,0.153467160474,0.0585657043106,-0.918508635861,0.359666199111,1.0,0.0,0.0,0.0,1.0,0.0,0.0,0.0,1.0,0.519939005375,-0.123927436769,0.0486164800823,1.21846967915e-07,0.0,0.0,0.0,1.21846967915e-07,0.0,0.0,0.0,1.21846967915e-07,-2.745862,0.0392266,11.69933345,9e-08,0.0,0.0,0.0,9e-08,0.0,0.0,0.0,9e-08
1536690456012631910,5082,1536690456012366928,base_link,0.161337186077,-0.0291069188533,-0.917879360448,0.361414691631,1.0,0.0,0.0,0.0,1.0,0.0,0.0,0.0,1.0,0.448613524437,-0.184174716473,0.0870323106647,1.21846967915e-07,0.0,0.0,0.0,1.21846967915e-07,0.0,0.0,0.0,1.21846967915e-07,-2.7850886,-0.02941995,13.3566573,9e-08,0.0,0.0,0.0,9e-08,0.0,0.0,0.0,9e-08
1536690456414087554,5083,1536690456413563509,base_link,0.17815772264,-0.113939950635,-0.912895330764,0.349141273101,1.0,0.0,0.0,0.0,1.0,0.0,0.0,0.0,1.0,0.292047649622,0.0286051444709,-0.109392002225,1.21846967915e-07,0.0,0.0,0.0,1.21846967915e-07,0.0,0.0,0.0,1.21846967915e-07,-2.61837555,0.9414384,11.6503002,9e-08,0.0,0.0,0.0,9e-08,0.0,0.0,0.0,9e-08
1536690456651403228,5084,1536690456651137510,base_link,0.190818151411,-0.158677369925,-0.914099177657,0.320675254381,1.0,0.0,0.0,0.0,1.0,0.0,0.0,0.0,1.0,0.414802491665,-0.136982783675,-0.195164993405,1.21846967915e-07,0.0,0.0,0.0,1.21846967915e-07,0.0,0.0,0.0,1.21846967915e-07,-2.52030905,0.28439285,10.983448,9e-08,0.0,0.0,0.0,9e-08,0.0,0.0,0.0,9e-08
1536690457060814834,5085,1536690457060595994,base_link,0.203088475023,-0.239043383063,-0.909361908491,0.273265899284,1.0,0.0,0.0,0.0,1.0,0.0,0.0,0.0,1.0,0.233504161239,-0.131459146738,-0.0963357612491,1.21846967915e-07,0.0,0.0,0.0,1.21846967915e-07,0.0,0.0,0.0,1.21846967915e-07,-2.44185585,0.0392266,10.52253545,9e-08,0.0,0.0,0.0,9e-08,0.0,0.0,0.0,9e-08
1536690457450441346,5086,1536690457450065327,base_link,0.195349839406,-0.267784654235,-0.913898057035,0.234350507889,1.0,0.0,0.0,0.0,1.0,0.0,0.0,0.0,1.0,0.126063585281,-0.130379661918,-0.229287534952,1.21846967915e-07,0.0,0.0,0.0,1.21846967915e-07,0.0,0.0,0.0,1.21846967915e-07,-2.3732093,0.7060788,9.80665,9e-08,0.0,0.0,0.0,9e-08,0.0,0.0,0.0,9e-08
1536690457939733561,5087,1536690457939270027,base_link,0.171556781816,-0.315535765215,-0.918637359149,0.16465373928,1.0,0.0,0.0,0.0,1.0,0.0,0.0,0.0,1.0,0.214005172253,-0.245424866676,-0.164741039276,1.21846967915e-07,0.0,0.0,0.0,1.21846967915e-07,0.0,0.0,0.0,1.21846967915e-07,-2.1378497,0.53936575,13.15071765,9e-08,0.0,0.0,0.0,9e-08,0.0,0.0,0.0,9e-08
1536690458386182748,5088,1536690458385874663,base_link,0.115028400991,-0.342989303466,-0.927305137092,0.0960832316063,1.0,0.0,0.0,0.0,1.0,0.0,0.0,0.0,1.0,0.291674852371,-0.360751599073,-0.208856672049,1.21846967915e-07,0.0,0.0,0.0,1.21846967915e-07,0.0,0.0,0.0,1.21846967915e-07,-1.3140911,1.08853815,18.5345685,9e-08,0.0,0.0,0.0,9e-08,0.0,0.0,0.0,9e-08
1536690458705147798,5089,1536690458704682439,base_link,0.0762897986851,-0.34993801487,-0.933327658868,0.0249546299745,1.0,0.0,0.0,0.0,1.0,0.0,0.0,0.0,1.0,0.0878303050995,-0.432650566101,-0.290781825781,1.21846967915e-07,0.0,0.0,0.0,1.21846967915e-07,0.0,0.0,0.0,1.21846967915e-07,-0.97085835,0.9610517,16.6320784,9e-08,0.0,0.0,0.0,9e-08,0.0,0.0,0.0,9e-08
1536690459108490476,5090,1536690459108211414,base_link,0.0195498116673,-0.364861657128,-0.929765382656,-0.0450567335212,1.0,0.0,0.0,0.0,1.0,0.0,0.0,0.0,1.0,0.00765409506857,-0.348505705595,-0.206374898553,1.21846967915e-07,0.0,0.0,0.0,1.21846967915e-07,0.0,0.0,0.0,1.21846967915e-07,-0.2157463,1.0198916,17.4950636,9e-08,0.0,0.0,0.0,9e-08,0.0,0.0,0.0,9e-08
1536690459524541774,5091,1536690459524260696,base_link,-0.0427675637201,-0.3740686203,-0.917837398697,-0.125770077335,1.0,0.0,0.0,0.0,1.0,0.0,0.0,0.0,1.0,0.0140009857714,-0.393781244755,-0.252456098795,1.21846967915e-07,0.0,0.0,0.0,1.21846967915e-07,0.0,0.0,0.0,1.21846967915e-07,0.5491724,1.0787315,16.50459195,9e-08,0.0,0.0,0.0,9e-08,0.0,0.0,0.0,9e-08
1536690459944707224,5092,1536690459944249641,base_link,-0.104789271026,-0.384016478381,-0.891205503452,-0.217493226621,1.0,0.0,0.0,0.0,1.0,0.0,0.0,0.0,1.0,0.0712298229337,-0.307068049908,-0.289165973663,1.21846967915e-07,0.0,0.0,0.0,1.21846967915e-07,0.0,0.0,0.0,1.21846967915e-07,0.42168595,0.69627215,17.063571,9e-08,0.0,0.0,0.0,9e-08,0.0,0.0,0.0,9e-08
1536690460283934152,5093,1536690460283678801,base_link,-0.1422516317,-0.393008368575,-0.865174195109,-0.277096567331,1.0,0.0,0.0,0.0,1.0,0.0,0.0,0.0,1.0,0.0834461301565,-0.395184516907,-0.220470145345,1.21846967915e-07,0.0,0.0,0.0,1.21846967915e-07,0.0,0.0,0.0,1.21846967915e-07,0.4903325,0.63743225,14.17060925,9e-08,0.0,0.0,0.0,9e-08,0.0,0.0,0.0,9e-08
1536690460601946629,5094,1536690460601544980,base_link,-0.183585392124,-0.369888970365,-0.845860676291,-0.337636297968,1.0,0.0,0.0,0.0,1.0,0.0,0.0,0.0,1.0,-0.0980186536908,-0.417763113976,-0.231863677502,1.21846967915e-07,0.0,0.0,0.0,1.21846967915e-07,0.0,0.0,0.0,1.21846967915e-07,0.63743225,0.5687857,17.3381572,9e-08,0.0,0.0,0.0,9e-08,0.0,0.0,0.0,9e-08
1536690460967142713,5095,1536690460966868355,base_link,-0.222841438105,-0.343469771221,-0.817050500772,-0.40595404778,1.0,0.0,0.0,0.0,1.0,0.0,0.0,0.0,1.0,-0.0908541381359,-0.352620631456,-0.282015025616,1.21846967915e-07,0.0,0.0,0.0,1.21846967915e-07,0.0,0.0,0.0,1.21846967915e-07,0.5099458,1.26505785,14.3569356,9e-08,0.0,0.0,0.0,9e-08,0.0,0.0,0.0,9e-08
1536690461407620983,5096,1536690461406905009,base_link,-0.256476165693,-0.317377552147,-0.768505903771,-0.492838859765,1.0,0.0,0.0,0.0,1.0,0.0,0.0,0.0,1.0,-0.015565414913,-0.295382678509,-0.282981514931,1.21846967915e-07,0.0,0.0,0.0,1.21846967915e-07,0.0,0.0,0.0,1.21846967915e-07,0.3334261,0.5295591,13.52337035,9e-08,0.0,0.0,0.0,9e-08,0.0,0.0,0.0,9e-08
1536690461703473412,5097,1536690461702964567,base_link,-0.288836993626,-0.298961102286,-0.732022943765,-0.539757223421,1.0,0.0,0.0,0.0,1.0,0.0,0.0,0.0,1.0,0.171506613493,-0.341650128365,-0.241487920284,1.21846967915e-07,0.0,0.0,0.0,1.21846967915e-07,0.0,0.0,0.0,1.21846967915e-07,0.32361945,0.73549875,14.2980957,9e-08,0.0,0.0,0.0,9e-08,0.0,0.0,0.0,9e-08
1536690462146180912,5098,1536690462145548296,base_link,-0.33583643818,-0.286368448018,-0.668610621652,-0.598470413124,1.0,0.0,0.0,0.0,1.0,0.0,0.0,0.0,1.0,-0.0282994583249,-0.35991692543,-0.271674901247,1.21846967915e-07,0.0,0.0,0.0,1.21846967915e-07,0.0,0.0,0.0,1.21846967915e-07,0.46091255,1.10815145,15.7102533,9e-08,0.0,0.0,0.0,9e-08,0.0,0.0,0.0,9e-08
1536690462601727747,5099,1536690462601495372,base_link,-0.341784205797,-0.234219748772,-0.606442749203,-0.678639711402,1.0,0.0,0.0,0.0,1.0,0.0,0.0,0.0,1.0,-0.346023887396,-0.281158447266,-0.280749857426,1.21846967915e-07,0.0,0.0,0.0,1.21846967915e-07,0.0,0.0,0.0,1.21846967915e-07,0.08825985,0.34323275,12.3759923,9e-08,0.0,0.0,0.0,9e-08,0.0,0.0,0.0,9e-08
1536690462968979851,5100,1536690462968726068,base_link,-0.273579377914,-0.155509012099,-0.587972562892,-0.74515739037,1.0,0.0,0.0,0.0,1.0,0.0,0.0,0.0,1.0,-0.751697182655,-0.0406234525144,-0.248682007194,1.21846967915e-07,0.0,0.0,0.0,1.21846967915e-07,0.0,0.0,0.0,1.21846967915e-07,-0.50013915,1.30428445,12.8859381,9e-08,0.0,0.0,0.0,9e-08,0.0,0.0,0.0,9e-08
1536690463450477282,5101,1536690463450191981,base_link,-0.158959305237,-0.0852578383451,-0.543729312832,-0.819647164728,1.0,0.0,0.0,0.0,1.0,0.0,0.0,0.0,1.0,-0.422342270613,0.0559827052057,-0.235924750566,1.21846967915e-07,0.0,0.0,0.0,1.21846967915e-07,0.0,0.0,0.0,1.21846967915e-07,-1.2356379,0.22555295,9.12999115,9e-08,0.0,0.0,0.0,9e-08,0.0,0.0,0.0,9e-08
1536690463818828641,5102,1536690463818389105,base_link,-0.0669083101071,-0.0443713075509,-0.534167663684,-0.841557705793,1.0,0.0,0.0,0.0,1.0,0.0,0.0,0.0,1.0,-0.638313651085,0.0894946083426,-0.0509135462344,1.21846967915e-07,0.0,0.0,0.0,1.21846967915e-07,0.0,0.0,0.0,1.21846967915e-07,-1.372931,0.73549875,7.5511205,9e-08,0.0,0.0,0.0,9e-08,0.0,0.0,0.0,9e-08
1536690464168502032,5103,1536690464168099135,base_link,0.0218418313984,0.000844468743159,-0.525034635807,-0.850800124869,1.0,0.0,0.0,0.0,1.0,0.0,0.0,0.0,1.0,-0.47380360961,0.07384403795,-0.098923496902,1.21846967915e-07,0.0,0.0,0.0,1.21846967915e-07,0.0,0.0,0.0,1.21846967915e-07,-1.2944778,0.36284605,7.9629998,9e-08,0.0,0.0,0.0,9e-08,0.0,0.0,0.0,9e-08
1536690464496733109,5104,1536690464496510045,base_link,0.0737072415267,0.0143130360546,-0.523219986044,-0.848883517186,1.0,0.0,0.0,0.0,1.0,0.0,0.0,0.0,1.0,-0.347446680069,0.136400356889,0.0834922492504,1.21846967915e-07,0.0,0.0,0.0,1.21846967915e-07,0.0,0.0,0.0,1.21846967915e-07,-1.26505785,0.34323275,7.28634095,9e-08,0.0,0.0,0.0,9e-08,0.0,0.0,0.0,9e-08
1536690464949832386,5105,1536690464949625674,base_link,0.135758953788,0.0301686766688,-0.540281244335,-0.829912967988,1.0,0.0,0.0,0.0,1.0,0.0,0.0,0.0,1.0,-0.22602841258,0.160298809409,0.0991972386837,1.21846967915e-07,0.0,0.0,0.0,1.21846967915e-07,0.0,0.0,0.0,1.21846967915e-07,-1.2552512,0.16671305,7.95319315,9e-08,0.0,0.0,0.0,9e-08,0.0,0.0,0.0,9e-08
1536690465347568519,5106,1536690465347225076,base_link,0.168953070153,0.0184347247404,-0.553809162015,-0.815113754686,1.0,0.0,0.0,0.0,1.0,0.0,0.0,0.0,1.0,-0.0920727699995,0.0705911442637,0.124104507267,1.21846967915e-07,0.0,0.0,0.0,1.21846967915e-07,0.0,0.0,0.0,1.21846967915e-07,-1.176798,0.32361945,8.4141057,9e-08,0.0,0.0,0.0,9e-08,0.0,0.0,0.0,9e-08
1536690465751029145,5107,1536690465750816640,base_link,0.179371854359,0.00716927336554,-0.573120632094,-0.799566807997,1.0,0.0,0.0,0.0,1.0,0.0,0.0,0.0,1.0,-0.0131015330553,-0.000429653329775,0.085905559361,1.21846967915e-07,0.0,0.0,0.0,1.21846967915e-07,0.0,0.0,0.0,1.21846967915e-07,-1.22583125,0.12748645,7.5903471,9e-08,0.0,0.0,0.0,9e-08,0.0,0.0,0.0,9e-08
1536690466193754500,5108,1536690466193446671,base_link,0.178249543016,0.00222952725284,-0.591989741431,-0.785983635748,1.0,0.0,0.0,0.0,1.0,0.0,0.0,0.0,1.0,0.0168742723763,0.0672174617648,0.172521516681,1.21846967915e-07,0.0,0.0,0.0,1.21846967915e-07,0.0,0.0,0.0,1.21846967915e-07,-1.12776475,-0.06864655,8.46313895,9e-08,0.0,0.0,0.0,9e-08,0.0,0.0,0.0,9e-08
1536690466612427621,5109,1536690466612086930,base_link,0.165313879519,-0.00108957296286,-0.635585027614,-0.754123203954,1.0,0.0,0.0,0.0,1.0,0.0,0.0,0.0,1.0,-0.0163712352514,-0.117297425866,0.24660757184,1.21846967915e-07,0.0,0.0,0.0,1.21846967915e-07,0.0,0.0,0.0,1.21846967915e-07,-1.0591182,0.24516625,10.1008495,9e-08,0.0,0.0,0.0,9e-08,0.0,0.0,0.0,9e-08
1536690467063671735,5110,1536690467060656166,base_link,0.133530640078,0.00569877617163,-0.67367676451,-0.726840222518,1.0,0.0,0.0,0.0,1.0,0.0,0.0,0.0,1.0,0.0746123716235,-0.183027818799,0.173364892602,1.21846967915e-07,0.0,0.0,0.0,1.21846967915e-07,0.0,0.0,0.0,1.21846967915e-07,-0.7453054,0.4511059,12.4740588,9e-08,0.0,0.0,0.0,9e-08,0.0,0.0,0.0,9e-08
1536690467455384505,5111,1536690467455142754,base_link,0.103664540303,0.00258254726088,-0.693855675004,-0.712608795762,1.0,0.0,0.0,0.0,1.0,0.0,0.0,0.0,1.0,0.229618757963,-0.134793519974,0.0592014603317,1.21846967915e-07,0.0,0.0,0.0,1.21846967915e-07,0.0,0.0,0.0,1.21846967915e-07,-0.8237586,0.28439285,10.4146623,9e-08,0.0,0.0,0.0,9e-08,0.0,0.0,0.0,9e-08
1536690467846652460,5112,1536690467844657270,base_link,0.0447681388347,-0.00621284522363,-0.708133601428,-0.704630411512,1.0,0.0,0.0,0.0,1.0,0.0,0.0,0.0,1.0,0.156860008836,-0.0813889279962,0.126129776239,1.21846967915e-07,0.0,0.0,0.0,1.21846967915e-07,0.0,0.0,0.0,1.21846967915e-07,-0.5491724,0.2353596,12.5917386,9e-08,0.0,0.0,0.0,9e-08,0.0,0.0,0.0,9e-08
1536690468152547336,5113,1536690468152185301,base_link,0.0256456583914,-0.00880657846519,-0.722186188819,-0.69116702255,1.0,0.0,0.0,0.0,1.0,0.0,0.0,0.0,1.0,-0.000696754083037,-0.0339151099324,0.0600457713008,1.21846967915e-07,0.0,0.0,0.0,1.21846967915e-07,0.0,0.0,0.0,1.21846967915e-07,-0.65704555,0.69627215,10.2577559,9e-08,0.0,0.0,0.0,9e-08,0.0,0.0,0.0,9e-08
1536690468659188769,5114,1536690468658716946,base_link,-0.0195580224635,-0.0404157402512,-0.721751192864,-0.690694771441,1.0,0.0,0.0,0.0,1.0,0.0,0.0,0.0,1.0,0.423880845308,-0.110196247697,0.0273657441139,1.21846967915e-07,0.0,0.0,0.0,1.21846967915e-07,0.0,0.0,0.0,1.21846967915e-07,-0.4118793,0.12748645,12.22889255,9e-08,0.0,0.0,0.0,9e-08,0.0,0.0,0.0,9e-08
1536690469081186120,5115,1536690469080969455,base_link,-0.0671942783119,-0.0661821193629,-0.729181917909,-0.677789485484,1.0,0.0,0.0,0.0,1.0,0.0,0.0,0.0,1.0,0.178309291601,-0.0700746923685,0.0278516747057,1.21846967915e-07,0.0,0.0,0.0,1.21846967915e-07,0.0,0.0,0.0,1.21846967915e-07,-0.392266,0.588399,11.5326204,9e-08,0.0,0.0,0.0,9e-08,0.0,0.0,0.0,9e-08
1536690469450091826,5116,1536690469449658946,base_link,-0.0767729107641,-0.0793310800458,-0.719322823807,-0.685847778346,1.0,0.0,0.0,0.0,1.0,0.0,0.0,0.0,1.0,0.0809835642576,0.0590205416083,-0.123312875628,1.21846967915e-07,0.0,0.0,0.0,1.21846967915e-07,0.0,0.0,0.0,1.21846967915e-07,-0.38245935,0.50013915,9.9243298,9e-08,0.0,0.0,0.0,9e-08,0.0,0.0,0.0,9e-08
1536690469862625302,5117,1536690469861807604,base_link,-0.0875157236813,-0.111424473675,-0.69744835402,-0.702489415045,1.0,0.0,0.0,0.0,1.0,0.0,0.0,0.0,1.0,0.190077394247,0.00286690355279,-0.123821102083,1.21846967915e-07,0.0,0.0,0.0,1.21846967915e-07,0.0,0.0,0.0,1.21846967915e-07,-0.30400615,0.22555295,8.99269805,9e-08,0.0,0.0,0.0,9e-08,0.0,0.0,0.0,9e-08
1536690470235842433,5118,1536690470235083197,base_link,-0.10982939129,-0.130663605729,-0.684672630843,-0.708581622343,1.0,0.0,0.0,0.0,1.0,0.0,0.0,0.0,1.0,0.127031251788,-0.01101930812,-0.0654051154852,1.21846967915e-07,0.0,0.0,0.0,1.21846967915e-07,0.0,0.0,0.0,1.21846967915e-07,-0.1176798,0.59820565,9.71839015,9e-08,0.0,0.0,0.0,9e-08,0.0,0.0,0.0,9e-08
1536690470693502887,5119,1536690470692810752,base_link,-0.12595584002,-0.145533590085,-0.652977804538,-0.732512858114,1.0,0.0,0.0,0.0,1.0,0.0,0.0,0.0,1.0,0.158802062273,-0.00198688171804,-0.242747947574,1.21846967915e-07,0.0,0.0,0.0,1.21846967915e-07,0.0,0.0,0.0,1.21846967915e-07,-0.1372931,0.38245935,10.5715687,9e-08,0.0,0.0,0.0,9e-08,0.0,0.0,0.0,9e-08
1536690471100210721,5120,1536690471099767153,base_link,-0.1727045569,-0.155709930266,-0.618279010144,-0.7507720155,1.0,0.0,0.0,0.0,1.0,0.0,0.0,0.0,1.0,0.139646813273,-0.252357274294,-0.0699151977897,1.21846967915e-07,0.0,0.0,0.0,1.21846967915e-07,0.0,0.0,0.0,1.21846967915e-07,0.0392266,0.8237586,12.9055514,9e-08,0.0,0.0,0.0,9e-08,0.0,0.0,0.0,9e-08
1536690471553315822,5121,1536690471553003545,base_link,-0.194275536021,-0.150402185291,-0.586942509402,-0.771449732271,1.0,0.0,0.0,0.0,1.0,0.0,0.0,0.0,1.0,0.0567981153727,-0.031721688807,-0.191589921713,1.21846967915e-07,0.0,0.0,0.0,1.21846967915e-07,0.0,0.0,0.0,1.21846967915e-07,0.2549729,0.6668522,11.375714,9e-08,0.0,0.0,0.0,9e-08,0.0,0.0,0.0,9e-08
1536690471866167433,5122,1536690471862526511,base_link,-0.213344631898,-0.165647494829,-0.55658020104,-0.785661158075,1.0,0.0,0.0,0.0,1.0,0.0,0.0,0.0,1.0,0.194967791438,-0.0874825417995,-0.208280578256,1.21846967915e-07,0.0,0.0,0.0,1.21846967915e-07,0.0,0.0,0.0,1.21846967915e-07,0.10787315,0.46091255,9.8851032,9e-08,0.0,0.0,0.0,9e-08,0.0,0.0,0.0,9e-08
1536690472297672690,5123,1536690472297284512,base_link,-0.243018228003,-0.171186726461,-0.510229531811,-0.807033500178,1.0,0.0,0.0,0.0,1.0,0.0,0.0,0.0,1.0,0.0756521373987,-0.148766353726,-0.224795714021,1.21846967915e-07,0.0,0.0,0.0,1.21846967915e-07,0.0,0.0,0.0,1.21846967915e-07,0.4118793,0.5687857,10.07142955,9e-08,0.0,0.0,0.0,9e-08,0.0,0.0,0.0,9e-08
1536690472512152981,5124,1536690472511868639,base_link,-0.252194786959,-0.169083773116,-0.484769873051,-0.820247912086,1.0,0.0,0.0,0.0,1.0,0.0,0.0,0.0,1.0,0.0901482775807,-0.179181545973,-0.235315293074,1.21846967915e-07,0.0,0.0,0.0,1.21846967915e-07,0.0,0.0,0.0,1.21846967915e-07,0.4511059,0.71588545,10.18910935,9e-08,0.0,0.0,0.0,9e-08,0.0,0.0,0.0,9e-08
1536690472907180413,5125,1536690472906900360,base_link,-0.273059196904,-0.152677767699,-0.434610437435,-0.844536524911,1.0,0.0,0.0,0.0,1.0,0.0,0.0,0.0,1.0,0.0603272616863,-0.115700483322,-0.25048238039,1.21846967915e-07,0.0,0.0,0.0,1.21846967915e-07,0.0,0.0,0.0,1.21846967915e-07,0.65704555,0.93163175,11.8660465,9e-08,0.0,0.0,0.0,9e-08,0.0,0.0,0.0,9e-08
1536690473312558312,5126,1536690473312297682,base_link,-0.290522815821,-0.153786625584,-0.371208085242,-0.868418519338,1.0,0.0,0.0,0.0,1.0,0.0,0.0,0.0,1.0,0.149600952864,-0.1297070086,-0.358697026968,1.21846967915e-07,0.0,0.0,0.0,1.21846967915e-07,0.0,0.0,0.0,1.21846967915e-07,0.5295591,0.26477955,9.20844435,9e-08,0.0,0.0,0.0,9e-08,0.0,0.0,0.0,9e-08
1536690473748656392,5127,1536690473748370162,base_link,-0.328941398617,-0.127158177121,-0.304527599652,-0.884811446195,1.0,0.0,0.0,0.0,1.0,0.0,0.0,0.0,1.0,-0.00738058611751,-0.243081986904,-0.181652158499,1.21846967915e-07,0.0,0.0,0.0,1.21846967915e-07,0.0,0.0,0.0,1.21846967915e-07,0.9022118,0.8629852,13.01342455,9e-08,0.0,0.0,0.0,9e-08,0.0,0.0,0.0,9e-08
1536690474257146525,5128,1536690474256885222,base_link,-0.326760143904,-0.0769227532294,-0.225336259909,-0.914622473134,1.0,0.0,0.0,0.0,1.0,0.0,0.0,0.0,1.0,-0.0739014446735,-0.203581944108,-0.310910344124,1.21846967915e-07,0.0,0.0,0.0,1.21846967915e-07,0.0,0.0,0.0,1.21846967915e-07,1.0787315,1.10815145,13.5527903,9e-08,0.0,0.0,0.0,9e-08,0.0,0.0,0.0,9e-08
1536690474686918213,5129,1536690474686644207,base_link,-0.31774763994,-0.0365881958369,-0.144822289061,-0.936335541261,1.0,0.0,0.0,0.0,1.0,0.0,0.0,0.0,1.0,-0.0670247599483,-0.316576212645,-0.295151472092,1.21846967915e-07,0.0,0.0,0.0,1.21846967915e-07,0.0,0.0,0.0,1.21846967915e-07,0.79433865,0.8629852,13.2389775,9e-08,0.0,0.0,0.0,9e-08,0.0,0.0,0.0,9e-08
1536690475196639244,5130,1536690475196158334,base_link,-0.286920668354,0.0297317377584,-0.062302165423,-0.955463758614,1.0,0.0,0.0,0.0,1.0,0.0,0.0,0.0,1.0,-0.313104391098,-0.289200216532,-0.174644991755,1.21846967915e-07,0.0,0.0,0.0,1.21846967915e-07,0.0,0.0,0.0,1.21846967915e-07,0.9414384,0.83356525,14.85707475,9e-08,0.0,0.0,0.0,9e-08,0.0,0.0,0.0,9e-08
1536690475544302950,5131,1536690475542790909,base_link,-0.219511068031,0.058222020588,-0.0108303353968,-0.973810962747,1.0,0.0,0.0,0.0,1.0,0.0,0.0,0.0,1.0,-0.451174855232,-0.0352797731757,-0.220646813512,1.21846967915e-07,0.0,0.0,0.0,1.21846967915e-07,0.0,0.0,0.0,1.21846967915e-07,0.4707192,0.73549875,12.9055514,9e-08,0.0,0.0,0.0,9e-08,0.0,0.0,0.0,9e-08
1536690476064241045,5132,1536690476061050634,base_link,-0.0997126615213,0.0555925015182,0.0416840062756,-0.992587176286,1.0,0.0,0.0,0.0,1.0,0.0,0.0,0.0,1.0,-0.455215930939,0.0147995688021,-0.0917398780584,1.21846967915e-07,0.0,0.0,0.0,1.21846967915e-07,0.0,0.0,0.0,1.21846967915e-07,0.0,0.4707192,9.97336305,9e-08,0.0,0.0,0.0,9e-08,0.0,0.0,0.0,9e-08
1536690476516626716,5133,1536690476516396676,base_link,-0.0128484585847,0.0473780078507,0.0630255324097,-0.996803904361,1.0,0.0,0.0,0.0,1.0,0.0,0.0,0.0,1.0,-0.281497687101,0.0367748178542,-0.0234593097121,1.21846967915e-07,0.0,0.0,0.0,1.21846967915e-07,0.0,0.0,0.0,1.21846967915e-07,-0.20593965,0.3726527,9.16921775,9e-08,0.0,0.0,0.0,9e-08,0.0,0.0,0.0,9e-08
1536690476867515902,5134,1536690476866661566,base_link,0.02530998142,0.0334458221955,0.0630823974641,-0.997126568169,1.0,0.0,0.0,0.0,1.0,0.0,0.0,0.0,1.0,-0.226949393749,0.0239094644785,0.0258223637938,1.21846967915e-07,0.0,0.0,0.0,1.21846967915e-07,0.0,0.0,0.0,1.21846967915e-07,-0.2157463,0.2549729,8.32584585,9e-08,0.0,0.0,0.0,9e-08,0.0,0.0,0.0,9e-08
1536690477252279521,5135,1536690477248352561,base_link,0.0586960114478,0.0196954402788,0.0572765345027,-0.996436784983,1.0,0.0,0.0,0.0,1.0,0.0,0.0,0.0,1.0,-0.134465634823,0.0983450636268,0.1010851264,1.21846967915e-07,0.0,0.0,0.0,1.21846967915e-07,0.0,0.0,0.0,1.21846967915e-07,-0.28439285,0.2745862,8.85540495,9e-08,0.0,0.0,0.0,9e-08,0.0,0.0,0.0,9e-08
1536690477629483418,5136,1536690477628420481,base_link,0.0747643719766,-0.00602108430088,0.0396217361367,-0.996395580707,1.0,0.0,0.0,0.0,1.0,0.0,0.0,0.0,1.0,-0.0324610546231,0.119906157255,0.0962021797895,1.21846967915e-07,0.0,0.0,0.0,1.21846967915e-07,0.0,0.0,0.0,1.21846967915e-07,-0.3530394,0.36284605,8.1002929,9e-08,0.0,0.0,0.0,9e-08,0.0,0.0,0.0,9e-08
1536690478102234067,5137,1536690478101949021,base_link,0.069406505688,-0.0369604159064,0.0240583124671,-0.996613195892,1.0,0.0,0.0,0.0,1.0,0.0,0.0,0.0,1.0,0.0910512730479,0.117298558354,0.0940739884973,1.21846967915e-07,0.0,0.0,0.0,1.21846967915e-07,0.0,0.0,0.0,1.21846967915e-07,-0.2941995,0.08825985,7.5903471,9e-08,0.0,0.0,0.0,9e-08,0.0,0.0,0.0,9e-08
1536690478406256852,5138,1536690478405734215,base_link,0.0652905336397,-0.0477147291231,0.00617789546297,-0.996705716071,1.0,0.0,0.0,0.0,1.0,0.0,0.0,0.0,1.0,0.0132663417608,0.0400345772505,0.133121877909,1.21846967915e-07,0.0,0.0,0.0,1.21846967915e-07,0.0,0.0,0.0,1.21846967915e-07,-0.22555295,0.392266,9.30651085,9e-08,0.0,0.0,0.0,9e-08,0.0,0.0,0.0,9e-08
1536690478810041785,5139,1536690478809730757,base_link,0.0571040912526,-0.0550644143724,-0.0152694419427,-0.996731597359,1.0,0.0,0.0,0.0,1.0,0.0,0.0,0.0,1.0,0.241214811802,0.00693766865879,0.0829280093312,1.21846967915e-07,0.0,0.0,0.0,1.21846967915e-07,0.0,0.0,0.0,1.21846967915e-07,-0.20593965,0.3334261,9.3947707,9e-08,0.0,0.0,0.0,9e-08,0.0,0.0,0.0,9e-08
1536690479204736782,5140,1536690479204442393,base_link,0.0486219009751,-0.0539385828881,-0.0315568723811,-0.996860423443,1.0,0.0,0.0,0.0,1.0,0.0,0.0,0.0,1.0,0.00217745359987,-0.0255913157016,0.0838957726955,1.21846967915e-07,0.0,0.0,0.0,1.21846967915e-07,0.0,0.0,0.0,1.21846967915e-07,0.02941995,0.42168595,10.73828175,9e-08,0.0,0.0,0.0,9e-08,0.0,0.0,0.0,9e-08
1536690479601416570,5141,1536690479601046343,base_link,0.00196071976674,-0.033903508451,-0.0359007554415,-0.998778175298,1.0,0.0,0.0,0.0,1.0,0.0,0.0,0.0,1.0,0.328234791756,-0.11324787885,-0.00216267933138,1.21846967915e-07,0.0,0.0,0.0,1.21846967915e-07,0.0,0.0,0.0,1.21846967915e-07,0.196133,0.16671305,11.20900095,9e-08,0.0,0.0,0.0,9e-08,0.0,0.0,0.0,9e-08
1536690479964841870,5142,1536690479964603639,base_link,-0.0262878463481,-0.0230420685796,-0.0453440930676,-0.998359617289,1.0,0.0,0.0,0.0,1.0,0.0,0.0,0.0,1.0,0.101374305785,-0.0959633365273,0.102080874145,1.21846967915e-07,0.0,0.0,0.0,1.21846967915e-07,0.0,0.0,0.0,1.21846967915e-07,0.2549729,0.30400615,11.2188076,9e-08,0.0,0.0,0.0,9e-08,0.0,0.0,0.0,9e-08
1536690480303135424,5143,1536690480302920328,base_link,0.00112992808306,-0.00866669881396,-0.0633256022789,-0.997954648113,1.0,0.0,0.0,0.0,1.0,0.0,0.0,0.0,1.0,-0.140405133367,-0.0537182949483,0.073681794107,1.21846967915e-07,0.0,0.0,0.0,1.21846967915e-07,0.0,0.0,0.0,1.21846967915e-07,0.87279185,0.7649187,14.4942287,9e-08,0.0,0.0,0.0,9e-08,0.0,0.0,0.0,9e-08
1536690480805080038,5144,1536690480804856622,base_link,0.000421143044415,-0.0210491465666,-0.0609109513209,-0.99792114522,1.0,0.0,0.0,0.0,1.0,0.0,0.0,0.0,1.0,0.110814906657,0.0499940477312,-0.017076715827,1.21846967915e-07,0.0,0.0,0.0,1.21846967915e-07,0.0,0.0,0.0,1.21846967915e-07,0.30400615,0.6276256,8.99269805,9e-08,0.0,0.0,0.0,9e-08,0.0,0.0,0.0,9e-08
1536690481151418288,5145,1536690481151121883,base_link,-0.0513315989808,-0.0318210321096,-0.0567920149487,-0.996557653074,1.0,0.0,0.0,0.0,1.0,0.0,0.0,0.0,1.0,0.389932662249,-0.0275857057422,0.00120678707026,1.21846967915e-07,0.0,0.0,0.0,1.21846967915e-07,0.0,0.0,0.0,1.21846967915e-07,0.26477955,0.22555295,7.83551335,9e-08,0.0,0.0,0.0,9e-08,0.0,0.0,0.0,9e-08
1536690481601657447,5146,1536690481601385617,base_link,-0.0953096774906,-0.0261505513806,-0.060583973026,-0.993258172003,1.0,0.0,0.0,0.0,1.0,0.0,0.0,0.0,1.0,0.0492515154183,-0.037819262594,-0.0288364477456,1.21846967915e-07,0.0,0.0,0.0,1.21846967915e-07,0.0,0.0,0.0,1.21846967915e-07,0.3530394,0.69627215,8.30623255,9e-08,0.0,0.0,0.0,9e-08,0.0,0.0,0.0,9e-08
1536690482003521715,5147,1536690482003221246,base_link,-0.106286464752,-0.0155199003249,-0.0502359873891,-0.992944442391,1.0,0.0,0.0,0.0,1.0,0.0,0.0,0.0,1.0,0.0620462857187,-0.152308791876,-0.0803148970008,1.21846967915e-07,0.0,0.0,0.0,1.21846967915e-07,0.0,0.0,0.0,1.21846967915e-07,0.2941995,0.93163175,10.591182,9e-08,0.0,0.0,0.0,9e-08,0.0,0.0,0.0,9e-08
1536690482244816987,5148,1536690482244411849,base_link,-0.121500179516,-0.00233050322174,-0.0366059770459,-0.991913442583,1.0,0.0,0.0,0.0,1.0,0.0,0.0,0.0,1.0,0.00272761145607,-0.1086666435,-0.0820847898722,1.21846967915e-07,0.0,0.0,0.0,1.21846967915e-07,0.0,0.0,0.0,1.21846967915e-07,0.63743225,0.57859235,11.54242705,9e-08,0.0,0.0,0.0,9e-08,0.0,0.0,0.0,9e-08
1536690482651868040,5149,1536690482650243940,base_link,-0.110911732426,0.0199421453553,-0.0144487103386,-0.993525104473,1.0,0.0,0.0,0.0,1.0,0.0,0.0,0.0,1.0,-0.0874850153923,-0.110613062978,-0.131560057402,1.21846967915e-07,0.0,0.0,0.0,1.21846967915e-07,0.0,0.0,0.0,1.21846967915e-07,0.63743225,0.46091255,11.89546645,9e-08,0.0,0.0,0.0,9e-08,0.0,0.0,0.0,9e-08
1536690483110875068,5150,1536690483110555719,base_link,-0.0889042104007,0.0360703262327,0.00527495980023,-0.995372868697,1.0,0.0,0.0,0.0,1.0,0.0,0.0,0.0,1.0,-0.063588514924,-0.0733255147934,-0.0520637407899,1.21846967915e-07,0.0,0.0,0.0,1.21846967915e-07,0.0,0.0,0.0,1.21846967915e-07,0.36284605,0.5099458,10.8265416,9e-08,0.0,0.0,0.0,9e-08,0.0,0.0,0.0,9e-08
1536690483512847172,5151,1536690483512560367,base_link,-0.0667882097765,0.0331266420793,0.013620174819,-0.9971240903,1.0,0.0,0.0,0.0,1.0,0.0,0.0,0.0,1.0,-0.221419781446,0.0257383845747,-0.032871119678,1.21846967915e-07,0.0,0.0,0.0,1.21846967915e-07,0.0,0.0,0.0,1.21846967915e-07,0.3726527,0.36284605,9.5516771,9e-08,0.0,0.0,0.0,9e-08,0.0,0.0,0.0,9e-08
1536690483807300005,5152,1536690483806958866,base_link,-0.0226308316252,0.0263648312626,0.0158068343499,-0.999271176969,1.0,0.0,0.0,0.0,1.0,0.0,0.0,0.0,1.0,-0.262842804193,0.0307521857321,-0.0161952953786,1.21846967915e-07,0.0,0.0,0.0,1.21846967915e-07,0.0,0.0,0.0,1.21846967915e-07,0.44129925,0.57859235,10.1793027,9e-08,0.0,0.0,0.0,9e-08,0.0,0.0,0.0,9e-08
1536690484323871504,5153,1536690484323537085,base_link,-0.0133261250343,0.0157249298192,0.0274938332916,-0.999409440672,1.0,0.0,0.0,0.0,1.0,0.0,0.0,0.0,1.0,0.129409849644,0.0922320112586,-0.029940860346,1.21846967915e-07,0.0,0.0,0.0,1.21846967915e-07,0.0,0.0,0.0,1.21846967915e-07,0.38245935,-0.02941995,9.48303055,9e-08,0.0,0.0,0.0,9e-08,0.0,0.0,0.0,9e-08
1536690484748571828,5154,1536690484748188098,base_link,-0.0144901311574,0.0112045472485,0.0104792449788,-0.999777315028,1.0,0.0,0.0,0.0,1.0,0.0,0.0,0.0,1.0,-0.0235298722982,0.0318580903113,0.0948785170913,1.21846967915e-07,0.0,0.0,0.0,1.21846967915e-07,0.0,0.0,0.0,1.21846967915e-07,0.26477955,0.26477955,9.28689755,9e-08,0.0,0.0,0.0,9e-08,0.0,0.0,0.0,9e-08
1536690485256218919,5155,1536690485255894835,base_link,-0.00344719432788,0.010917576102,-0.00791041776352,-0.999903169649,1.0,0.0,0.0,0.0,1.0,0.0,0.0,0.0,1.0,-0.0321509428322,0.0674370974302,0.0811252444983,1.21846967915e-07,0.0,0.0,0.0,1.21846967915e-07,0.0,0.0,0.0,1.21846967915e-07,0.3726527,0.57859235,10.60098865,9e-08,0.0,0.0,0.0,9e-08,0.0,0.0,0.0,9e-08
1536690485567109515,5156,1536690485564240405,base_link,0.000614982975075,0.00126474713053,-0.0137352844031,-0.999904677543,1.0,0.0,0.0,0.0,1.0,0.0,0.0,0.0,1.0,0.0686093643308,0.0586515925825,0.00294316606596,1.21846967915e-07,0.0,0.0,0.0,1.21846967915e-07,0.0,0.0,0.0,1.21846967915e-07,0.2549729,0.4511059,9.0613446,9e-08,0.0,0.0,0.0,9e-08,0.0,0.0,0.0,9e-08
1536690485879684913,5157,1536690485879297727,base_link,-0.0159682013928,-0.00304386795606,-0.0122179738494,-0.999793214884,1.0,0.0,0.0,0.0,1.0,0.0,0.0,0.0,1.0,0.0441782921553,-0.0461723580956,0.026281921193,1.21846967915e-07,0.0,0.0,0.0,1.21846967915e-07,0.0,0.0,0.0,1.21846967915e-07,0.34323275,0.3726527,8.9240515,9e-08,0.0,0.0,0.0,9e-08,0.0,0.0,0.0,9e-08
1536690486463679592,5158,1536690486463243768,base_link,-0.0230998178824,0.00432941627745,-0.0359902177611,-0.99907575228,1.0,0.0,0.0,0.0,1.0,0.0,0.0,0.0,1.0,0.0794997662306,0.0821213796735,0.103155575693,1.21846967915e-07,0.0,0.0,0.0,1.21846967915e-07,0.0,0.0,0.0,1.21846967915e-07,0.6668522,0.3726527,11.95430635,9e-08,0.0,0.0,0.0,9e-08,0.0,0.0,0.0,9e-08
1536690486853507504,5159,1536690486853083392,base_link,-0.0497949990132,-0.0203819077198,-0.0440863963351,-0.997577779208,1.0,0.0,0.0,0.0,1.0,0.0,0.0,0.0,1.0,0.104246102273,0.0961647704244,-0.0899806246161,1.21846967915e-07,0.0,0.0,0.0,1.21846967915e-07,0.0,0.0,0.0,1.21846967915e-07,0.14709975,0.7256921,6.65871535,9e-08,0.0,0.0,0.0,9e-08,0.0,0.0,0.0,9e-08
1536690487290973373,5160,1536690487290639977,base_link,-0.071129346592,-0.0180663551003,-0.0207571037842,-0.997087441255,1.0,0.0,0.0,0.0,1.0,0.0,0.0,0.0,1.0,0.184325754642,-0.0218988992274,-0.0694107860327,1.21846967915e-07,0.0,0.0,0.0,1.21846967915e-07,0.0,0.0,0.0,1.21846967915e-07,0.2353596,0.51975245,11.48358715,9e-08,0.0,0.0,0.0,9e-08,0.0,0.0,0.0,9e-08
1536690487626579634,5161,1536690487624793748,base_link,-0.0807017678413,-0.0101656411006,-0.0116907457323,-0.996617886089,1.0,0.0,0.0,0.0,1.0,0.0,0.0,0.0,1.0,-0.106561399996,-0.0837953165174,-0.0461176708341,1.21846967915e-07,0.0,0.0,0.0,1.21846967915e-07,0.0,0.0,0.0,1.21846967915e-07,0.30400615,0.59820565,11.20900095,9e-08,0.0,0.0,0.0,9e-08,0.0,0.0,0.0,9e-08
1536690487936188453,5162,1536690487935691480,base_link,-0.0480773383049,-0.00880363949426,-0.00576926339302,-0.998788156254,1.0,0.0,0.0,0.0,1.0,0.0,0.0,0.0,1.0,-0.266424894333,0.0525111556053,-0.0287251248956,1.21846967915e-07,0.0,0.0,0.0,1.21846967915e-07,0.0,0.0,0.0,1.21846967915e-07,0.22555295,0.51975245,9.7085835,9e-08,0.0,0.0,0.0,9e-08,0.0,0.0,0.0,9e-08
1536690488262891843,5163,1536690488262416372,base_link,-0.0458433117651,-0.0118150187869,-4.38997732369e-05,-0.998878768505,1.0,0.0,0.0,0.0,1.0,0.0,0.0,0.0,1.0,0.172717392445,0.0403260812163,-0.0573021620512,1.21846967915e-07,0.0,0.0,0.0,1.21846967915e-07,0.0,0.0,0.0,1.21846967915e-07,0.18632635,0.02941995,9.34573745,9e-08,0.0,0.0,0.0,9e-08,0.0,0.0,0.0,9e-08
1536690488625063493,5164,1536690488624806767,base_link,-0.0622705906872,-0.00394296310519,-0.00274595825974,-0.998047737481,1.0,0.0,0.0,0.0,1.0,0.0,0.0,0.0,1.0,-0.0212003812194,-0.0918214172125,0.049498397857,1.21846967915e-07,0.0,0.0,0.0,1.21846967915e-07,0.0,0.0,0.0,1.21846967915e-07,0.28439285,0.10787315,11.7091401,9e-08,0.0,0.0,0.0,9e-08,0.0,0.0,0.0,9e-08
1536690488991784320,5165,1536690488991274739,base_link,-0.0675915992793,0.00697009468767,-0.00793659862232,-0.997657157489,1.0,0.0,0.0,0.0,1.0,0.0,0.0,0.0,1.0,-0.0841581001878,-0.0388578884304,0.0287137404084,1.21846967915e-07,0.0,0.0,0.0,1.21846967915e-07,0.0,0.0,0.0,1.21846967915e-07,0.3334261,0.6080123,10.65982855,9e-08,0.0,0.0,0.0,9e-08,0.0,0.0,0.0,9e-08
1536690489409858200,5166,1536690489409614625,base_link,-0.0487947348844,0.00324032914398,-0.00555182701457,-0.998788141365,1.0,0.0,0.0,0.0,1.0,0.0,0.0,0.0,1.0,0.00350765930489,0.0122072566301,-0.0338592454791,1.21846967915e-07,0.0,0.0,0.0,1.21846967915e-07,0.0,0.0,0.0,1.21846967915e-07,0.4118793,0.50013915,10.8069283,9e-08,0.0,0.0,0.0,9e-08,0.0,0.0,0.0,9e-08
1536690489915409593,5167,1536690489912285772,base_link,-0.0431826727766,-0.00162308789597,0.000183590455648,-0.999065858015,1.0,0.0,0.0,0.0,1.0,0.0,0.0,0.0,1.0,-0.0179151706398,-0.0225687790662,-0.047005020082,1.21846967915e-07,0.0,0.0,0.0,1.21846967915e-07,0.0,0.0,0.0,1.21846967915e-07,0.08825985,0.4903325,8.87501825,9e-08,0.0,0.0,0.0,9e-08,0.0,0.0,0.0,9e-08
1536690490333289847,5168,1536690490332996578,base_link,-0.0355794115647,0.00563600375942,0.00516882377821,-0.999337592706,1.0,0.0,0.0,0.0,1.0,0.0,0.0,0.0,1.0,-0.00989234447479,-0.0474059358239,0.00606296490878,1.21846967915e-07,0.0,0.0,0.0,1.21846967915e-07,0.0,0.0,0.0,1.21846967915e-07,0.2549729,0.392266,11.03248125,9e-08,0.0,0.0,0.0,9e-08,0.0,0.0,0.0,9e-08
1536690490738277649,5169,1536690490727691767,base_link,-0.0391873702572,0.00245428209871,0.00484694562287,-0.999217110357,1.0,0.0,0.0,0.0,1.0,0.0,0.0,0.0,1.0,0.0924369245768,0.0757628083229,0.0151093639433,1.21846967915e-07,0.0,0.0,0.0,1.21846967915e-07,0.0,0.0,0.0,1.21846967915e-07,-0.0392266,0.0784532,9.85568325,9e-08,0.0,0.0,0.0,9e-08,0.0,0.0,0.0,9e-08
1536690491143893139,5170,1536690491141494027,base_link,-0.0439491126285,0.00336235882482,-0.00139123476014,-0.99902714403,1.0,0.0,0.0,0.0,1.0,0.0,0.0,0.0,1.0,-0.0743448138237,-0.0371921174228,0.00572952628136,1.21846967915e-07,0.0,0.0,0.0,1.21846967915e-07,0.0,0.0,0.0,1.21846967915e-07,0.02941995,0.42168595,10.09104285,9e-08,0.0,0.0,0.0,9e-08,0.0,0.0,0.0,9e-08
1536690491566128817,5171,1536690491565773150,base_link,-0.0239230460576,-0.00237517064476,0.00968915835336,-0.999664026882,1.0,0.0,0.0,0.0,1.0,0.0,0.0,0.0,1.0,0.00541361514479,-0.0526294782758,-0.0780248790979,1.21846967915e-07,0.0,0.0,0.0,1.21846967915e-07,0.0,0.0,0.0,1.21846967915e-07,0.14709975,0.1372931,9.63993695,9e-08,0.0,0.0,0.0,9e-08,0.0,0.0,0.0,9e-08
1536690492047302964,5172,1536690492046950849,base_link,-0.0593453692215,0.00338963049429,0.00825399001491,-0.998197630335,1.0,0.0,0.0,0.0,1.0,0.0,0.0,0.0,1.0,0.194866970181,-0.00334849767387,0.0504114814103,1.21846967915e-07,0.0,0.0,0.0,1.21846967915e-07,0.0,0.0,0.0,1.21846967915e-07,0.2549729,0.2941995,10.1204628,9e-08,0.0,0.0,0.0,9e-08,0.0,0.0,0.0,9e-08
1536690492360396327,5173,1536690492360116017,base_link,-0.0882648411283,0.0117771156769,0.00499266454272,-0.996014904842,1.0,0.0,0.0,0.0,1.0,0.0,0.0,0.0,1.0,0.0706897303462,-0.131035611033,0.00185090233572,1.21846967915e-07,0.0,0.0,0.0,1.21846967915e-07,0.0,0.0,0.0,1.21846967915e-07,0.28439285,0.67665885,10.4931155,9e-08,0.0,0.0,0.0,9e-08,0.0,0.0,0.0,9e-08
1536690492803016854,5174,1536690492802601445,base_link,-0.123293381633,0.0217351104583,0.00927163708317,-0.992088889044,1.0,0.0,0.0,0.0,1.0,0.0,0.0,0.0,1.0,0.175018459558,0.0449263006449,-0.0620056390762,1.21846967915e-07,0.0,0.0,0.0,1.21846967915e-07,0.0,0.0,0.0,1.21846967915e-07,0.30400615,0.5491724,10.36562905,9e-08,0.0,0.0,0.0,9e-08,0.0,0.0,0.0,9e-08
1536690493351396813,5175,1536690493351089656,base_link,-0.181341813479,0.0193471351068,0.0396221942275,-0.982431125714,1.0,0.0,0.0,0.0,1.0,0.0,0.0,0.0,1.0,0.235059559345,0.00528001133353,-0.152210071683,1.21846967915e-07,0.0,0.0,0.0,1.21846967915e-07,0.0,0.0,0.0,1.21846967915e-07,0.32361945,0.50013915,10.0812362,9e-08,0.0,0.0,0.0,9e-08,0.0,0.0,0.0,9e-08
1536690493741405070,5176,1536690493739304028,base_link,-0.225828285686,0.0216251960844,0.0724708766528,-0.971227011731,1.0,0.0,0.0,0.0,1.0,0.0,0.0,0.0,1.0,0.234440505505,-0.0559797398746,-0.18189330399,1.21846967915e-07,0.0,0.0,0.0,1.21846967915e-07,0.0,0.0,0.0,1.21846967915e-07,0.3530394,0.5295591,9.4732239,9e-08,0.0,0.0,0.0,9e-08,0.0,0.0,0.0,9e-08
1536690494107720440,5177,1536690494107345766,base_link,-0.265194084338,0.0282621639328,0.10817470726,-0.95769075407,1.0,0.0,0.0,0.0,1.0,0.0,0.0,0.0,1.0,0.254111647606,-0.0640796422958,-0.189095586538,1.21846967915e-07,0.0,0.0,0.0,1.21846967915e-07,0.0,0.0,0.0,1.21846967915e-07,0.4314926,0.57859235,11.42474725,9e-08,0.0,0.0,0.0,9e-08,0.0,0.0,0.0,9e-08
1536690494608701762,5178,1536690494606249788,base_link,-0.31711984805,0.0381909945115,0.163622004654,-0.933383248995,1.0,0.0,0.0,0.0,1.0,0.0,0.0,0.0,1.0,0.248376831412,-0.0769233852625,-0.279196411371,1.21846967915e-07,0.0,0.0,0.0,1.21846967915e-07,0.0,0.0,0.0,1.21846967915e-07,0.7060788,0.6472389,10.3362091,9e-08,0.0,0.0,0.0,9e-08,0.0,0.0,0.0,9e-08
1536690495139928497,5179,1536690495139677690,base_link,-0.344059379868,0.0714945617225,0.24727412136,-0.902976843377,1.0,0.0,0.0,0.0,1.0,0.0,0.0,0.0,1.0,0.029821889475,-0.332420796156,-0.318662285805,1.21846967915e-07,0.0,0.0,0.0,1.21846967915e-07,0.0,0.0,0.0,1.21846967915e-07,1.0198916,0.91201845,11.71894675,9e-08,0.0,0.0,0.0,9e-08,0.0,0.0,0.0,9e-08
1536690495507805569,5180,1536690495507478062,base_link,-0.349055450113,0.107699117809,0.318816204977,-0.874595575231,1.0,0.0,0.0,0.0,1.0,0.0,0.0,0.0,1.0,0.0912349894643,-0.315998852253,-0.27775105834,1.21846967915e-07,0.0,0.0,0.0,1.21846967915e-07,0.0,0.0,0.0,1.21846967915e-07,1.2944778,0.9610517,13.38607725,9e-08,0.0,0.0,0.0,9e-08,0.0,0.0,0.0,9e-08
1536690495899686334,5181,1536690495896898852,base_link,-0.341478409951,0.145173245023,0.385148794119,-0.844971970455,1.0,0.0,0.0,0.0,1.0,0.0,0.0,0.0,1.0,-0.00305530894548,-0.273436844349,-0.307952791452,1.21846967915e-07,0.0,0.0,0.0,1.21846967915e-07,0.0,0.0,0.0,1.21846967915e-07,1.52003075,1.3337044,14.1019627,9e-08,0.0,0.0,0.0,9e-08,0.0,0.0,0.0,9e-08
1536690496344631927,5182,1536690496344403424,base_link,-0.316150174997,0.178495047648,0.463648876281,-0.808219217996,1.0,0.0,0.0,0.0,1.0,0.0,0.0,0.0,1.0,0.0807822495699,-0.334306567907,-0.306246191263,1.21846967915e-07,0.0,0.0,0.0,1.21846967915e-07,0.0,0.0,0.0,1.21846967915e-07,1.5298374,1.12776475,13.60182355,9e-08,0.0,0.0,0.0,9e-08,0.0,0.0,0.0,9e-08
1536690496648554268,5183,1536690496648333764,base_link,-0.308381139424,0.21410365884,0.50865264168,-0.774811710179,1.0,0.0,0.0,0.0,1.0,0.0,0.0,0.0,1.0,0.0257384795696,-0.342763155699,-0.272045880556,1.21846967915e-07,0.0,0.0,0.0,1.21846967915e-07,0.0,0.0,0.0,1.21846967915e-07,1.4709975,1.0983448,15.1610809,9e-08,0.0,0.0,0.0,9e-08,0.0,0.0,0.0,9e-08
1536690497032979339,5184,1536690497032760659,base_link,-0.275599085123,0.2407955617,0.576187547364,-0.730801308159,1.0,0.0,0.0,0.0,1.0,0.0,0.0,0.0,1.0,-0.128750741482,-0.265869110823,-0.313254714012,1.21846967915e-07,0.0,0.0,0.0,1.21846967915e-07,0.0,0.0,0.0,1.21846967915e-07,1.4513842,1.06892485,14.66094175,9e-08,0.0,0.0,0.0,9e-08,0.0,0.0,0.0,9e-08
1536690497455303717,5185,1536690497454438501,base_link,-0.230649255364,0.267909471906,0.633637387375,-0.688134505154,1.0,0.0,0.0,0.0,1.0,0.0,0.0,0.0,1.0,-0.326825916767,-0.3105289042,-0.168819621205,1.21846967915e-07,0.0,0.0,0.0,1.21846967915e-07,0.0,0.0,0.0,1.21846967915e-07,1.176798,1.0395049,16.5732385,9e-08,0.0,0.0,0.0,9e-08,0.0,0.0,0.0,9e-08
1536690497956932407,5186,1536690497956694784,base_link,0.137742714806,-0.204445115999,-0.712588460178,0.656846120095,1.0,0.0,0.0,0.0,1.0,0.0,0.0,0.0,1.0,-0.403527379036,-0.203699484468,-0.272482544184,1.21846967915e-07,0.0,0.0,0.0,1.21846967915e-07,0.0,0.0,0.0,1.21846967915e-07,0.18632635,0.75511205,9.3163175,9e-08,0.0,0.0,0.0,9e-08,0.0,0.0,0.0,9e-08
1536690498315649849,5187,1536690498313494472,base_link,0.0690907650078,-0.157023037687,-0.753302083106,0.63490645249,1.0,0.0,0.0,0.0,1.0,0.0,0.0,0.0,1.0,-0.633590340614,-0.0553529262543,-0.10613681376,1.21846967915e-07,0.0,0.0,0.0,1.21846967915e-07,0.0,0.0,0.0,1.21846967915e-07,0.0392266,0.53936575,11.1991943,9e-08,0.0,0.0,0.0,9e-08,0.0,0.0,0.0,9e-08
1536690498711387623,5188,1536690498708672811,base_link,0.00843695497928,-0.0797177624705,-0.780373895663,0.620153593156,1.0,0.0,0.0,0.0,1.0,0.0,0.0,0.0,1.0,-0.44860085845,-0.030258083716,-0.0666342005134,1.21846967915e-07,0.0,0.0,0.0,1.21846967915e-07,0.0,0.0,0.0,1.21846967915e-07,-0.3530394,0.28439285,10.24794925,9e-08,0.0,0.0,0.0,9e-08,0.0,0.0,0.0,9e-08
1536690499108853654,5189,1536690499108546689,base_link,-0.0428698384869,-0.0136444976701,-0.786321458272,0.616177384275,1.0,0.0,0.0,0.0,1.0,0.0,0.0,0.0,1.0,-0.366053104401,0.0738888084888,0.0314745046198,1.21846967915e-07,0.0,0.0,0.0,1.21846967915e-07,0.0,0.0,0.0,1.21846967915e-07,-0.42168595,0.3138128,8.8652116,9e-08,0.0,0.0,0.0,9e-08,0.0,0.0,0.0,9e-08
1536690499539715510,5190,1536690499539379650,base_link,-0.0659802689527,0.0429755438628,-0.777475383926,0.623964529543,1.0,0.0,0.0,0.0,1.0,0.0,0.0,0.0,1.0,-0.135940730572,0.122376285493,0.0543803684413,1.21846967915e-07,0.0,0.0,0.0,1.21846967915e-07,0.0,0.0,0.0,1.21846967915e-07,-0.4903325,0.26477955,8.44352565,9e-08,0.0,0.0,0.0,9e-08,0.0,0.0,0.0,9e-08
1536690499811362431,5191,1536690499811034955,base_link,-0.0691601655748,0.0612913666502,-0.770135236061,0.631151295688,1.0,0.0,0.0,0.0,1.0,0.0,0.0,0.0,1.0,-0.0788431167603,0.0409541465342,0.111286103725,1.21846967915e-07,0.0,0.0,0.0,1.21846967915e-07,0.0,0.0,0.0,1.21846967915e-07,-0.588399,0.16671305,9.24767095,9e-08,0.0,0.0,0.0,9e-08,0.0,0.0,0.0,9e-08
1536690500247630328,5192,1536690500247296709,base_link,-0.0594441540437,0.0879347320237,-0.753136824259,0.649244791584,1.0,0.0,0.0,0.0,1.0,0.0,0.0,0.0,1.0,-0.113827198744,0.114930175245,0.109228283167,1.21846967915e-07,0.0,0.0,0.0,1.21846967915e-07,0.0,0.0,0.0,1.21846967915e-07,-0.59820565,0.1176798,6.95291485,9e-08,0.0,0.0,0.0,9e-08,0.0,0.0,0.0,9e-08
1536690500600758280,5193,1536690500600120896,base_link,-0.0391678393701,0.0963030482821,-0.738846680016,0.665805667353,1.0,0.0,0.0,0.0,1.0,0.0,0.0,0.0,1.0,0.0846388265491,0.0619570352137,0.144491121173,1.21846967915e-07,0.0,0.0,0.0,1.21846967915e-07,0.0,0.0,0.0,1.21846967915e-07,-1.18660465,0.59820565,7.4334407,9e-08,0.0,0.0,0.0,9e-08,0.0,0.0,0.0,9e-08
1536690501003275613,5194,1536690501002643540,base_link,-0.0179470445054,0.0921255226052,-0.723538105033,0.683873820411,1.0,0.0,0.0,0.0,1.0,0.0,0.0,0.0,1.0,0.122360698879,0.100031122565,0.169327929616,1.21846967915e-07,0.0,0.0,0.0,1.21846967915e-07,0.0,0.0,0.0,1.21846967915e-07,-1.22583125,0.2353596,8.87501825,9e-08,0.0,0.0,0.0,9e-08,0.0,0.0,0.0,9e-08
1536690501332253638,5195,1536690501331980176,base_link,0.00490072211457,0.0992271765501,-0.704513696966,0.702702213704,1.0,0.0,0.0,0.0,1.0,0.0,0.0,0.0,1.0,-0.0238120816648,0.187879264355,0.0860077887774,1.21846967915e-07,0.0,0.0,0.0,1.21846967915e-07,0.0,0.0,0.0,1.21846967915e-07,-1.2748645,0.5687857,9.58109705,9e-08,0.0,0.0,0.0,9e-08,0.0,0.0,0.0,9e-08
1536690501724200512,5196,1536690501721585888,base_link,0.034192656694,0.0871917944701,-0.706511002369,0.701477481276,1.0,0.0,0.0,0.0,1.0,0.0,0.0,0.0,1.0,0.137918174267,0.0735859796405,0.00190499867313,1.21846967915e-07,0.0,0.0,0.0,1.21846967915e-07,0.0,0.0,0.0,1.21846967915e-07,-1.30428445,0.2353596,8.0022264,9e-08,0.0,0.0,0.0,9e-08,0.0,0.0,0.0,9e-08
1536690502037488619,5197,1536690502037189238,base_link,-0.0439011646141,-0.0744268903599,0.700855867663,-0.708049700586,1.0,0.0,0.0,0.0,1.0,0.0,0.0,0.0,1.0,0.14018958807,-0.0723781883717,0.110940545797,1.21846967915e-07,0.0,0.0,0.0,1.21846967915e-07,0.0,0.0,0.0,1.21846967915e-07,-1.5298374,0.196133,8.50236555,9e-08,0.0,0.0,0.0,9e-08,0.0,0.0,0.0,9e-08
1536690502392854217,5198,1536690502392601202,base_link,-0.0486724352223,-0.059008883676,0.688991519872,-0.720721604533,1.0,0.0,0.0,0.0,1.0,0.0,0.0,0.0,1.0,0.0501952469349,-0.0490601807833,0.0750704631209,1.21846967915e-07,0.0,0.0,0.0,1.21846967915e-07,0.0,0.0,0.0,1.21846967915e-07,-1.4317709,0.24516625,9.5712904,9e-08,0.0,0.0,0.0,9e-08,0.0,0.0,0.0,9e-08
1536690502757345334,5199,1536690502756881863,base_link,-0.044164650997,-0.054489099368,0.68487085226,-0.725280867924,1.0,0.0,0.0,0.0,1.0,0.0,0.0,0.0,1.0,-0.00824979320168,-0.010560455732,-0.0113254701719,1.21846967915e-07,0.0,0.0,0.0,1.21846967915e-07,0.0,0.0,0.0,1.21846967915e-07,-1.34351105,0.4707192,10.20872265,9e-08,0.0,0.0,0.0,9e-08,0.0,0.0,0.0,9e-08
1536690503059524027,5200,1536690503059217670,base_link,-0.0415777764798,-0.0317725758017,0.687517803484,-0.724279684806,1.0,0.0,0.0,0.0,1.0,0.0,0.0,0.0,1.0,0.0980765074492,-0.203462839127,-0.0251085888594,1.21846967915e-07,0.0,0.0,0.0,1.21846967915e-07,0.0,0.0,0.0,1.21846967915e-07,-1.28467115,0.2353596,11.4737805,9e-08,0.0,0.0,0.0,9e-08,0.0,0.0,0.0,9e-08
1536690503415461923,5201,1536690503406695750,base_link,-0.0384063483627,0.0109932718059,0.687244400347,-0.725326984588,1.0,0.0,0.0,0.0,1.0,0.0,0.0,0.0,1.0,0.168584033847,-0.110874578357,0.0590239837766,1.21846967915e-07,0.0,0.0,0.0,1.21846967915e-07,0.0,0.0,0.0,1.21846967915e-07,-0.75511205,0.46091255,13.79795655,9e-08,0.0,0.0,0.0,9e-08,0.0,0.0,0.0,9e-08
1536690503768816170,5202,1536690503766251657,base_link,-0.0378342731619,0.0186613606196,0.681347796952,-0.73074311559,1.0,0.0,0.0,0.0,1.0,0.0,0.0,0.0,1.0,-0.0291055515409,-0.0269496031106,-0.00442843046039,1.21846967915e-07,0.0,0.0,0.0,1.21846967915e-07,0.0,0.0,0.0,1.21846967915e-07,-1.0591182,0.588399,10.1400761,9e-08,0.0,0.0,0.0,9e-08,0.0,0.0,0.0,9e-08
1536690504108207092,5203,1536690504107850721,base_link,-0.019565887496,0.0186531637677,0.686030329377,-0.72707057615,1.0,0.0,0.0,0.0,1.0,0.0,0.0,0.0,1.0,-0.0611229352653,-0.0614907629788,-0.0433116182685,1.21846967915e-07,0.0,0.0,0.0,1.21846967915e-07,0.0,0.0,0.0,1.21846967915e-07,-1.0002783,0.30400615,9.7281968,9e-08,0.0,0.0,0.0,9e-08,0.0,0.0,0.0,9e-08
1536690504546813143,5204,1536690504546436805,base_link,-0.0166841940111,0.0268026566383,0.691212763364,-0.721961336243,1.0,0.0,0.0,0.0,1.0,0.0,0.0,0.0,1.0,0.0917963758111,0.0140158720315,-0.0286643542349,1.21846967915e-07,0.0,0.0,0.0,1.21846967915e-07,0.0,0.0,0.0,1.21846967915e-07,-0.91201845,0.38245935,9.6889702,9e-08,0.0,0.0,0.0,9e-08,0.0,0.0,0.0,9e-08
1536690504949050262,5205,1536690504948767009,base_link,-0.0465617691175,0.0495038955908,0.690838751861,-0.719807741627,1.0,0.0,0.0,0.0,1.0,0.0,0.0,0.0,1.0,0.210377693176,-0.0361651405692,-0.0026280824095,1.21846967915e-07,0.0,0.0,0.0,1.21846967915e-07,0.0,0.0,0.0,1.21846967915e-07,-0.9414384,0.2157463,9.2378643,9e-08,0.0,0.0,0.0,9e-08,0.0,0.0,0.0,9e-08
1536690505290190368,5206,1536690505289854892,base_link,-0.0500295974392,0.0739545504348,0.693216738579,-0.715177122959,1.0,0.0,0.0,0.0,1.0,0.0,0.0,0.0,1.0,0.124155573547,-0.0783427730203,-0.0614698380232,1.21846967915e-07,0.0,0.0,0.0,1.21846967915e-07,0.0,0.0,0.0,1.21846967915e-07,-0.18632635,0.1765197,12.93497135,9e-08,0.0,0.0,0.0,9e-08,0.0,0.0,0.0,9e-08
1536690505698650393,5207,1536690505698009393,base_link,-0.0759601330558,0.0946701068211,0.69956468473,-0.704185260382,1.0,0.0,0.0,0.0,1.0,0.0,0.0,0.0,1.0,0.128081589937,0.0290482752025,-0.0837657526135,1.21846967915e-07,0.0,0.0,0.0,1.21846967915e-07,0.0,0.0,0.0,1.21846967915e-07,-0.81395195,0.55897905,7.6295737,9e-08,0.0,0.0,0.0,9e-08,0.0,0.0,0.0,9e-08
1536690506151886369,5208,1536690506151348373,base_link,0.0929251117862,-0.114785259366,-0.713678657591,0.684727713424,1.0,0.0,0.0,0.0,1.0,0.0,0.0,0.0,1.0,0.159402117133,-0.00129621173255,-0.136812910438,1.21846967915e-07,0.0,0.0,0.0,1.21846967915e-07,0.0,0.0,0.0,1.21846967915e-07,-0.57859235,0.48052585,9.2574776,9e-08,0.0,0.0,0.0,9e-08,0.0,0.0,0.0,9e-08
1536690506531089424,5209,1536690506529809312,base_link,0.117159484116,-0.135016823129,-0.732927820469,0.656399971615,1.0,0.0,0.0,0.0,1.0,0.0,0.0,0.0,1.0,0.10352627933,-0.0567789711058,-0.20607252419,1.21846967915e-07,0.0,0.0,0.0,1.21846967915e-07,0.0,0.0,0.0,1.21846967915e-07,-0.53936575,0.53936575,9.0809579,9e-08,0.0,0.0,0.0,9e-08,0.0,0.0,0.0,9e-08
1536690506920403403,5210,1536690506919272373,base_link,0.106211745926,-0.148014761662,-0.764836502869,0.617928652221,1.0,0.0,0.0,0.0,1.0,0.0,0.0,0.0,1.0,0.111002929509,-0.212615743279,-0.281781464815,1.21846967915e-07,0.0,0.0,0.0,1.21846967915e-07,0.0,0.0,0.0,1.21846967915e-07,0.4118793,0.5491724,12.48386545,9e-08,0.0,0.0,0.0,9e-08,0.0,0.0,0.0,9e-08
1536690507347988004,5211,1536690507347217153,base_link,0.102671994867,-0.179101929994,-0.799298931618,0.564359972055,1.0,0.0,0.0,0.0,1.0,0.0,0.0,0.0,1.0,0.0541479103267,-0.0622769668698,-0.27057275176,1.21846967915e-07,0.0,0.0,0.0,1.21846967915e-07,0.0,0.0,0.0,1.21846967915e-07,0.0392266,0.5687857,10.28717585,9e-08,0.0,0.0,0.0,9e-08,0.0,0.0,0.0,9e-08
1536690507701367403,5212,1536690507701023320,base_link,0.102978423658,-0.216967908728,-0.822371592772,0.515776438241,1.0,0.0,0.0,0.0,1.0,0.0,0.0,0.0,1.0,0.191193878651,-0.277544558048,-0.26087898016,1.21846967915e-07,0.0,0.0,0.0,1.21846967915e-07,0.0,0.0,0.0,1.21846967915e-07,0.34323275,0.2941995,11.2972608,9e-08,0.0,0.0,0.0,9e-08,0.0,0.0,0.0,9e-08
1536690508103475086,5213,1536690508103099740,base_link,0.0714716159396,-0.246279289227,-0.849593898001,0.460899694393,1.0,0.0,0.0,0.0,1.0,0.0,0.0,0.0,1.0,-0.0985786467791,-0.222259134054,-0.263759255409,1.21846967915e-07,0.0,0.0,0.0,1.21846967915e-07,0.0,0.0,0.0,1.21846967915e-07,0.34323275,0.6080123,10.22833595,9e-08,0.0,0.0,0.0,9e-08,0.0,0.0,0.0,9e-08
1536690508491822541,5214,1536690508491355006,base_link,0.0389740353598,-0.246075900321,-0.880148634522,0.404061946981,1.0,0.0,0.0,0.0,1.0,0.0,0.0,0.0,1.0,-0.236353948712,-0.233832746744,-0.302770346403,1.21846967915e-07,0.0,0.0,0.0,1.21846967915e-07,0.0,0.0,0.0,1.21846967915e-07,0.7060788,0.6080123,10.40485565,9e-08,0.0,0.0,0.0,9e-08,0.0,0.0,0.0,9e-08
1536690508962607087,5215,1536690508962327449,base_link,0.00873668942725,-0.206264029429,-0.920722488697,0.331132781871,1.0,0.0,0.0,0.0,1.0,0.0,0.0,0.0,1.0,-0.132531329989,-0.0597274564207,-0.324790686369,1.21846967915e-07,0.0,0.0,0.0,1.21846967915e-07,0.0,0.0,0.0,1.21846967915e-07,0.7060788,0.34323275,10.2381426,9e-08,0.0,0.0,0.0,9e-08,0.0,0.0,0.0,9e-08
1536690509402679100,5216,1536690509402254955,base_link,0.0262916799954,-0.169264752838,-0.944874862169,0.279051403598,1.0,0.0,0.0,0.0,1.0,0.0,0.0,0.0,1.0,-0.0120105845854,0.151004329324,-0.267559230328,1.21846967915e-07,0.0,0.0,0.0,1.21846967915e-07,0.0,0.0,0.0,1.21846967915e-07,0.4314926,0.36284605,8.14932615,9e-08,0.0,0.0,0.0,9e-08,0.0,0.0,0.0,9e-08
1536690509736852518,5217,1536690509736574416,base_link,0.0454895720404,-0.171465376349,-0.953617318165,0.243196081473,1.0,0.0,0.0,0.0,1.0,0.0,0.0,0.0,1.0,0.0490821823478,0.00926344655454,-0.173501208425,1.21846967915e-07,0.0,0.0,0.0,1.21846967915e-07,0.0,0.0,0.0,1.21846967915e-07,0.5099458,0.38245935,8.7279185,9e-08,0.0,0.0,0.0,9e-08,0.0,0.0,0.0,9e-08
1536690510145027338,5218,1536690510144811058,base_link,0.0409650718915,-0.15161665699,-0.963671945186,0.216033872969,1.0,0.0,0.0,0.0,1.0,0.0,0.0,0.0,1.0,-0.217771619558,-0.0329696722329,-0.130525588989,1.21846967915e-07,0.0,0.0,0.0,1.21846967915e-07,0.0,0.0,0.0,1.21846967915e-07,0.51975245,0.81395195,9.2574776,9e-08,0.0,0.0,0.0,9e-08,0.0,0.0,0.0,9e-08
1536690510590516495,5219,1536690510589045637,base_link,0.0409683231886,-0.115847109638,-0.976133099778,0.179067627454,1.0,0.0,0.0,0.0,1.0,0.0,0.0,0.0,1.0,0.0186515338719,0.0894249454141,-0.128261134028,1.21846967915e-07,0.0,0.0,0.0,1.21846967915e-07,0.0,0.0,0.0,1.21846967915e-07,0.53936575,0.5491724,9.32612415,9e-08,0.0,0.0,0.0,9e-08,0.0,0.0,0.0,9e-08
1536690510967884418,5220,1536690510967659402,base_link,0.0558029507683,-0.123767098578,-0.97604926238,0.1699869801,1.0,0.0,0.0,0.0,1.0,0.0,0.0,0.0,1.0,-0.0017929552123,0.0303968563676,-0.00823976099491,1.21846967915e-07,0.0,0.0,0.0,1.21846967915e-07,0.0,0.0,0.0,1.21846967915e-07,0.55897905,0.77472535,9.1986377,9e-08,0.0,0.0,0.0,9e-08,0.0,0.0,0.0,9e-08
1536690511360863446,5221,1536690511360380488,base_link,0.0406071427389,-0.109784676756,-0.980904567309,0.155321004828,1.0,0.0,0.0,0.0,1.0,0.0,0.0,0.0,1.0,-0.0446862317622,-0.0972493514419,-0.130586877465,1.21846967915e-07,0.0,0.0,0.0,1.21846967915e-07,0.0,0.0,0.0,1.21846967915e-07,0.6472389,0.95124505,10.4342756,9e-08,0.0,0.0,0.0,9e-08,0.0,0.0,0.0,9e-08
1536690511822409772,5222,1536690511822007163,base_link,0.0328429173513,-0.118172752156,-0.985320978498,0.118739684855,1.0,0.0,0.0,0.0,1.0,0.0,0.0,0.0,1.0,0.0598551779985,-0.0281025581062,-0.120271362364,1.21846967915e-07,0.0,0.0,0.0,1.21846967915e-07,0.0,0.0,0.0,1.21846967915e-07,0.71588545,0.5099458,10.9049948,9e-08,0.0,0.0,0.0,9e-08,0.0,0.0,0.0,9e-08
1536690512324587305,5223,1536690512323933857,base_link,0.0191042716712,-0.134669665683,-0.986404932765,0.0922193936499,1.0,0.0,0.0,0.0,1.0,0.0,0.0,0.0,1.0,-0.0717911720276,-0.12294203043,-0.0801452472806,1.21846967915e-07,0.0,0.0,0.0,1.21846967915e-07,0.0,0.0,0.0,1.21846967915e-07,0.588399,0.9218251,10.3165958,9e-08,0.0,0.0,0.0,9e-08,0.0,0.0,0.0,9e-08
1536690512686904327,5224,1536690512685522809,base_link,-0.00624593957419,-0.122183556417,-0.990425134512,0.0639548255214,1.0,0.0,0.0,0.0,1.0,0.0,0.0,0.0,1.0,-0.0239999033511,-0.16062875092,-0.155620798469,1.21846967915e-07,0.0,0.0,0.0,1.21846967915e-07,0.0,0.0,0.0,1.21846967915e-07,0.6276256,1.08853815,11.2188076,9e-08,0.0,0.0,0.0,9e-08,0.0,0.0,0.0,9e-08
