%time,field.header.seq,field.header.stamp,field.header.frame_id,field.orientation.x,field.orientation.y,field.orientation.z,field.orientation.w,field.orientation_covariance0,field.orientation_covariance1,field.orientation_covariance2,field.orientation_covariance3,field.orientation_covariance4,field.orientation_covariance5,field.orientation_covariance6,field.orientation_covariance7,field.orientation_covariance8,field.angular_velocity.x,field.angular_velocity.y,field.angular_velocity.z,field.angular_velocity_covariance0,field.angular_velocity_covariance1,field.angular_velocity_covariance2,field.angular_velocity_covariance3,field.angular_velocity_covariance4,field.angular_velocity_covariance5,field.angular_velocity_covariance6,field.angular_velocity_covariance7,field.angular_velocity_covariance8,field.linear_acceleration.x,field.linear_acceleration.y,field.linear_acceleration.z,field.linear_acceleration_covariance0,field.linear_acceleration_covariance1,field.linear_acceleration_covariance2,field.linear_acceleration_covariance3,field.linear_acceleration_covariance4,field.linear_acceleration_covariance5,field.linear_acceleration_covariance6,field.linear_acceleration_covariance7,field.linear_acceleration_covariance8
1536693691449144888,6594,1536693691448837048,base_link,0.00399611050235,-0.0855588963402,-0.982213897961,-0.167091486949,1.0,0.0,0.0,0.0,1.0,0.0,0.0,0.0,1.0,0.657208859921,0.0246329195797,-0.00568712782115,1.21846967915e-07,0.0,0.0,0.0,1.21846967915e-07,0.0,0.0,0.0,1.21846967915e-07,-0.0392266,0.392266,9.7674234,9e-08,0.0,0.0,0.0,9e-08,0.0,0.0,0.0,9e-08
1536693691832228952,6595,1536693691831813944,base_link,-0.0137156147482,-0.182548170693,-0.967558720121,-0.174121137164,1.0,0.0,0.0,0.0,1.0,0.0,0.0,0.0,1.0,0.485656738281,-0.0294192507863,-0.0667654648423,1.21846967915e-07,0.0,0.0,0.0,1.21846967915e-07,0.0,0.0,0.0,1.21846967915e-07,0.0588399,0.588399,9.89490985,9e-08,0.0,0.0,0.0,9e-08,0.0,0.0,0.0,9e-08
1536693692194392152,6596,1536693692194097048,base_link,-0.033292534644,-0.254055619568,-0.946613307822,-0.195628716597,1.0,0.0,0.0,0.0,1.0,0.0,0.0,0.0,1.0,0.396387726068,-0.0845165252686,-0.170937269926,1.21846967915e-07,0.0,0.0,0.0,1.21846967915e-07,0.0,0.0,0.0,1.21846967915e-07,0.1765197,0.8629852,10.5715687,9e-08,0.0,0.0,0.0,9e-08,0.0,0.0,0.0,9e-08
1536693692639880184,6597,1536693692639510616,base_link,-0.0644841497982,-0.317492802128,-0.912229765286,-0.250752807259,1.0,0.0,0.0,0.0,1.0,0.0,0.0,0.0,1.0,0.271951973438,-0.208981215954,-0.276983767748,1.21846967915e-07,0.0,0.0,0.0,1.21846967915e-07,0.0,0.0,0.0,1.21846967915e-07,0.5295591,0.8237586,10.9638347,9e-08,0.0,0.0,0.0,9e-08,0.0,0.0,0.0,9e-08
1536693693040134520,6598,1536693693038970008,base_link,-0.109476362822,-0.347675839809,-0.876459454053,-0.314571552746,1.0,0.0,0.0,0.0,1.0,0.0,0.0,0.0,1.0,0.110461041331,-0.313971847296,-0.244527474046,1.21846967915e-07,0.0,0.0,0.0,1.21846967915e-07,0.0,0.0,0.0,1.21846967915e-07,0.99047165,0.7649187,13.18994425,9e-08,0.0,0.0,0.0,9e-08,0.0,0.0,0.0,9e-08
1536693693323636216,6599,1536693693323428792,base_link,-0.143023025301,-0.343037109128,-0.85690028483,-0.35720002499,1.0,0.0,0.0,0.0,1.0,0.0,0.0,0.0,1.0,-0.00495540723205,-0.329967439175,-0.221688956022,1.21846967915e-07,0.0,0.0,0.0,1.21846967915e-07,0.0,0.0,0.0,1.21846967915e-07,1.30428445,1.4317709,14.513842,9e-08,0.0,0.0,0.0,9e-08,0.0,0.0,0.0,9e-08
1536693693800942840,6600,1536693693800522712,base_link,-0.187713997385,-0.327591858741,-0.814421670861,-0.440640864316,1.0,0.0,0.0,0.0,1.0,0.0,0.0,0.0,1.0,0.0021247304976,-0.31280374527,-0.313965082169,1.21846967915e-07,0.0,0.0,0.0,1.21846967915e-07,0.0,0.0,0.0,1.21846967915e-07,1.2748645,1.2748645,13.6116302,9e-08,0.0,0.0,0.0,9e-08,0.0,0.0,0.0,9e-08
1536693694106913624,6601,1536693694106301656,base_link,-0.214632990942,-0.313178206154,-0.782397561015,-0.493666027702,1.0,0.0,0.0,0.0,1.0,0.0,0.0,0.0,1.0,0.00669305957854,-0.322570294142,-0.300188809633,1.21846967915e-07,0.0,0.0,0.0,1.21846967915e-07,0.0,0.0,0.0,1.21846967915e-07,1.42196425,1.2944778,13.66066345,9e-08,0.0,0.0,0.0,9e-08,0.0,0.0,0.0,9e-08
1536693694537937208,6602,1536693694537454296,base_link,-0.256846085095,-0.289350430584,-0.727284502012,-0.566889468966,1.0,0.0,0.0,0.0,1.0,0.0,0.0,0.0,1.0,-0.0131035037339,-0.35586348176,-0.279363900423,1.21846967915e-07,0.0,0.0,0.0,1.21846967915e-07,0.0,0.0,0.0,1.21846967915e-07,1.4317709,0.95124505,13.83718315,9e-08,0.0,0.0,0.0,9e-08,0.0,0.0,0.0,9e-08
1536693694945446520,6603,1536693694945229848,base_link,-0.29679800082,-0.259381335909,-0.67237842641,-0.626529744696,1.0,0.0,0.0,0.0,1.0,0.0,0.0,0.0,1.0,-0.0112007595599,-0.34584659338,-0.281082034111,1.21846967915e-07,0.0,0.0,0.0,1.21846967915e-07,0.0,0.0,0.0,1.21846967915e-07,1.2944778,1.372931,15.11204765,9e-08,0.0,0.0,0.0,9e-08,0.0,0.0,0.0,9e-08
1536693695306607032,6604,1536693695306372248,base_link,-0.319274403035,-0.231321318525,-0.61902917741,-0.679232788282,1.0,0.0,0.0,0.0,1.0,0.0,0.0,0.0,1.0,-0.00876264460385,-0.312108367682,-0.315362393856,1.21846967915e-07,0.0,0.0,0.0,1.21846967915e-07,0.0,0.0,0.0,1.21846967915e-07,1.18660465,1.2552512,13.68027675,9e-08,0.0,0.0,0.0,9e-08,0.0,0.0,0.0,9e-08
1536693695685108952,6605,1536693695684912504,base_link,-0.338386139826,-0.205749167327,-0.557221269901,-0.729840089943,1.0,0.0,0.0,0.0,1.0,0.0,0.0,0.0,1.0,-0.00139491818845,-0.287743002176,-0.326847553253,1.21846967915e-07,0.0,0.0,0.0,1.21846967915e-07,0.0,0.0,0.0,1.21846967915e-07,0.8629852,1.2552512,12.64077185,9e-08,0.0,0.0,0.0,9e-08,0.0,0.0,0.0,9e-08
1536693696127138488,6606,1536693696126939736,base_link,-0.357992604039,-0.173553121204,-0.47682276777,-0.783811621316,1.0,0.0,0.0,0.0,1.0,0.0,0.0,0.0,1.0,-0.0205078739673,-0.296560883522,-0.325274020433,1.21846967915e-07,0.0,0.0,0.0,1.21846967915e-07,0.0,0.0,0.0,1.21846967915e-07,0.7453054,0.97085835,12.6898051,9e-08,0.0,0.0,0.0,9e-08,0.0,0.0,0.0,9e-08
1536693696444886744,6607,1536693696444308056,base_link,-0.369079862046,-0.157280918197,-0.422761488306,-0.812597989296,1.0,0.0,0.0,0.0,1.0,0.0,0.0,0.0,1.0,0.0261807180941,-0.247830659151,-0.317147761583,1.21846967915e-07,0.0,0.0,0.0,1.21846967915e-07,0.0,0.0,0.0,1.21846967915e-07,0.4511059,1.0983448,11.99353295,9e-08,0.0,0.0,0.0,9e-08,0.0,0.0,0.0,9e-08
1536693696703252184,6608,1536693696703033784,base_link,-0.379553119299,-0.145025270495,-0.37906795044,-0.831393161806,1.0,0.0,0.0,0.0,1.0,0.0,0.0,0.0,1.0,-0.0341073423624,-0.257102996111,-0.295571535826,1.21846967915e-07,0.0,0.0,0.0,1.21846967915e-07,0.0,0.0,0.0,1.21846967915e-07,0.4511059,1.10815145,12.1994726,9e-08,0.0,0.0,0.0,9e-08,0.0,0.0,0.0,9e-08
1536693697051677944,6609,1536693697051217784,base_link,-0.376505718263,-0.121952224265,-0.315994184735,-0.862275347163,1.0,0.0,0.0,0.0,1.0,0.0,0.0,0.0,1.0,-0.105660274625,-0.236995398998,-0.334278076887,1.21846967915e-07,0.0,0.0,0.0,1.21846967915e-07,0.0,0.0,0.0,1.21846967915e-07,0.3138128,1.2748645,10.75789505,9e-08,0.0,0.0,0.0,9e-08,0.0,0.0,0.0,9e-08
1536693697524925176,6610,1536693697524172600,base_link,-0.372758471215,-0.0988597741032,-0.223258535897,-0.895228179489,1.0,0.0,0.0,0.0,1.0,0.0,0.0,0.0,1.0,-0.0110248047858,-0.220650717616,-0.344896197319,1.21846967915e-07,0.0,0.0,0.0,1.21846967915e-07,0.0,0.0,0.0,1.21846967915e-07,0.26477955,0.9218251,11.75817335,9e-08,0.0,0.0,0.0,9e-08,0.0,0.0,0.0,9e-08
1536693697893466744,6611,1536693697893016056,base_link,-0.378495226004,-0.0815446904942,-0.148485817194,-0.909969114551,1.0,0.0,0.0,0.0,1.0,0.0,0.0,0.0,1.0,0.0267481226474,-0.243479266763,-0.3155836761,1.21846967915e-07,0.0,0.0,0.0,1.21846967915e-07,0.0,0.0,0.0,1.21846967915e-07,0.32361945,0.8041453,11.52281375,9e-08,0.0,0.0,0.0,9e-08,0.0,0.0,0.0,9e-08
1536693698336084536,6612,1536693698333886552,base_link,-0.388510064127,-0.0501149459464,-0.0680314938283,-0.917562062268,1.0,0.0,0.0,0.0,1.0,0.0,0.0,0.0,1.0,0.0265285316855,-0.299256533384,-0.306264609098,1.21846967915e-07,0.0,0.0,0.0,1.21846967915e-07,0.0,0.0,0.0,1.21846967915e-07,0.3334261,0.6864655,12.0817928,9e-08,0.0,0.0,0.0,9e-08,0.0,0.0,0.0,9e-08
1536693698775851512,6613,1536693698775453720,base_link,-0.383974373363,-0.00978288758945,0.0161199941818,-0.923151191029,1.0,0.0,0.0,0.0,1.0,0.0,0.0,0.0,1.0,-0.0838596373796,-0.309232443571,-0.302250653505,1.21846967915e-07,0.0,0.0,0.0,1.21846967915e-07,0.0,0.0,0.0,1.21846967915e-07,0.4314926,1.30428445,13.15071765,9e-08,0.0,0.0,0.0,9e-08,0.0,0.0,0.0,9e-08
1536693699037500312,6614,1536693699037057240,base_link,-0.372002875187,0.0123489611587,0.0687877929047,-0.925596890422,1.0,0.0,0.0,0.0,1.0,0.0,0.0,0.0,1.0,-0.1162969172,-0.303841799498,-0.317110866308,1.21846967915e-07,0.0,0.0,0.0,1.21846967915e-07,0.0,0.0,0.0,1.21846967915e-07,0.4511059,1.2356379,13.7881499,9e-08,0.0,0.0,0.0,9e-08,0.0,0.0,0.0,9e-08
1536693699356874840,6615,1536693699355301336,base_link,-0.365900237057,0.0416084971579,0.137955091181,-0.919431423383,1.0,0.0,0.0,0.0,1.0,0.0,0.0,0.0,1.0,0.00569071713835,-0.316168606281,-0.31851375103,1.21846967915e-07,0.0,0.0,0.0,1.21846967915e-07,0.0,0.0,0.0,1.21846967915e-07,0.42168595,0.93163175,13.24878415,9e-08,0.0,0.0,0.0,9e-08,0.0,0.0,0.0,9e-08
1536693699818954616,6616,1536693699818460824,base_link,-0.363226681413,0.0872753238167,0.22149173421,-0.900772339406,1.0,0.0,0.0,0.0,1.0,0.0,0.0,0.0,1.0,0.0272620990872,-0.328731864691,-0.271841317415,1.21846967915e-07,0.0,0.0,0.0,1.21846967915e-07,0.0,0.0,0.0,1.21846967915e-07,0.3726527,1.2160246,13.79795655,9e-08,0.0,0.0,0.0,9e-08,0.0,0.0,0.0,9e-08
1536693700209807320,6617,1536693700209070360,base_link,-0.35111718067,0.127490968114,0.298866884989,-0.878146550153,1.0,0.0,0.0,0.0,1.0,0.0,0.0,0.0,1.0,-0.0843123197556,-0.323089271784,-0.305245280266,1.21846967915e-07,0.0,0.0,0.0,1.21846967915e-07,0.0,0.0,0.0,1.21846967915e-07,0.46091255,0.97085835,13.4743371,9e-08,0.0,0.0,0.0,9e-08,0.0,0.0,0.0,9e-08
1536693700662258744,6618,1536693700661445144,base_link,-0.312255052832,0.15331137045,0.383419184061,-0.855559544956,1.0,0.0,0.0,0.0,1.0,0.0,0.0,0.0,1.0,-0.215319350362,-0.277499735355,-0.314404696226,1.21846967915e-07,0.0,0.0,0.0,1.21846967915e-07,0.0,0.0,0.0,1.21846967915e-07,0.34323275,1.18660465,13.75872995,9e-08,0.0,0.0,0.0,9e-08,0.0,0.0,0.0,9e-08
1536693701001055992,6619,1536693701000786264,base_link,-0.276480648098,0.159721068857,0.440781910056,-0.838903414678,1.0,0.0,0.0,0.0,1.0,0.0,0.0,0.0,1.0,-0.185407012701,-0.22521057725,-0.291395455599,1.21846967915e-07,0.0,0.0,0.0,1.21846967915e-07,0.0,0.0,0.0,1.21846967915e-07,0.24516625,0.73549875,12.93497135,9e-08,0.0,0.0,0.0,9e-08,0.0,0.0,0.0,9e-08
1536693701385138808,6620,1536693701384804888,base_link,-0.218989084115,0.154265760147,0.502436752331,-0.822072482322,1.0,0.0,0.0,0.0,1.0,0.0,0.0,0.0,1.0,-0.315527647734,-0.159575149417,-0.230539396405,1.21846967915e-07,0.0,0.0,0.0,1.21846967915e-07,0.0,0.0,0.0,1.21846967915e-07,0.10787315,0.91201845,12.4348322,9e-08,0.0,0.0,0.0,9e-08,0.0,0.0,0.0,9e-08
1536693701719350008,6621,1536693701718749976,base_link,-0.172943714257,0.145301029231,0.541249102128,-0.809955240769,1.0,0.0,0.0,0.0,1.0,0.0,0.0,0.0,1.0,-0.225841268897,-0.122813180089,-0.152027860284,1.21846967915e-07,0.0,0.0,0.0,1.21846967915e-07,0.0,0.0,0.0,1.21846967915e-07,-0.12748645,0.392266,12.56231865,9e-08,0.0,0.0,0.0,9e-08,0.0,0.0,0.0,9e-08
1536693702110869752,6622,1536693702110525592,base_link,-0.133836705341,0.133855145241,0.568311509319,-0.800745006086,1.0,0.0,0.0,0.0,1.0,0.0,0.0,0.0,1.0,-0.238398969173,-0.0531509704888,-0.112263783813,1.21846967915e-07,0.0,0.0,0.0,1.21846967915e-07,0.0,0.0,0.0,1.21846967915e-07,-0.4118793,0.61781895,10.62060195,9e-08,0.0,0.0,0.0,9e-08,0.0,0.0,0.0,9e-08
1536693702579046808,6623,1536693702578777400,base_link,-0.10568870614,0.105820366143,0.599824779706,-0.786029376776,1.0,0.0,0.0,0.0,1.0,0.0,0.0,0.0,1.0,-0.0522233396769,0.0344907976687,-0.18574270606,1.21846967915e-07,0.0,0.0,0.0,1.21846967915e-07,0.0,0.0,0.0,1.21846967915e-07,-0.5295591,0.65704555,8.4925589,9e-08,0.0,0.0,0.0,9e-08,0.0,0.0,0.0,9e-08
1536693703090806936,6624,1536693703090476824,base_link,-0.140468239195,0.114064620495,0.625251392402,-0.759156526962,1.0,0.0,0.0,0.0,1.0,0.0,0.0,0.0,1.0,0.185944885015,0.0317598544061,-0.119664207101,1.21846967915e-07,0.0,0.0,0.0,1.21846967915e-07,0.0,0.0,0.0,1.21846967915e-07,-0.51975245,0.55897905,8.85540495,9e-08,0.0,0.0,0.0,9e-08,0.0,0.0,0.0,9e-08
1536693703477933336,6625,1536693703477325048,base_link,-0.183390170138,0.135473034542,0.635834755645,-0.737380001033,1.0,0.0,0.0,0.0,1.0,0.0,0.0,0.0,1.0,0.318189769983,0.00824422575533,-0.117807038128,1.21846967915e-07,0.0,0.0,0.0,1.21846967915e-07,0.0,0.0,0.0,1.21846967915e-07,-0.36284605,0.53936575,8.8063717,9e-08,0.0,0.0,0.0,9e-08,0.0,0.0,0.0,9e-08
1536693703884250648,6626,1536693703883940888,base_link,-0.222611501394,0.16386163879,0.650716939993,-0.707220578594,1.0,0.0,0.0,0.0,1.0,0.0,0.0,0.0,1.0,0.184366255999,-0.0308426488191,-0.209753617644,1.21846967915e-07,0.0,0.0,0.0,1.21846967915e-07,0.0,0.0,0.0,1.21846967915e-07,-0.34323275,0.89240515,9.1005712,9e-08,0.0,0.0,0.0,9e-08,0.0,0.0,0.0,9e-08
1536693704249162648,6627,1536693704248779864,base_link,-0.232708666547,0.170453367471,0.679792497491,-0.674295548248,1.0,0.0,0.0,0.0,1.0,0.0,0.0,0.0,1.0,0.039009578526,-0.06711769104,-0.266203343868,1.21846967915e-07,0.0,0.0,0.0,1.21846967915e-07,0.0,0.0,0.0,1.21846967915e-07,-0.12748645,1.0395049,9.610517,9e-08,0.0,0.0,0.0,9e-08,0.0,0.0,0.0,9e-08
1536693704735412280,6628,1536693704735171960,base_link,0.242793679805,-0.201932069467,-0.728334696588,0.608114494247,1.0,0.0,0.0,0.0,1.0,0.0,0.0,0.0,1.0,0.0667715370655,-0.219515874982,-0.260774791241,1.21846967915e-07,0.0,0.0,0.0,1.21846967915e-07,0.0,0.0,0.0,1.21846967915e-07,0.1765197,0.8629852,11.76798,9e-08,0.0,0.0,0.0,9e-08,0.0,0.0,0.0,9e-08
1536693705326339736,6629,1536693705326061752,base_link,0.208050322569,-0.239535347426,-0.780921509796,0.53805155529,1.0,0.0,0.0,0.0,1.0,0.0,0.0,0.0,1.0,0.12876278162,-0.249053582549,-0.261669039726,1.21846967915e-07,0.0,0.0,0.0,1.21846967915e-07,0.0,0.0,0.0,1.21846967915e-07,0.5295591,0.91201845,13.7881499,9e-08,0.0,0.0,0.0,9e-08,0.0,0.0,0.0,9e-08
1536693705641511512,6630,1536693705641167224,base_link,0.192459850951,-0.270664556008,-0.806183477428,0.489661214121,1.0,0.0,0.0,0.0,1.0,0.0,0.0,0.0,1.0,0.120206065476,-0.300560384989,-0.232527256012,1.21846967915e-07,0.0,0.0,0.0,1.21846967915e-07,0.0,0.0,0.0,1.21846967915e-07,0.6276256,0.7649187,14.4550021,9e-08,0.0,0.0,0.0,9e-08,0.0,0.0,0.0,9e-08
1536693706034671992,6631,1536693706034178360,base_link,0.166498861745,-0.305372540176,-0.83286884292,0.430529013235,1.0,0.0,0.0,0.0,1.0,0.0,0.0,0.0,1.0,0.07254447788,-0.282279938459,-0.289711415768,1.21846967915e-07,0.0,0.0,0.0,1.21846967915e-07,0.0,0.0,0.0,1.21846967915e-07,0.57859235,1.1571847,12.748645,9e-08,0.0,0.0,0.0,9e-08,0.0,0.0,0.0,9e-08
1536693706405305848,6632,1536693706405045560,base_link,0.144606659914,-0.331361292318,-0.857121428479,0.366921605666,1.0,0.0,0.0,0.0,1.0,0.0,0.0,0.0,1.0,0.039149209857,-0.283721089363,-0.302452683449,1.21846967915e-07,0.0,0.0,0.0,1.21846967915e-07,0.0,0.0,0.0,1.21846967915e-07,0.77472535,1.0395049,12.356379,9e-08,0.0,0.0,0.0,9e-08,0.0,0.0,0.0,9e-08
1536693706844353752,6633,1536693706844070008,base_link,0.110474214319,-0.361264634358,-0.880880614364,0.285188806179,1.0,0.0,0.0,0.0,1.0,0.0,0.0,0.0,1.0,-0.0200165417045,-0.321051925421,-0.271476686001,1.21846967915e-07,0.0,0.0,0.0,1.21846967915e-07,0.0,0.0,0.0,1.21846967915e-07,0.9218251,1.06892485,14.36674225,9e-08,0.0,0.0,0.0,9e-08,0.0,0.0,0.0,9e-08
1536693707120743160,6634,1536693707120483160,base_link,0.0852740371998,-0.370562314794,-0.894859950955,0.233746823744,1.0,0.0,0.0,0.0,1.0,0.0,0.0,0.0,1.0,-0.00412971153855,-0.299361228943,-0.295670330524,1.21846967915e-07,0.0,0.0,0.0,1.21846967915e-07,0.0,0.0,0.0,1.21846967915e-07,0.980665,1.2552512,13.15071765,9e-08,0.0,0.0,0.0,9e-08,0.0,0.0,0.0,9e-08
1536693707545061464,6635,1536693707544783960,base_link,0.0464637866119,-0.381596376698,-0.911976142804,0.143264918179,1.0,0.0,0.0,0.0,1.0,0.0,0.0,0.0,1.0,-0.0289177000523,-0.318202584982,-0.329577982426,1.21846967915e-07,0.0,0.0,0.0,1.21846967915e-07,0.0,0.0,0.0,1.21846967915e-07,1.0002783,0.9218251,13.5920169,9e-08,0.0,0.0,0.0,9e-08,0.0,0.0,0.0,9e-08
1536693707926195000,6636,1536693707925961944,base_link,0.0110934447552,-0.390478947298,-0.917815541315,0.0708361441742,1.0,0.0,0.0,0.0,1.0,0.0,0.0,0.0,1.0,0.0856295675039,-0.319500356913,-0.277712225914,1.21846967915e-07,0.0,0.0,0.0,1.21846967915e-07,0.0,0.0,0.0,1.21846967915e-07,0.81395195,0.6864655,12.13082605,9e-08,0.0,0.0,0.0,9e-08,0.0,0.0,0.0,9e-08
1536693708316146456,6637,1536693708315906328,base_link,-0.0318173238905,-0.380835228739,-0.924086361739,-0.00407216152184,1.0,0.0,0.0,0.0,1.0,0.0,0.0,0.0,1.0,-0.0916910395026,-0.312708795071,-0.28771135211,1.21846967915e-07,0.0,0.0,0.0,1.21846967915e-07,0.0,0.0,0.0,1.21846967915e-07,0.9022118,1.28467115,13.4939504,9e-08,0.0,0.0,0.0,9e-08,0.0,0.0,0.0,9e-08
1536693708643378424,6638,1536693708642686488,base_link,-0.0599267723854,-0.365821660483,-0.926283664676,-0.0676894912559,1.0,0.0,0.0,0.0,1.0,0.0,0.0,0.0,1.0,-0.0825750827789,-0.288865298033,-0.307341396809,1.21846967915e-07,0.0,0.0,0.0,1.21846967915e-07,0.0,0.0,0.0,1.21846967915e-07,0.65704555,1.2356379,13.1997509,9e-08,0.0,0.0,0.0,9e-08,0.0,0.0,0.0,9e-08
1536693709018824120,6639,1536693709018591480,base_link,-0.0890920793794,-0.356579970814,-0.919641356523,-0.138466967826,1.0,0.0,0.0,0.0,1.0,0.0,0.0,0.0,1.0,-0.0603482723236,-0.250235408545,-0.258842587471,1.21846967915e-07,0.0,0.0,0.0,1.21846967915e-07,0.0,0.0,0.0,1.21846967915e-07,0.46091255,1.0591182,12.5917386,9e-08,0.0,0.0,0.0,9e-08,0.0,0.0,0.0,9e-08
1536693709421489912,6640,1536693709420450616,base_link,-0.112126315852,-0.339163080257,-0.912091587054,-0.201208924031,1.0,0.0,0.0,0.0,1.0,0.0,0.0,0.0,1.0,-0.112277500331,-0.214819043875,-0.255667060614,1.21846967915e-07,0.0,0.0,0.0,1.21846967915e-07,0.0,0.0,0.0,1.21846967915e-07,0.32361945,1.0591182,12.5328987,9e-08,0.0,0.0,0.0,9e-08,0.0,0.0,0.0,9e-08
1536693709937163064,6641,1536693709936934328,base_link,-0.121317811117,-0.302304416457,-0.898272653979,-0.294958077716,1.0,0.0,0.0,0.0,1.0,0.0,0.0,0.0,1.0,-0.142985522747,-0.155512273312,-0.304138660431,1.21846967915e-07,0.0,0.0,0.0,1.21846967915e-07,0.0,0.0,0.0,1.21846967915e-07,0.0588399,1.0002783,11.0815145,9e-08,0.0,0.0,0.0,9e-08,0.0,0.0,0.0,9e-08
1536693710206891288,6642,1536693710206660408,base_link,-0.124846339554,-0.288169884992,-0.88818004601,-0.335421696902,1.0,0.0,0.0,0.0,1.0,0.0,0.0,0.0,1.0,-0.0732267946005,-0.145024269819,-0.262469470501,1.21846967915e-07,0.0,0.0,0.0,1.21846967915e-07,0.0,0.0,0.0,1.21846967915e-07,-0.02941995,0.61781895,10.4735022,9e-08,0.0,0.0,0.0,9e-08,0.0,0.0,0.0,9e-08
1536693710596125464,6643,1536693710588146680,base_link,-0.133765811563,-0.275706365806,-0.869720865833,-0.386882828575,1.0,0.0,0.0,0.0,1.0,0.0,0.0,0.0,1.0,-0.0581543147564,-0.130431175232,-0.246159851551,1.21846967915e-07,0.0,0.0,0.0,1.21846967915e-07,0.0,0.0,0.0,1.21846967915e-07,-0.00980665,0.99047165,10.8657682,9e-08,0.0,0.0,0.0,9e-08,0.0,0.0,0.0,9e-08
1536693710936414936,6644,1536693710936153944,base_link,-0.138752392852,-0.269176654914,-0.848602198206,-0.433781063588,1.0,0.0,0.0,0.0,1.0,0.0,0.0,0.0,1.0,-0.0308009516448,-0.107727743685,-0.276332557201,1.21846967915e-07,0.0,0.0,0.0,1.21846967915e-07,0.0,0.0,0.0,1.21846967915e-07,-0.00980665,0.85317855,10.42446895,9e-08,0.0,0.0,0.0,9e-08,0.0,0.0,0.0,9e-08
1536693711397261272,6645,1536693711396985848,base_link,-0.146693447714,-0.268517818326,-0.812423472407,-0.496333874647,1.0,0.0,0.0,0.0,1.0,0.0,0.0,0.0,1.0,0.0131229069084,-0.134045228362,-0.270155757666,1.21846967915e-07,0.0,0.0,0.0,1.21846967915e-07,0.0,0.0,0.0,1.21846967915e-07,-0.06864655,0.55897905,10.591182,9e-08,0.0,0.0,0.0,9e-08,0.0,0.0,0.0,9e-08
1536693711811106040,6646,1536693711810806808,base_link,-0.168230706943,-0.272010615767,-0.774965598239,-0.545102720317,1.0,0.0,0.0,0.0,1.0,0.0,0.0,0.0,1.0,0.0400509536266,-0.179722979665,-0.265220165253,1.21846967915e-07,0.0,0.0,0.0,1.21846967915e-07,0.0,0.0,0.0,1.21846967915e-07,0.0588399,1.02969825,10.91480145,9e-08,0.0,0.0,0.0,9e-08,0.0,0.0,0.0,9e-08
1536693712216450904,6647,1536693712216230808,base_link,-0.184140855442,-0.263905142304,-0.736034405503,-0.595566600086,1.0,0.0,0.0,0.0,1.0,0.0,0.0,0.0,1.0,-0.00554565899074,-0.177824527025,-0.287060618401,1.21846967915e-07,0.0,0.0,0.0,1.21846967915e-07,0.0,0.0,0.0,1.21846967915e-07,0.1372931,0.87279185,11.7287534,9e-08,0.0,0.0,0.0,9e-08,0.0,0.0,0.0,9e-08
1536693712593290104,6648,1536693712593009560,base_link,-0.200522570499,-0.254504911143,-0.696325681615,-0.640428367617,1.0,0.0,0.0,0.0,1.0,0.0,0.0,0.0,1.0,-0.0124469194561,-0.225137740374,-0.270007789135,1.21846967915e-07,0.0,0.0,0.0,1.21846967915e-07,0.0,0.0,0.0,1.21846967915e-07,0.24516625,1.0787315,11.71894675,9e-08,0.0,0.0,0.0,9e-08,0.0,0.0,0.0,9e-08
1536693713081044376,6649,1536693713080695704,base_link,-0.223644064246,-0.233163884369,-0.639369726475,-0.697727947284,1.0,0.0,0.0,0.0,1.0,0.0,0.0,0.0,1.0,0.0369132310152,-0.236250698566,-0.278996437788,1.21846967915e-07,0.0,0.0,0.0,1.21846967915e-07,0.0,0.0,0.0,1.21846967915e-07,0.2941995,0.79433865,12.36618565,9e-08,0.0,0.0,0.0,9e-08,0.0,0.0,0.0,9e-08
1536693713468957272,6650,1536693713468408216,base_link,-0.246004950802,-0.21364636581,-0.589315124751,-0.739286465653,1.0,0.0,0.0,0.0,1.0,0.0,0.0,0.0,1.0,-0.00452006421983,-0.23942065239,-0.249916493893,1.21846967915e-07,0.0,0.0,0.0,1.21846967915e-07,0.0,0.0,0.0,1.21846967915e-07,0.392266,0.980665,12.18966595,9e-08,0.0,0.0,0.0,9e-08,0.0,0.0,0.0,9e-08
1536693713829626776,6651,1536693713829302040,base_link,-0.259607891832,-0.190502041042,-0.543739320261,-0.77502275222,1.0,0.0,0.0,0.0,1.0,0.0,0.0,0.0,1.0,-0.0334635935724,-0.237881198525,-0.267884761095,1.21846967915e-07,0.0,0.0,0.0,1.21846967915e-07,0.0,0.0,0.0,1.21846967915e-07,0.30400615,1.20621795,12.46425215,9e-08,0.0,0.0,0.0,9e-08,0.0,0.0,0.0,9e-08
1536693714305017880,6652,1536693714304134712,base_link,-0.276155175461,-0.162290923577,-0.476736560214,-0.818609936017,1.0,0.0,0.0,0.0,1.0,0.0,0.0,0.0,1.0,-0.047890342772,-0.250211685896,-0.257481396198,1.21846967915e-07,0.0,0.0,0.0,1.21846967915e-07,0.0,0.0,0.0,1.21846967915e-07,0.4118793,1.1375714,12.8859381,9e-08,0.0,0.0,0.0,9e-08,0.0,0.0,0.0,9e-08
1536693714628372312,6653,1536693714627320536,base_link,-0.287106080322,-0.137996789607,-0.432494851464,-0.843489886221,1.0,0.0,0.0,0.0,1.0,0.0,0.0,0.0,1.0,0.00721790641546,-0.251170933247,-0.232828557491,1.21846967915e-07,0.0,0.0,0.0,1.21846967915e-07,0.0,0.0,0.0,1.21846967915e-07,0.392266,1.16699135,12.64077185,9e-08,0.0,0.0,0.0,9e-08,0.0,0.0,0.0,9e-08
1536693714967359768,6654,1536693714966795000,base_link,-0.300335647714,-0.114852234429,-0.38445883727,-0.865331650527,1.0,0.0,0.0,0.0,1.0,0.0,0.0,0.0,1.0,-0.00559913739562,-0.212314680219,-0.247552350163,1.21846967915e-07,0.0,0.0,0.0,1.21846967915e-07,0.0,0.0,0.0,1.21846967915e-07,0.46091255,1.06892485,12.56231865,9e-08,0.0,0.0,0.0,9e-08,0.0,0.0,0.0,9e-08
1536693715279126904,6655,1536693715278523832,base_link,-0.299372658918,-0.0952591204535,-0.340752930727,-0.886108995137,1.0,0.0,0.0,0.0,1.0,0.0,0.0,0.0,1.0,-0.0735537707806,-0.173975884914,-0.284578830004,1.21846967915e-07,0.0,0.0,0.0,1.21846967915e-07,0.0,0.0,0.0,1.21846967915e-07,0.4118793,1.18660465,11.571847,9e-08,0.0,0.0,0.0,9e-08,0.0,0.0,0.0,9e-08
1536693715660975864,6656,1536693715660470264,base_link,-0.311253464201,-0.0817079731152,-0.27845291886,-0.904935942557,1.0,0.0,0.0,0.0,1.0,0.0,0.0,0.0,1.0,0.0585673004389,-0.190752983093,-0.28761613369,1.21846967915e-07,0.0,0.0,0.0,1.21846967915e-07,0.0,0.0,0.0,1.21846967915e-07,0.3726527,0.69627215,11.42474725,9e-08,0.0,0.0,0.0,9e-08,0.0,0.0,0.0,9e-08
1536693716137770904,6657,1536693716137339224,base_link,-0.329676726084,-0.0577451651379,-0.204560791576,-0.919855224876,1.0,0.0,0.0,0.0,1.0,0.0,0.0,0.0,1.0,0.0274492055178,-0.19700191915,-0.252783894539,1.21846967915e-07,0.0,0.0,0.0,1.21846967915e-07,0.0,0.0,0.0,1.21846967915e-07,0.38245935,0.8041453,11.60126695,9e-08,0.0,0.0,0.0,9e-08,0.0,0.0,0.0,9e-08
1536693716445041848,6658,1536693716444722168,base_link,-0.338343792117,-0.0443214180617,-0.156792876467,-0.926809087205,1.0,0.0,0.0,0.0,1.0,0.0,0.0,0.0,1.0,0.0354723334312,-0.197911798954,-0.271745741367,1.21846967915e-07,0.0,0.0,0.0,1.21846967915e-07,0.0,0.0,0.0,1.21846967915e-07,0.34323275,0.75511205,11.26784085,9e-08,0.0,0.0,0.0,9e-08,0.0,0.0,0.0,9e-08
1536693716921301048,6659,1536693716920917144,base_link,-0.352646981417,-0.0231638496801,-0.0827546494342,-0.931802130585,1.0,0.0,0.0,0.0,1.0,0.0,0.0,0.0,1.0,-0.00483045913279,-0.192379906774,-0.282962411642,1.21846967915e-07,0.0,0.0,0.0,1.21846967915e-07,0.0,0.0,0.0,1.21846967915e-07,0.4314926,0.87279185,11.22861425,9e-08,0.0,0.0,0.0,9e-08,0.0,0.0,0.0,9e-08
1536693717308646424,6660,1536693717308072632,base_link,-0.357677697359,-0.00763485927915,-0.0165694745712,-0.933666871131,1.0,0.0,0.0,0.0,1.0,0.0,0.0,0.0,1.0,-0.0248155537993,-0.224670767784,-0.316029667854,1.21846967915e-07,0.0,0.0,0.0,1.21846967915e-07,0.0,0.0,0.0,1.21846967915e-07,0.50013915,0.980665,11.4345539,9e-08,0.0,0.0,0.0,9e-08,0.0,0.0,0.0,9e-08
1536693717692281112,6661,1536693717691798584,base_link,-0.361197210651,0.0140524523,0.0651973454615,-0.930101290047,1.0,0.0,0.0,0.0,1.0,0.0,0.0,0.0,1.0,0.0342668406665,-0.249134019017,-0.335676044226,1.21846967915e-07,0.0,0.0,0.0,1.21846967915e-07,0.0,0.0,0.0,1.21846967915e-07,0.4118793,1.1571847,11.1991943,9e-08,0.0,0.0,0.0,9e-08,0.0,0.0,0.0,9e-08
1536693718060086872,6662,1536693718059813496,base_link,-0.362896489654,0.0423356198581,0.131126460287,-0.921585418993,1.0,0.0,0.0,0.0,1.0,0.0,0.0,0.0,1.0,0.0146190915257,-0.301216363907,-0.270746558905,1.21846967915e-07,0.0,0.0,0.0,1.21846967915e-07,0.0,0.0,0.0,1.21846967915e-07,0.588399,1.1375714,12.83690485,9e-08,0.0,0.0,0.0,9e-08,0.0,0.0,0.0,9e-08
1536693718353903032,6663,1536693718353499960,base_link,-0.360182974012,0.0731647707721,0.187115077167,-0.910990169786,1.0,0.0,0.0,0.0,1.0,0.0,0.0,0.0,1.0,0.0953506827354,-0.283068627119,-0.264789164066,1.21846967915e-07,0.0,0.0,0.0,1.21846967915e-07,0.0,0.0,0.0,1.21846967915e-07,0.73549875,1.1179581,14.1608026,9e-08,0.0,0.0,0.0,9e-08,0.0,0.0,0.0,9e-08
1536693718695373272,6664,1536693718694733432,base_link,-0.355772621458,0.0995484031536,0.246397312016,-0.895993483169,1.0,0.0,0.0,0.0,1.0,0.0,0.0,0.0,1.0,-0.0856038033962,-0.28509837389,-0.320689439774,1.21846967915e-07,0.0,0.0,0.0,1.21846967915e-07,0.0,0.0,0.0,1.21846967915e-07,0.7649187,1.0395049,13.4351105,9e-08,0.0,0.0,0.0,9e-08,0.0,0.0,0.0,9e-08
1536693719086811800,6665,1536693719086502712,base_link,-0.350671779369,0.127501390126,0.32468178493,-0.86911129161,1.0,0.0,0.0,0.0,1.0,0.0,0.0,0.0,1.0,-0.0117432810366,-0.277526110411,-0.34719195962,1.21846967915e-07,0.0,0.0,0.0,1.21846967915e-07,0.0,0.0,0.0,1.21846967915e-07,0.9218251,1.50041745,13.2193642,9e-08,0.0,0.0,0.0,9e-08,0.0,0.0,0.0,9e-08
1536693719354970648,6666,1536693719354511768,base_link,-0.345644306599,0.145991698131,0.382589364689,-0.844299600509,1.0,0.0,0.0,0.0,1.0,0.0,0.0,0.0,1.0,0.0772134810686,-0.298727542162,-0.367149740458,1.21846967915e-07,0.0,0.0,0.0,1.21846967915e-07,0.0,0.0,0.0,1.21846967915e-07,0.9610517,0.9022118,12.81729155,9e-08,0.0,0.0,0.0,9e-08,0.0,0.0,0.0,9e-08
1536693719745379192,6667,1536693719744860248,base_link,-0.338588577711,0.190243985299,0.4464061306,-0.806155424012,1.0,0.0,0.0,0.0,1.0,0.0,0.0,0.0,1.0,0.00970558915287,-0.372491151094,-0.210004627705,1.21846967915e-07,0.0,0.0,0.0,1.21846967915e-07,0.0,0.0,0.0,1.21846967915e-07,0.8825985,0.8629852,14.7884282,9e-08,0.0,0.0,0.0,9e-08,0.0,0.0,0.0,9e-08
1536693720166745016,6668,1536693720165401560,base_link,-0.307365558859,0.229899441559,0.509958269859,-0.76981505766,1.0,0.0,0.0,0.0,1.0,0.0,0.0,0.0,1.0,-0.0103531870991,-0.322953075171,-0.29562959075,1.21846967915e-07,0.0,0.0,0.0,1.21846967915e-07,0.0,0.0,0.0,1.21846967915e-07,1.0002783,1.1179581,13.75872995,9e-08,0.0,0.0,0.0,9e-08,0.0,0.0,0.0,9e-08
1536693720505059064,6669,1536693720504534488,base_link,-0.288380999114,0.254576094329,0.564513657092,-0.730309347129,1.0,0.0,0.0,0.0,1.0,0.0,0.0,0.0,1.0,0.00554002262652,-0.285638362169,-0.309760183096,1.21846967915e-07,0.0,0.0,0.0,1.21846967915e-07,0.0,0.0,0.0,1.21846967915e-07,0.7256921,1.2356379,12.8663248,9e-08,0.0,0.0,0.0,9e-08,0.0,0.0,0.0,9e-08
1536693720891246328,6670,1536693720890940888,base_link,-0.273086523162,0.283401519986,0.623290151191,-0.675734205709,1.0,0.0,0.0,0.0,1.0,0.0,0.0,0.0,1.0,0.120585627854,-0.302247166634,-0.315609633923,1.21846967915e-07,0.0,0.0,0.0,1.21846967915e-07,0.0,0.0,0.0,1.21846967915e-07,0.69627215,0.95124505,13.66066345,9e-08,0.0,0.0,0.0,9e-08,0.0,0.0,0.0,9e-08
1536693721257097752,6671,1536693721256408440,base_link,0.260603361083,-0.315714578141,-0.665975748566,0.623607645611,1.0,0.0,0.0,0.0,1.0,0.0,0.0,0.0,1.0,0.0479709096253,-0.298977643251,-0.276539385319,1.21846967915e-07,0.0,0.0,0.0,1.21846967915e-07,0.0,0.0,0.0,1.21846967915e-07,0.73549875,1.14737805,12.60154525,9e-08,0.0,0.0,0.0,9e-08,0.0,0.0,0.0,9e-08
1536693721689668536,6672,1536693721688668152,base_link,0.229577737459,-0.333829012038,-0.724221241521,0.557992693962,1.0,0.0,0.0,0.0,1.0,0.0,0.0,0.0,1.0,-0.0908815860748,-0.311054468155,-0.332973837852,1.21846967915e-07,0.0,0.0,0.0,1.21846967915e-07,0.0,0.0,0.0,1.21846967915e-07,0.73549875,1.04931155,13.07226445,9e-08,0.0,0.0,0.0,9e-08,0.0,0.0,0.0,9e-08
1536693722137753688,6673,1536693722136320600,base_link,0.180537542679,-0.341790495451,-0.786065033734,0.482376632565,1.0,0.0,0.0,0.0,1.0,0.0,0.0,0.0,1.0,-0.0597162619233,-0.351430922747,-0.286878108978,1.21846967915e-07,0.0,0.0,0.0,1.21846967915e-07,0.0,0.0,0.0,1.21846967915e-07,0.63743225,0.77472535,14.36674225,9e-08,0.0,0.0,0.0,9e-08,0.0,0.0,0.0,9e-08
1536693722445414840,6674,1536693722444971672,base_link,0.154303795275,-0.353250237925,-0.815457872461,0.431778955499,1.0,0.0,0.0,0.0,1.0,0.0,0.0,0.0,1.0,-0.0396177954972,-0.294388115406,-0.320441424847,1.21846967915e-07,0.0,0.0,0.0,1.21846967915e-07,0.0,0.0,0.0,1.21846967915e-07,0.5687857,1.2552512,14.46480875,9e-08,0.0,0.0,0.0,9e-08,0.0,0.0,0.0,9e-08
1536693722891815256,6675,1536693722891559576,base_link,0.121702892671,-0.362065747306,-0.854575526787,0.351848645812,1.0,0.0,0.0,0.0,1.0,0.0,0.0,0.0,1.0,-0.152151480317,-0.248823791742,-0.278060734272,1.21846967915e-07,0.0,0.0,0.0,1.21846967915e-07,0.0,0.0,0.0,1.21846967915e-07,0.3138128,0.87279185,12.46425215,9e-08,0.0,0.0,0.0,9e-08,0.0,0.0,0.0,9e-08
1536693723238572440,6676,1536693723237971896,base_link,0.102692485531,-0.365792494656,-0.877672758822,0.292131190891,1.0,0.0,0.0,0.0,1.0,0.0,0.0,0.0,1.0,-0.00682878680527,-0.213961258531,-0.297181665897,1.21846967915e-07,0.0,0.0,0.0,1.21846967915e-07,0.0,0.0,0.0,1.21846967915e-07,0.0980665,0.87279185,11.1991943,9e-08,0.0,0.0,0.0,9e-08,0.0,0.0,0.0,9e-08
1536693723651102936,6677,1536693723650747544,base_link,0.0864829277616,-0.372116831231,-0.897674638656,0.219613319802,1.0,0.0,0.0,0.0,1.0,0.0,0.0,0.0,1.0,0.0980792194605,-0.207562685013,-0.332802176476,1.21846967915e-07,0.0,0.0,0.0,1.21846967915e-07,0.0,0.0,0.0,1.21846967915e-07,0.16671305,0.9414384,11.3168741,9e-08,0.0,0.0,0.0,9e-08,0.0,0.0,0.0,9e-08
1536693724190990712,6678,1536693724190713336,base_link,0.0570324976113,-0.383259189788,-0.914923673245,0.113023713419,1.0,0.0,0.0,0.0,1.0,0.0,0.0,0.0,1.0,0.0256347749382,-0.264394551516,-0.298361420631,1.21846967915e-07,0.0,0.0,0.0,1.21846967915e-07,0.0,0.0,0.0,1.21846967915e-07,0.02941995,0.8433719,12.2975391,9e-08,0.0,0.0,0.0,9e-08,0.0,0.0,0.0,9e-08
1536693724638474520,6679,1536693724637470520,base_link,0.0234986182649,-0.387370271728,-0.921140650186,0.0298662032347,1.0,0.0,0.0,0.0,1.0,0.0,0.0,0.0,1.0,-0.0418674126267,-0.302147567272,-0.293523907661,1.21846967915e-07,0.0,0.0,0.0,1.21846967915e-07,0.0,0.0,0.0,1.21846967915e-07,0.10787315,1.1571847,12.5328987,9e-08,0.0,0.0,0.0,9e-08,0.0,0.0,0.0,9e-08
1536693725133345496,6680,1536693725130656120,base_link,-0.0153303556489,-0.377593528378,-0.923289559191,-0.0687349795422,1.0,0.0,0.0,0.0,1.0,0.0,0.0,0.0,1.0,-0.0473072603345,-0.282642930746,-0.338298529387,1.21846967915e-07,0.0,0.0,0.0,1.21846967915e-07,0.0,0.0,0.0,1.21846967915e-07,0.26477955,0.93163175,12.748645,9e-08,0.0,0.0,0.0,9e-08,0.0,0.0,0.0,9e-08
1536693725396682872,6681,1536693725396421080,base_link,-0.0345228320302,-0.371825323056,-0.91964061749,-0.12171786174,1.0,0.0,0.0,0.0,1.0,0.0,0.0,0.0,1.0,0.00443614087999,-0.296497404575,-0.312406390905,1.21846967915e-07,0.0,0.0,0.0,1.21846967915e-07,0.0,0.0,0.0,1.21846967915e-07,0.22555295,1.01008495,12.8467115,9e-08,0.0,0.0,0.0,9e-08,0.0,0.0,0.0,9e-08
1536693725845219320,6682,1536693725845019576,base_link,-0.0734354408725,-0.360418236101,-0.908217884782,-0.199615141892,1.0,0.0,0.0,0.0,1.0,0.0,0.0,0.0,1.0,-0.031698949635,-0.284346759319,-0.256056576967,1.21846967915e-07,0.0,0.0,0.0,1.21846967915e-07,0.0,0.0,0.0,1.21846967915e-07,0.2353596,0.9414384,13.2978174,9e-08,0.0,0.0,0.0,9e-08,0.0,0.0,0.0,9e-08
1536693726219622072,6683,1536693726218041976,base_link,-0.103449039701,-0.350874232014,-0.891252440637,-0.268057188959,1.0,0.0,0.0,0.0,1.0,0.0,0.0,0.0,1.0,-0.0356339775026,-0.276701569557,-0.301910668612,1.21846967915e-07,0.0,0.0,0.0,1.21846967915e-07,0.0,0.0,0.0,1.21846967915e-07,0.22555295,1.0787315,13.0624578,9e-08,0.0,0.0,0.0,9e-08,0.0,0.0,0.0,9e-08
1536693726583049720,6684,1536693726582822360,base_link,-0.128028056664,-0.333329002196,-0.872193782817,-0.334333064797,1.0,0.0,0.0,0.0,1.0,0.0,0.0,0.0,1.0,-0.091357588768,-0.288391441107,-0.291266858578,1.21846967915e-07,0.0,0.0,0.0,1.21846967915e-07,0.0,0.0,0.0,1.21846967915e-07,0.34323275,1.26505785,13.4939504,9e-08,0.0,0.0,0.0,9e-08,0.0,0.0,0.0,9e-08
1536693727039786264,6685,1536693727030750552,base_link,-0.16074308146,-0.312760015854,-0.839607444163,-0.414007456397,1.0,0.0,0.0,0.0,1.0,0.0,0.0,0.0,1.0,-0.0366099439561,-0.272880464792,-0.280249744654,1.21846967915e-07,0.0,0.0,0.0,1.21846967915e-07,0.0,0.0,0.0,1.21846967915e-07,0.2549729,0.8629852,13.03303785,9e-08,0.0,0.0,0.0,9e-08,0.0,0.0,0.0,9e-08
1536693727446896376,6686,1536693727444518232,base_link,-0.185873773032,-0.286544976256,-0.809159566583,-0.478125206289,1.0,0.0,0.0,0.0,1.0,0.0,0.0,0.0,1.0,-0.115793712437,-0.234653264284,-0.278811275959,1.21846967915e-07,0.0,0.0,0.0,1.21846967915e-07,0.0,0.0,0.0,1.21846967915e-07,0.28439285,0.8237586,13.4939504,9e-08,0.0,0.0,0.0,9e-08,0.0,0.0,0.0,9e-08
1536693727817163736,6687,1536693727816927288,base_link,-0.200078578906,-0.269268318126,-0.777041651834,-0.532606239573,1.0,0.0,0.0,0.0,1.0,0.0,0.0,0.0,1.0,-0.0544550791383,-0.208807185292,-0.279127001762,1.21846967915e-07,0.0,0.0,0.0,1.21846967915e-07,0.0,0.0,0.0,1.21846967915e-07,0.2745862,1.176798,12.160246,9e-08,0.0,0.0,0.0,9e-08,0.0,0.0,0.0,9e-08
1536693728330980120,6688,1536693728330384248,base_link,-0.215302387936,-0.246065722435,-0.726240461193,-0.60470764384,1.0,0.0,0.0,0.0,1.0,0.0,0.0,0.0,1.0,0.0459741614759,-0.206825211644,-0.275361478329,1.21846967915e-07,0.0,0.0,0.0,1.21846967915e-07,0.0,0.0,0.0,1.21846967915e-07,0.1569064,0.8433719,11.81701325,9e-08,0.0,0.0,0.0,9e-08,0.0,0.0,0.0,9e-08
1536693728790788152,6689,1536693728790547576,base_link,-0.230366290998,-0.22963294412,-0.677398367253,-0.65979658607,1.0,0.0,0.0,0.0,1.0,0.0,0.0,0.0,1.0,-0.0506993494928,-0.166679009795,-0.280356347561,1.21846967915e-07,0.0,0.0,0.0,1.21846967915e-07,0.0,0.0,0.0,1.21846967915e-07,0.06864655,0.79433865,11.22861425,9e-08,0.0,0.0,0.0,9e-08,0.0,0.0,0.0,9e-08
1536693729265385528,6690,1536693729265073176,base_link,-0.235860229745,-0.2137246379,-0.628295094888,-0.709885205452,1.0,0.0,0.0,0.0,1.0,0.0,0.0,0.0,1.0,-0.0299881566316,-0.149497315288,-0.261445403099,1.21846967915e-07,0.0,0.0,0.0,1.21846967915e-07,0.0,0.0,0.0,1.21846967915e-07,0.02941995,0.6864655,10.99325465,9e-08,0.0,0.0,0.0,9e-08,0.0,0.0,0.0,9e-08
1536693729656316664,6691,1536693729656094648,base_link,-0.238735251231,-0.197937539741,-0.586818522053,-0.747977427705,1.0,0.0,0.0,0.0,1.0,0.0,0.0,0.0,1.0,-0.0641404092312,-0.148087128997,-0.2441650033,1.21846967915e-07,0.0,0.0,0.0,1.21846967915e-07,0.0,0.0,0.0,1.21846967915e-07,-0.04903325,1.0198916,11.4933938,9e-08,0.0,0.0,0.0,9e-08,0.0,0.0,0.0,9e-08
1536693730089121816,6692,1536693730088912728,base_link,-0.242529758028,-0.181695921728,-0.539952666816,-0.78524965845,1.0,0.0,0.0,0.0,1.0,0.0,0.0,0.0,1.0,-0.0610335841775,-0.165363028646,-0.256750941277,1.21846967915e-07,0.0,0.0,0.0,1.21846967915e-07,0.0,0.0,0.0,1.21846967915e-07,-0.1569064,0.8825985,11.0422879,9e-08,0.0,0.0,0.0,9e-08,0.0,0.0,0.0,9e-08
1536693730454675800,6693,1536693730454253400,base_link,-0.25593531824,-0.172500348648,-0.492800087275,-0.813565496181,1.0,0.0,0.0,0.0,1.0,0.0,0.0,0.0,1.0,0.0916461125016,-0.177487581968,-0.264903962612,1.21846967915e-07,0.0,0.0,0.0,1.21846967915e-07,0.0,0.0,0.0,1.21846967915e-07,0.08825985,1.0395049,11.46397385,9e-08,0.0,0.0,0.0,9e-08,0.0,0.0,0.0,9e-08
1536693730844623896,6694,1536693730844244760,base_link,-0.275452621198,-0.163437595782,-0.436211340204,-0.840912404735,1.0,0.0,0.0,0.0,1.0,0.0,0.0,0.0,1.0,0.0746032595634,-0.180101364851,-0.274541437626,1.21846967915e-07,0.0,0.0,0.0,1.21846967915e-07,0.0,0.0,0.0,1.21846967915e-07,0.00980665,0.81395195,11.01286795,9e-08,0.0,0.0,0.0,9e-08,0.0,0.0,0.0,9e-08
1536693731196922808,6695,1536693731196457848,base_link,-0.295852703876,-0.150886758653,-0.384523347165,-0.861304916483,1.0,0.0,0.0,0.0,1.0,0.0,0.0,0.0,1.0,0.00994244776666,-0.214894801378,-0.257862180471,1.21846967915e-07,0.0,0.0,0.0,1.21846967915e-07,0.0,0.0,0.0,1.21846967915e-07,0.2941995,1.08853815,11.85623985,9e-08,0.0,0.0,0.0,9e-08,0.0,0.0,0.0,9e-08
1536693731593933816,6696,1536693731593449464,base_link,-0.302745233744,-0.124304594678,-0.324081248088,-0.887617618023,1.0,0.0,0.0,0.0,1.0,0.0,0.0,0.0,1.0,0.0216805394739,-0.216736257076,-0.260748416185,1.21846967915e-07,0.0,0.0,0.0,1.21846967915e-07,0.0,0.0,0.0,1.21846967915e-07,0.34323275,1.1179581,12.1798593,9e-08,0.0,0.0,0.0,9e-08,0.0,0.0,0.0,9e-08
1536693731980433304,6697,1536693731980177784,base_link,-0.316662138146,-0.104560226946,-0.263583780651,-0.905160670701,1.0,0.0,0.0,0.0,1.0,0.0,0.0,0.0,1.0,0.0319870859385,-0.211308822036,-0.289060592651,1.21846967915e-07,0.0,0.0,0.0,1.21846967915e-07,0.0,0.0,0.0,1.21846967915e-07,0.2745862,1.16699135,11.91507975,9e-08,0.0,0.0,0.0,9e-08,0.0,0.0,0.0,9e-08
1536693732338416312,6698,1536693732337910008,base_link,-0.332279794294,-0.086335667734,-0.204611838892,-0.916662580324,1.0,0.0,0.0,0.0,1.0,0.0,0.0,0.0,1.0,0.083618208766,-0.250756382942,-0.286026448011,1.21846967915e-07,0.0,0.0,0.0,1.21846967915e-07,0.0,0.0,0.0,1.21846967915e-07,0.2745862,0.7453054,12.52309205,9e-08,0.0,0.0,0.0,9e-08,0.0,0.0,0.0,9e-08
1536693732613455384,6699,1536693732612892024,base_link,-0.349961012106,-0.0652284196934,-0.153496476972,-0.921797903462,1.0,0.0,0.0,0.0,1.0,0.0,0.0,0.0,1.0,0.0809390470386,-0.272433459759,-0.245015770197,1.21846967915e-07,0.0,0.0,0.0,1.21846967915e-07,0.0,0.0,0.0,1.21846967915e-07,0.40207265,0.65704555,12.1014061,9e-08,0.0,0.0,0.0,9e-08,0.0,0.0,0.0,9e-08
1536693733065050488,6700,1536693733060053368,base_link,-0.357868944081,-0.0257034358533,-0.0818209884706,-0.929824971752,1.0,0.0,0.0,0.0,1.0,0.0,0.0,0.0,1.0,-0.0619225874543,-0.291553914547,-0.29340916872,1.21846967915e-07,0.0,0.0,0.0,1.21846967915e-07,0.0,0.0,0.0,1.21846967915e-07,0.61781895,1.0395049,12.9840046,9e-08,0.0,0.0,0.0,9e-08,0.0,0.0,0.0,9e-08
1536693733415353880,6701,1536693733414165368,base_link,-0.366159259644,0.00698080458311,-0.00784125640396,-0.930492976676,1.0,0.0,0.0,0.0,1.0,0.0,0.0,0.0,1.0,0.000739393755794,-0.303795814514,-0.296072363853,1.21846967915e-07,0.0,0.0,0.0,1.21846967915e-07,0.0,0.0,0.0,1.21846967915e-07,0.65704555,0.980665,13.28801075,9e-08,0.0,0.0,0.0,9e-08,0.0,0.0,0.0,9e-08
1536693733765937112,6702,1536693733765616568,base_link,-0.370226857157,0.0372703514015,0.058947123089,-0.926319724407,1.0,0.0,0.0,0.0,1.0,0.0,0.0,0.0,1.0,0.0214377045631,-0.299363732338,-0.301093697548,1.21846967915e-07,0.0,0.0,0.0,1.21846967915e-07,0.0,0.0,0.0,1.21846967915e-07,0.6668522,0.87279185,13.140911,9e-08,0.0,0.0,0.0,9e-08,0.0,0.0,0.0,9e-08
1536693734082557816,6703,1536693734082122584,base_link,-0.368173556054,0.066100323669,0.120498920007,-0.919542815812,1.0,0.0,0.0,0.0,1.0,0.0,0.0,0.0,1.0,-0.00608573108912,-0.298289716244,-0.294495522976,1.21846967915e-07,0.0,0.0,0.0,1.21846967915e-07,0.0,0.0,0.0,1.21846967915e-07,0.85317855,1.1375714,13.38607725,9e-08,0.0,0.0,0.0,9e-08,0.0,0.0,0.0,9e-08
1536693734466794008,6704,1536693734466279832,base_link,-0.364823517974,0.099707500934,0.193595882694,-0.905252920014,1.0,0.0,0.0,0.0,1.0,0.0,0.0,0.0,1.0,0.012957977131,-0.305266618729,-0.29110878706,1.21846967915e-07,0.0,0.0,0.0,1.21846967915e-07,0.0,0.0,0.0,1.21846967915e-07,0.784532,0.9218251,13.6508568,9e-08,0.0,0.0,0.0,9e-08,0.0,0.0,0.0,9e-08
1536693734792498840,6705,1536693734792033368,base_link,-0.364548912004,0.127163063779,0.256011342836,-0.886223356895,1.0,0.0,0.0,0.0,1.0,0.0,0.0,0.0,1.0,0.012843940407,-0.275219231844,-0.307392388582,1.21846967915e-07,0.0,0.0,0.0,1.21846967915e-07,0.0,0.0,0.0,1.21846967915e-07,0.71588545,1.2552512,12.24850585,9e-08,0.0,0.0,0.0,9e-08,0.0,0.0,0.0,9e-08
1536693735185231192,6706,1536693735184857528,base_link,-0.359388525027,0.155491204487,0.32616069807,-0.860396171796,1.0,0.0,0.0,0.0,1.0,0.0,0.0,0.0,1.0,-0.0394587516785,-0.273864120245,-0.315642535686,1.21846967915e-07,0.0,0.0,0.0,1.21846967915e-07,0.0,0.0,0.0,1.21846967915e-07,0.7256921,1.10815145,12.44463885,9e-08,0.0,0.0,0.0,9e-08,0.0,0.0,0.0,9e-08
1536693735493199448,6707,1536693735492969976,base_link,-0.344530223888,0.168820157205,0.385309232156,-0.839246968993,1.0,0.0,0.0,0.0,1.0,0.0,0.0,0.0,1.0,-0.0609090365469,-0.268474191427,-0.352962613106,1.21846967915e-07,0.0,0.0,0.0,1.21846967915e-07,0.0,0.0,0.0,1.21846967915e-07,0.784532,1.2160246,12.93497135,9e-08,0.0,0.0,0.0,9e-08,0.0,0.0,0.0,9e-08
1536693735794932888,6708,1536693735794634424,base_link,-0.332090501114,0.182134460012,0.449705094467,-0.808893234955,1.0,0.0,0.0,0.0,1.0,0.0,0.0,0.0,1.0,-0.0806116610765,-0.309509903193,-0.362805336714,1.21846967915e-07,0.0,0.0,0.0,1.21846967915e-07,0.0,0.0,0.0,1.21846967915e-07,0.6276256,1.0002783,13.68027675,9e-08,0.0,0.0,0.0,9e-08,0.0,0.0,0.0,9e-08
1536693736188540920,6709,1536693736188253720,base_link,-0.2971249148,0.198546939534,0.524069835595,-0.773076131585,1.0,0.0,0.0,0.0,1.0,0.0,0.0,0.0,1.0,-0.0259218048304,-0.295203268528,-0.273486316204,1.21846967915e-07,0.0,0.0,0.0,1.21846967915e-07,0.0,0.0,0.0,1.21846967915e-07,0.42168595,0.4903325,12.0425662,9e-08,0.0,0.0,0.0,9e-08,0.0,0.0,0.0,9e-08
1536693736523218232,6710,1536693736522887256,base_link,-0.280591321984,0.236045910869,0.563892553543,-0.739983801206,1.0,0.0,0.0,0.0,1.0,0.0,0.0,0.0,1.0,0.0177516043186,-0.338299304247,-0.178797587752,1.21846967915e-07,0.0,0.0,0.0,1.21846967915e-07,0.0,0.0,0.0,1.21846967915e-07,0.53936575,0.980665,15.2591474,9e-08,0.0,0.0,0.0,9e-08,0.0,0.0,0.0,9e-08
1536693736959563480,6711,1536693736959120728,base_link,-0.256716503932,0.265828621509,0.617125015768,-0.694685897014,1.0,0.0,0.0,0.0,1.0,0.0,0.0,0.0,1.0,-0.081034809351,-0.214228823781,-0.321969747543,1.21846967915e-07,0.0,0.0,0.0,1.21846967915e-07,0.0,0.0,0.0,1.21846967915e-07,0.42168595,1.2552512,11.48358715,9e-08,0.0,0.0,0.0,9e-08,0.0,0.0,0.0,9e-08
1536693737350110808,6712,1536693737348914936,base_link,0.255216850914,-0.291947723088,-0.665980910369,0.637260004251,1.0,0.0,0.0,0.0,1.0,0.0,0.0,0.0,1.0,0.137453451753,-0.259051352739,-0.316161632538,1.21846967915e-07,0.0,0.0,0.0,1.21846967915e-07,0.0,0.0,0.0,1.21846967915e-07,0.3334261,0.77472535,12.356379,9e-08,0.0,0.0,0.0,9e-08,0.0,0.0,0.0,9e-08
1536693737611691096,6713,1536693737611471864,base_link,0.250748540616,-0.314330995313,-0.697170636657,0.593526998667,1.0,0.0,0.0,0.0,1.0,0.0,0.0,0.0,1.0,0.0267755165696,-0.276684820652,-0.290551245213,1.21846967915e-07,0.0,0.0,0.0,1.21846967915e-07,0.0,0.0,0.0,1.21846967915e-07,0.28439285,0.95124505,12.05237285,9e-08,0.0,0.0,0.0,9e-08,0.0,0.0,0.0,9e-08
1536693738074364824,6714,1536693738074094904,base_link,0.224821385441,-0.330272906287,-0.749275920356,0.528167347717,1.0,0.0,0.0,0.0,1.0,0.0,0.0,0.0,1.0,0.0371660590172,-0.240119025111,-0.33109793067,1.21846967915e-07,0.0,0.0,0.0,1.21846967915e-07,0.0,0.0,0.0,1.21846967915e-07,0.50013915,1.18660465,11.3168741,9e-08,0.0,0.0,0.0,9e-08,0.0,0.0,0.0,9e-08
1536693738460988216,6715,1536693738460717592,base_link,0.202406766481,-0.344934866032,-0.794811562454,0.45642745236,1.0,0.0,0.0,0.0,1.0,0.0,0.0,0.0,1.0,-0.00331739336252,-0.304774284363,-0.333149164915,1.21846967915e-07,0.0,0.0,0.0,1.21846967915e-07,0.0,0.0,0.0,1.21846967915e-07,0.4511059,1.0787315,12.1210194,9e-08,0.0,0.0,0.0,9e-08,0.0,0.0,0.0,9e-08
1536693738734608248,6716,1536693738734291480,base_link,0.178374030885,-0.352139315332,-0.824475982194,0.405487314832,1.0,0.0,0.0,0.0,1.0,0.0,0.0,0.0,1.0,-0.0908038690686,-0.340548992157,-0.289776653051,1.21846967915e-07,0.0,0.0,0.0,1.21846967915e-07,0.0,0.0,0.0,1.21846967915e-07,0.50013915,0.8629852,13.4547238,9e-08,0.0,0.0,0.0,9e-08,0.0,0.0,0.0,9e-08
1536693739192679736,6717,1536693739192325624,base_link,0.128387896047,-0.357262402064,-0.86262178722,0.334310897869,1.0,0.0,0.0,0.0,1.0,0.0,0.0,0.0,1.0,-0.0616951808333,-0.333416581154,-0.260977208614,1.21846967915e-07,0.0,0.0,0.0,1.21846967915e-07,0.0,0.0,0.0,1.21846967915e-07,0.7060788,1.20621795,14.5726819,9e-08,0.0,0.0,0.0,9e-08,0.0,0.0,0.0,9e-08
1536693739505118136,6718,1536693739504807608,base_link,0.100541707547,-0.368083711623,-0.883528558062,0.271630324834,1.0,0.0,0.0,0.0,1.0,0.0,0.0,0.0,1.0,-0.0806307196617,-0.293510854244,-0.328954458237,1.21846967915e-07,0.0,0.0,0.0,1.21846967915e-07,0.0,0.0,0.0,1.21846967915e-07,0.40207265,1.36312435,13.54298365,9e-08,0.0,0.0,0.0,9e-08,0.0,0.0,0.0,9e-08
1536693739898836824,6719,1536693739898606072,base_link,0.066557074816,-0.36085482518,-0.910534833541,0.190473798316,1.0,0.0,0.0,0.0,1.0,0.0,0.0,0.0,1.0,-0.124734096229,-0.308761328459,-0.317235350609,1.21846967915e-07,0.0,0.0,0.0,1.21846967915e-07,0.0,0.0,0.0,1.21846967915e-07,0.392266,0.87279185,12.9840046,9e-08,0.0,0.0,0.0,9e-08,0.0,0.0,0.0,9e-08
1536693740264300184,6720,1536693740264026360,base_link,0.0366875867616,-0.368245948308,-0.921038835422,0.121393600229,1.0,0.0,0.0,0.0,1.0,0.0,0.0,0.0,1.0,0.0274053625762,-0.291597485542,-0.296985328197,1.21846967915e-07,0.0,0.0,0.0,1.21846967915e-07,0.0,0.0,0.0,1.21846967915e-07,0.26477955,0.89240515,13.2782041,9e-08,0.0,0.0,0.0,9e-08,0.0,0.0,0.0,9e-08
1536693740584728408,6721,1536693740583625016,base_link,0.00853319962525,-0.373973255274,-0.925481349456,0.0596276836212,1.0,0.0,0.0,0.0,1.0,0.0,0.0,0.0,1.0,-0.0346764475107,-0.294010192156,-0.296613097191,1.21846967915e-07,0.0,0.0,0.0,1.21846967915e-07,0.0,0.0,0.0,1.21846967915e-07,0.2157463,0.9414384,13.6116302,9e-08,0.0,0.0,0.0,9e-08,0.0,0.0,0.0,9e-08
1536693740944934552,6722,1536693740944656696,base_link,-0.0171060618093,-0.373082603664,-0.927593799938,-0.00930031232617,1.0,0.0,0.0,0.0,1.0,0.0,0.0,0.0,1.0,-0.0408047959208,-0.242495849729,-0.314048856497,1.21846967915e-07,0.0,0.0,0.0,1.21846967915e-07,0.0,0.0,0.0,1.21846967915e-07,0.2745862,1.28467115,12.2583125,9e-08,0.0,0.0,0.0,9e-08,0.0,0.0,0.0,9e-08
1536693741400120248,6723,1536693741399439832,base_link,-0.0403720774582,-0.374365686003,-0.921146580836,-0.0985363137093,1.0,0.0,0.0,0.0,1.0,0.0,0.0,0.0,1.0,0.0254662241787,-0.231708794832,-0.301149994135,1.21846967915e-07,0.0,0.0,0.0,1.21846967915e-07,0.0,0.0,0.0,1.21846967915e-07,0.1569064,0.8825985,11.5522337,9e-08,0.0,0.0,0.0,9e-08,0.0,0.0,0.0,9e-08
1536693741772306296,6724,1536693741771906200,base_link,-0.0626644538914,-0.363617460813,-0.914405804291,-0.166485835704,1.0,0.0,0.0,0.0,1.0,0.0,0.0,0.0,1.0,-0.0661965832114,-0.247463971376,-0.284784883261,1.21846967915e-07,0.0,0.0,0.0,1.21846967915e-07,0.0,0.0,0.0,1.21846967915e-07,0.16671305,0.91201845,13.1016844,9e-08,0.0,0.0,0.0,9e-08,0.0,0.0,0.0,9e-08
1536693742236449912,6725,1536693742236201240,base_link,-0.0852696584021,-0.345240439598,-0.901282197157,-0.247443984188,1.0,0.0,0.0,0.0,1.0,0.0,0.0,0.0,1.0,-0.0717646256089,-0.227747708559,-0.313362628222,1.21846967915e-07,0.0,0.0,0.0,1.21846967915e-07,0.0,0.0,0.0,1.21846967915e-07,0.2353596,1.12776475,12.1798593,9e-08,0.0,0.0,0.0,9e-08,0.0,0.0,0.0,9e-08
1536693742731831576,6726,1536693742731599896,base_link,-0.115211545042,-0.327714294956,-0.875687009333,-0.335413032627,1.0,0.0,0.0,0.0,1.0,0.0,0.0,0.0,1.0,-0.0542355701327,-0.279428750277,-0.27478915453,1.21846967915e-07,0.0,0.0,0.0,1.21846967915e-07,0.0,0.0,0.0,1.21846967915e-07,0.1569064,0.89240515,13.05265115,9e-08,0.0,0.0,0.0,9e-08,0.0,0.0,0.0,9e-08
1536693743043357816,6727,1536693743042990200,base_link,-0.137053350804,-0.308788781166,-0.858627592498,-0.385518514549,1.0,0.0,0.0,0.0,1.0,0.0,0.0,0.0,1.0,-0.0654656887054,-0.287301838398,-0.262110501528,1.21846967915e-07,0.0,0.0,0.0,1.21846967915e-07,0.0,0.0,0.0,1.21846967915e-07,0.2353596,1.04931155,12.7290317,9e-08,0.0,0.0,0.0,9e-08,0.0,0.0,0.0,9e-08
1536693743493719256,6728,1536693743493415480,base_link,-0.166382462801,-0.278509500474,-0.828962937193,-0.455598269289,1.0,0.0,0.0,0.0,1.0,0.0,0.0,0.0,1.0,-0.0899454653263,-0.219685867429,-0.259254515171,1.21846967915e-07,0.0,0.0,0.0,1.21846967915e-07,0.0,0.0,0.0,1.21846967915e-07,0.2549729,1.01008495,13.40569055,9e-08,0.0,0.0,0.0,9e-08,0.0,0.0,0.0,9e-08
1536693743846213240,6729,1536693743845866168,base_link,-0.177725215866,-0.259492027881,-0.804861487284,-0.503264961425,1.0,0.0,0.0,0.0,1.0,0.0,0.0,0.0,1.0,-0.0389984175563,-0.189366564155,-0.269521564245,1.21846967915e-07,0.0,0.0,0.0,1.21846967915e-07,0.0,0.0,0.0,1.21846967915e-07,0.2941995,1.06892485,11.75817335,9e-08,0.0,0.0,0.0,9e-08,0.0,0.0,0.0,9e-08
1536693744214538936,6730,1536693744214218264,base_link,-0.186063199645,-0.249475721132,-0.773822131603,-0.551671694891,1.0,0.0,0.0,0.0,1.0,0.0,0.0,0.0,1.0,-0.0129717681557,-0.155611440539,-0.289217293262,1.21846967915e-07,0.0,0.0,0.0,1.21846967915e-07,0.0,0.0,0.0,1.21846967915e-07,0.0392266,1.0198916,11.1599677,9e-08,0.0,0.0,0.0,9e-08,0.0,0.0,0.0,9e-08
1536693744596432536,6731,1536693744595945496,base_link,-0.196329156768,-0.242884486627,-0.738588450684,-0.597452164508,1.0,0.0,0.0,0.0,1.0,0.0,0.0,0.0,1.0,0.00915372278541,-0.146533176303,-0.247273862362,1.21846967915e-07,0.0,0.0,0.0,1.21846967915e-07,0.0,0.0,0.0,1.21846967915e-07,0.0196133,0.83356525,11.0030613,9e-08,0.0,0.0,0.0,9e-08,0.0,0.0,0.0,9e-08
1536693744994410904,6732,1536693744994084056,base_link,-0.204006820967,-0.228055244117,-0.702352785933,-0.642707232511,1.0,0.0,0.0,0.0,1.0,0.0,0.0,0.0,1.0,-0.0518789663911,-0.14642855525,-0.236046373844,1.21846967915e-07,0.0,0.0,0.0,1.21846967915e-07,0.0,0.0,0.0,1.21846967915e-07,0.00980665,0.784532,11.7875933,9e-08,0.0,0.0,0.0,9e-08,0.0,0.0,0.0,9e-08
1536693745395263448,6733,1536693745394826296,base_link,-0.22126629873,-0.226827896321,-0.661752433057,-0.679466001975,1.0,0.0,0.0,0.0,1.0,0.0,0.0,0.0,1.0,0.0277814138681,-0.162469401956,-0.256188452244,1.21846967915e-07,0.0,0.0,0.0,1.21846967915e-07,0.0,0.0,0.0,1.21846967915e-07,-0.14709975,0.7649187,11.05209455,9e-08,0.0,0.0,0.0,9e-08,0.0,0.0,0.0,9e-08
1536693745771820632,6734,1536693745770975448,base_link,-0.235027397024,-0.218799584052,-0.617383094173,-0.718141336853,1.0,0.0,0.0,0.0,1.0,0.0,0.0,0.0,1.0,-0.0504676401615,-0.16775329411,-0.288232654333,1.21846967915e-07,0.0,0.0,0.0,1.21846967915e-07,0.0,0.0,0.0,1.21846967915e-07,-0.06864655,0.9218251,10.91480145,9e-08,0.0,0.0,0.0,9e-08,0.0,0.0,0.0,9e-08
1536693746186090744,6735,1536693746185799288,base_link,-0.255191616039,-0.210784552763,-0.559213334653,-0.760083914951,1.0,0.0,0.0,0.0,1.0,0.0,0.0,0.0,1.0,0.0591864064336,-0.196451708674,-0.288016498089,1.21846967915e-07,0.0,0.0,0.0,1.21846967915e-07,0.0,0.0,0.0,1.21846967915e-07,0.02941995,0.7649187,11.5522337,9e-08,0.0,0.0,0.0,9e-08,0.0,0.0,0.0,9e-08
1536693746557797528,6736,1536693746557548536,base_link,-0.277307255805,-0.193420443119,-0.506079721885,-0.793456068827,1.0,0.0,0.0,0.0,1.0,0.0,0.0,0.0,1.0,0.013804060407,-0.256085276604,-0.249669238925,1.21846967915e-07,0.0,0.0,0.0,1.21846967915e-07,0.0,0.0,0.0,1.21846967915e-07,0.18632635,1.0395049,12.6113519,9e-08,0.0,0.0,0.0,9e-08,0.0,0.0,0.0,9e-08
1536693746917395544,6737,1536693746917199416,base_link,-0.290797154484,-0.173587356709,-0.454897022661,-0.823634107665,1.0,0.0,0.0,0.0,1.0,0.0,0.0,0.0,1.0,0.00789806805551,-0.239273607731,-0.290108203888,1.21846967915e-07,0.0,0.0,0.0,1.21846967915e-07,0.0,0.0,0.0,1.21846967915e-07,0.3138128,1.1571847,12.07198615,9e-08,0.0,0.0,0.0,9e-08,0.0,0.0,0.0,9e-08
1536693747238724408,6738,1536693747238477272,base_link,-0.299398140974,-0.1550800695,-0.404706764291,-0.850013741161,1.0,0.0,0.0,0.0,1.0,0.0,0.0,0.0,1.0,0.0512964501977,-0.23415581882,-0.290496468544,1.21846967915e-07,0.0,0.0,0.0,1.21846967915e-07,0.0,0.0,0.0,1.21846967915e-07,0.34323275,1.14737805,12.28773245,9e-08,0.0,0.0,0.0,9e-08,0.0,0.0,0.0,9e-08
1536693747548899224,6739,1536693747548491960,base_link,-0.313503848661,-0.137863697204,-0.355547390383,-0.869652224202,1.0,0.0,0.0,0.0,1.0,0.0,0.0,0.0,1.0,-0.0175682269037,-0.260622501373,-0.283262431622,1.21846967915e-07,0.0,0.0,0.0,1.21846967915e-07,0.0,0.0,0.0,1.21846967915e-07,0.36284605,1.1964113,12.38579895,9e-08,0.0,0.0,0.0,9e-08,0.0,0.0,0.0,9e-08
1536693747885495192,6740,1536693747885270104,base_link,-0.322037727112,-0.111937087531,-0.298803197716,-0.891335200576,1.0,0.0,0.0,0.0,1.0,0.0,0.0,0.0,1.0,-0.0095679871738,-0.264199703932,-0.272754192352,1.21846967915e-07,0.0,0.0,0.0,1.21846967915e-07,0.0,0.0,0.0,1.21846967915e-07,0.34323275,1.0983448,12.73883835,9e-08,0.0,0.0,0.0,9e-08,0.0,0.0,0.0,9e-08
1536693748256209720,6741,1536693748255810648,base_link,-0.33209175515,-0.0835673708179,-0.238773735883,-0.908690631485,1.0,0.0,0.0,0.0,1.0,0.0,0.0,0.0,1.0,0.0157761834562,-0.267511814833,-0.278245121241,1.21846967915e-07,0.0,0.0,0.0,1.21846967915e-07,0.0,0.0,0.0,1.21846967915e-07,0.3530394,1.0591182,12.5328987,9e-08,0.0,0.0,0.0,9e-08,0.0,0.0,0.0,9e-08
1536693748544737560,6742,1536693748544495704,base_link,-0.341654868741,-0.0595307469156,-0.18692301228,-0.919123402116,1.0,0.0,0.0,0.0,1.0,0.0,0.0,0.0,1.0,0.0485470816493,-0.264434754848,-0.268252938986,1.21846967915e-07,0.0,0.0,0.0,1.21846967915e-07,0.0,0.0,0.0,1.21846967915e-07,0.4707192,0.8237586,12.83690485,9e-08,0.0,0.0,0.0,9e-08,0.0,0.0,0.0,9e-08
1536693748882917656,6743,1536693748882508248,base_link,-0.356925397789,-0.0364938281644,-0.131261214238,-0.924144444638,1.0,0.0,0.0,0.0,1.0,0.0,0.0,0.0,1.0,0.0584946572781,-0.224555104971,-0.259032696486,1.21846967915e-07,0.0,0.0,0.0,1.21846967915e-07,0.0,0.0,0.0,1.21846967915e-07,0.32361945,0.8237586,11.8856598,9e-08,0.0,0.0,0.0,9e-08,0.0,0.0,0.0,9e-08
1536693749408482360,6744,1536693749408152184,base_link,-0.357925418,-0.0128816629296,-0.0448374642808,-0.932584076481,1.0,0.0,0.0,0.0,1.0,0.0,0.0,0.0,1.0,-0.0596907958388,-0.193665713072,-0.317854315042,1.21846967915e-07,0.0,0.0,0.0,1.21846967915e-07,0.0,0.0,0.0,1.21846967915e-07,0.40207265,1.0395049,10.7677017,9e-08,0.0,0.0,0.0,9e-08,0.0,0.0,0.0,9e-08
1536693749809548984,6745,1536693749808951256,base_link,-0.352780484285,0.00469192236211,0.0307754769587,-0.935188101822,1.0,0.0,0.0,0.0,1.0,0.0,0.0,0.0,1.0,0.0365958288312,-0.235933914781,-0.321841180325,1.21846967915e-07,0.0,0.0,0.0,1.21846967915e-07,0.0,0.0,0.0,1.21846967915e-07,0.3334261,0.6472389,11.69933345,9e-08,0.0,0.0,0.0,9e-08,0.0,0.0,0.0,9e-08
1536693750284696216,6746,1536693750284305592,base_link,-0.356027226685,0.0437322016306,0.117352759745,-0.926045591847,1.0,0.0,0.0,0.0,1.0,0.0,0.0,0.0,1.0,-0.0308850556612,-0.271302133799,-0.275089472532,1.21846967915e-07,0.0,0.0,0.0,1.21846967915e-07,0.0,0.0,0.0,1.21846967915e-07,0.588399,1.2356379,12.75845165,9e-08,0.0,0.0,0.0,9e-08,0.0,0.0,0.0,9e-08
1536693750716195800,6747,1536693750715807224,base_link,-0.355161339831,0.0755120443726,0.193392434527,-0.911459115985,1.0,0.0,0.0,0.0,1.0,0.0,0.0,0.0,1.0,0.0414701700211,-0.260360300541,-0.315376728773,1.21846967915e-07,0.0,0.0,0.0,1.21846967915e-07,0.0,0.0,0.0,1.21846967915e-07,0.50013915,1.14737805,11.89546645,9e-08,0.0,0.0,0.0,9e-08,0.0,0.0,0.0,9e-08
1536693751093541688,6748,1536693751093301976,base_link,-0.35165277651,0.107427816345,0.269146080577,-0.890146042152,1.0,0.0,0.0,0.0,1.0,0.0,0.0,0.0,1.0,0.0155002297834,-0.293228328228,-0.302020430565,1.21846967915e-07,0.0,0.0,0.0,1.21846967915e-07,0.0,0.0,0.0,1.21846967915e-07,0.5687857,1.1571847,12.7682583,9e-08,0.0,0.0,0.0,9e-08,0.0,0.0,0.0,9e-08
1536693751530562168,6749,1536693751530241688,base_link,-0.340211430352,0.145135282711,0.349656556931,-0.860774200685,1.0,0.0,0.0,0.0,1.0,0.0,0.0,0.0,1.0,-0.036345757544,-0.30177333951,-0.305259793997,1.21846967915e-07,0.0,0.0,0.0,1.21846967915e-07,0.0,0.0,0.0,1.21846967915e-07,0.69627215,1.02969825,13.36646395,9e-08,0.0,0.0,0.0,9e-08,0.0,0.0,0.0,9e-08
1536693751836441400,6750,1536693751836183576,base_link,-0.313635173604,0.19310739746,0.349876091889,-0.861353139687,1.0,0.0,0.0,0.0,1.0,0.0,0.0,0.0,1.0,-0.235647663474,-0.348533719778,0.748466134071,1.21846967915e-07,0.0,0.0,0.0,1.21846967915e-07,0.0,0.0,0.0,1.21846967915e-07,0.55897905,1.4513842,13.3958839,9e-08,0.0,0.0,0.0,9e-08,0.0,0.0,0.0,9e-08
1536693752196973560,6751,1536693752196657400,base_link,-0.206351318134,0.163219659717,0.280379762302,-0.923128195365,1.0,0.0,0.0,0.0,1.0,0.0,0.0,0.0,1.0,-0.426064521074,0.587273061275,0.0218214802444,1.21846967915e-07,0.0,0.0,0.0,1.21846967915e-07,0.0,0.0,0.0,1.21846967915e-07,0.87279185,5.67805035,8.9828914,9e-08,0.0,0.0,0.0,9e-08,0.0,0.0,0.0,9e-08
1536693752476877400,6752,1536693752476619672,base_link,-0.215049717976,0.0598029660022,0.306780240331,-0.925236784936,1.0,0.0,0.0,0.0,1.0,0.0,0.0,0.0,1.0,0.00248989276588,0.576680123806,-0.485776215792,1.21846967915e-07,0.0,0.0,0.0,1.21846967915e-07,0.0,0.0,0.0,1.21846967915e-07,0.44129925,3.8049802,1.176798,9e-08,0.0,0.0,0.0,9e-08,0.0,0.0,0.0,9e-08
1536693752852513560,6753,1536693752852082232,base_link,-0.24873711397,0.00652998420109,0.350193438279,-0.90302367811,1.0,0.0,0.0,0.0,1.0,0.0,0.0,0.0,1.0,0.136335283518,0.00305747613311,0.0277089644223,1.21846967915e-07,0.0,0.0,0.0,1.21846967915e-07,0.0,0.0,0.0,1.21846967915e-07,0.1372931,2.6477955,2.79489525,9e-08,0.0,0.0,0.0,9e-08,0.0,0.0,0.0,9e-08
1536693753259540792,6754,1536693753259272376,base_link,-0.242241664298,0.0213747019195,0.315901302577,-0.917097849319,1.0,0.0,0.0,0.0,1.0,0.0,0.0,0.0,1.0,-0.117151245475,0.0176522675902,0.197432592511,1.21846967915e-07,0.0,0.0,0.0,1.21846967915e-07,0.0,0.0,0.0,1.21846967915e-07,0.36284605,3.7853669,8.5121722,9e-08,0.0,0.0,0.0,9e-08,0.0,0.0,0.0,9e-08
1536693753639667640,6755,1536693753639242392,base_link,-0.229753505904,0.0098413195499,0.301188989099,-0.925419725206,1.0,0.0,0.0,0.0,1.0,0.0,0.0,0.0,1.0,-0.0620335116982,0.0735893920064,-0.0154836308211,1.21846967915e-07,0.0,0.0,0.0,1.21846967915e-07,0.0,0.0,0.0,1.21846967915e-07,0.81395195,4.69738535,9.07115125,9e-08,0.0,0.0,0.0,9e-08,0.0,0.0,0.0,9e-08
1536693753970578392,6756,1536693753968899160,base_link,-0.235816140372,0.00884355253379,0.306157851314,-0.922268892242,1.0,0.0,0.0,0.0,1.0,0.0,0.0,0.0,1.0,0.0565656796098,-0.0542276389897,0.0187721326947,1.21846967915e-07,0.0,0.0,0.0,1.21846967915e-07,0.0,0.0,0.0,1.21846967915e-07,1.20621795,4.3933792,8.7867584,9e-08,0.0,0.0,0.0,9e-08,0.0,0.0,0.0,9e-08
1536693754512179832,6757,1536693754511830264,base_link,-0.215814037529,0.0335555669952,0.292976878722,-0.930839875415,1.0,0.0,0.0,0.0,1.0,0.0,0.0,0.0,1.0,-0.0845968201756,-0.0912663638592,0.130341514945,1.21846967915e-07,0.0,0.0,0.0,1.21846967915e-07,0.0,0.0,0.0,1.21846967915e-07,1.97113665,5.1386846,11.6306869,9e-08,0.0,0.0,0.0,9e-08,0.0,0.0,0.0,9e-08
1536693754742412600,6758,1536693754742223608,base_link,-0.208501593285,0.0469748966682,0.280418866434,-0.935780799134,1.0,0.0,0.0,0.0,1.0,0.0,0.0,0.0,1.0,-0.0102701541036,-0.0760361105204,0.125977560878,1.21846967915e-07,0.0,0.0,0.0,1.21846967915e-07,0.0,0.0,0.0,1.21846967915e-07,2.14765635,5.5309506,11.8660465,9e-08,0.0,0.0,0.0,9e-08,0.0,0.0,0.0,9e-08
1536693755020873816,6759,1536693755020559992,base_link,-0.20923217276,0.0527167403339,0.270853441185,-0.938126460862,1.0,0.0,0.0,0.0,1.0,0.0,0.0,0.0,1.0,0.00852668099105,-0.0255524478853,0.0291961561888,1.21846967915e-07,0.0,0.0,0.0,1.21846967915e-07,0.0,0.0,0.0,1.21846967915e-07,2.06920315,5.38385085,9.5320638,9e-08,0.0,0.0,0.0,9e-08,0.0,0.0,0.0,9e-08
1536693755397757176,6760,1536693755397310872,base_link,-0.211911941826,0.0667409924788,0.262796727779,-0.938923238984,1.0,0.0,0.0,0.0,1.0,0.0,0.0,0.0,1.0,-0.00238564237952,-0.0865965336561,0.116767339408,1.21846967915e-07,0.0,0.0,0.0,1.21846967915e-07,0.0,0.0,0.0,1.21846967915e-07,2.01036325,5.12887795,9.3947707,9e-08,0.0,0.0,0.0,9e-08,0.0,0.0,0.0,9e-08
1536693755809544888,6761,1536693755808898040,base_link,-0.211742322245,0.0896810744831,0.244994357196,-0.941859999571,1.0,0.0,0.0,0.0,1.0,0.0,0.0,0.0,1.0,0.0741344690323,-0.0316440723836,0.0566395521164,1.21846967915e-07,0.0,0.0,0.0,1.21846967915e-07,0.0,0.0,0.0,1.21846967915e-07,2.08881645,5.67805035,10.9246081,9e-08,0.0,0.0,0.0,9e-08,0.0,0.0,0.0,9e-08
1536693756145521528,6762,1536693756145209528,base_link,-0.223973442422,0.100285013311,0.238532631257,-0.939617473774,1.0,0.0,0.0,0.0,1.0,0.0,0.0,0.0,1.0,0.0884770452976,-0.0344844870269,0.0154592264444,1.21846967915e-07,0.0,0.0,0.0,1.21846967915e-07,0.0,0.0,0.0,1.21846967915e-07,2.04958985,5.50153065,8.65927195,9e-08,0.0,0.0,0.0,9e-08,0.0,0.0,0.0,9e-08
1536693756440959704,6763,1536693756433902744,base_link,-0.238062352855,0.117032373675,0.234580352486,-0.935201474492,1.0,0.0,0.0,0.0,1.0,0.0,0.0,0.0,1.0,0.0460690185428,-0.0760795399547,0.0377630107105,1.21846967915e-07,0.0,0.0,0.0,1.21846967915e-07,0.0,0.0,0.0,1.21846967915e-07,1.75539035,5.3740442,9.1005712,9e-08,0.0,0.0,0.0,9e-08,0.0,0.0,0.0,9e-08
1536693756834895800,6764,1536693756834568536,base_link,-0.24459103909,0.136557691992,0.22554607359,-0.933089593256,1.0,0.0,0.0,0.0,1.0,0.0,0.0,0.0,1.0,0.0961270704865,-0.0406405702233,0.0613628551364,1.21846967915e-07,0.0,0.0,0.0,1.21846967915e-07,0.0,0.0,0.0,1.21846967915e-07,1.87307015,5.61921045,9.5320638,9e-08,0.0,0.0,0.0,9e-08,0.0,0.0,0.0,9e-08
1536693757171928792,6765,1536693757171605048,base_link,-0.249953610533,0.154508211682,0.221296669557,-0.929880739206,1.0,0.0,0.0,0.0,1.0,0.0,0.0,0.0,1.0,0.0671421810985,-0.0725822225213,0.0485492348671,1.21846967915e-07,0.0,0.0,0.0,1.21846967915e-07,0.0,0.0,0.0,1.21846967915e-07,1.79461695,5.5897905,10.6892485,9e-08,0.0,0.0,0.0,9e-08,0.0,0.0,0.0,9e-08
1536693757542345208,6766,1536693757541651768,base_link,-0.247855181914,0.165081929243,0.221135663879,-0.928662900948,1.0,0.0,0.0,0.0,1.0,0.0,0.0,0.0,1.0,-0.026489045471,-0.0515886992216,-0.00347890192643,1.21846967915e-07,0.0,0.0,0.0,1.21846967915e-07,0.0,0.0,0.0,1.21846967915e-07,1.73577705,5.6486304,9.58109705,9e-08,0.0,0.0,0.0,9e-08,0.0,0.0,0.0,9e-08
1536693757836083000,6767,1536693757835014680,base_link,-0.246768337941,0.174511555828,0.220956367709,-0.927269857075,1.0,0.0,0.0,0.0,1.0,0.0,0.0,0.0,1.0,0.0464786067605,-0.058969810605,0.0117746545002,1.21846967915e-07,0.0,0.0,0.0,1.21846967915e-07,0.0,0.0,0.0,1.21846967915e-07,1.8436502,5.59959715,8.99269805,9e-08,0.0,0.0,0.0,9e-08,0.0,0.0,0.0,9e-08
1536693758170881848,6768,1536693758170492408,base_link,-0.254010549679,0.18911376921,0.219209858839,-0.9228551678,1.0,0.0,0.0,0.0,1.0,0.0,0.0,0.0,1.0,0.0742405131459,-0.0865167081356,0.0202824138105,1.21846967915e-07,0.0,0.0,0.0,1.21846967915e-07,0.0,0.0,0.0,1.21846967915e-07,1.9221034,5.28578435,9.1397978,9e-08,0.0,0.0,0.0,9e-08,0.0,0.0,0.0,9e-08
1536693758735858168,6769,1536693758734763608,base_link,-0.260101078741,0.203344694354,0.220058143147,-0.917917631245,1.0,0.0,0.0,0.0,1.0,0.0,0.0,0.0,1.0,0.0163631010801,-0.00560089200735,-0.0883362442255,1.21846967915e-07,0.0,0.0,0.0,1.21846967915e-07,0.0,0.0,0.0,1.21846967915e-07,2.10842975,5.3936575,7.79628675,9e-08,0.0,0.0,0.0,9e-08,0.0,0.0,0.0,9e-08
1536693759141125304,6770,1536693759140906296,base_link,-0.263625959625,0.205073118595,0.231004744885,-0.913828855575,1.0,0.0,0.0,0.0,1.0,0.0,0.0,0.0,1.0,-0.0365718305111,-0.0089921336621,0.00517080584541,1.21846967915e-07,0.0,0.0,0.0,1.21846967915e-07,0.0,0.0,0.0,1.21846967915e-07,1.97113665,5.3936575,9.05153795,9e-08,0.0,0.0,0.0,9e-08,0.0,0.0,0.0,9e-08
1536693759566008824,6771,1536693759565803416,base_link,-0.259751083039,0.199262997779,0.233961734574,-0.9154701193,1.0,0.0,0.0,0.0,1.0,0.0,0.0,0.0,1.0,-0.0453505143523,0.0580300092697,-0.0463550724089,1.21846967915e-07,0.0,0.0,0.0,1.21846967915e-07,0.0,0.0,0.0,1.21846967915e-07,1.77500365,5.01119815,7.50208725,9e-08,0.0,0.0,0.0,9e-08,0.0,0.0,0.0,9e-08
1536693759911094328,6772,1536693759910724696,base_link,-0.259611722765,0.182864725415,0.24597103517,-0.915784087795,1.0,0.0,0.0,0.0,1.0,0.0,0.0,0.0,1.0,0.0291209314018,0.0602774433792,-0.0540950261056,1.21846967915e-07,0.0,0.0,0.0,1.21846967915e-07,0.0,0.0,0.0,1.21846967915e-07,1.50041745,4.24627945,6.7862018,9e-08,0.0,0.0,0.0,9e-08,0.0,0.0,0.0,9e-08
1536693760421761592,6773,1536693760421416344,base_link,-0.265573076576,0.173986699131,0.252690809718,-0.913973152892,1.0,0.0,0.0,0.0,1.0,0.0,0.0,0.0,1.0,0.0348458066583,0.0367005094886,-0.00478524109349,1.21846967915e-07,0.0,0.0,0.0,1.21846967915e-07,0.0,0.0,0.0,1.21846967915e-07,1.24544455,4.67777205,8.56120545,9e-08,0.0,0.0,0.0,9e-08,0.0,0.0,0.0,9e-08
1536693760756261496,6774,1536693760755813528,base_link,-0.271384367117,0.164116740611,0.260179957067,-0.911988273322,1.0,0.0,0.0,0.0,1.0,0.0,0.0,0.0,1.0,-0.0568306148052,0.0606406740844,-0.0727699995041,1.21846967915e-07,0.0,0.0,0.0,1.21846967915e-07,0.0,0.0,0.0,1.21846967915e-07,1.12776475,4.5698989,8.1591328,9e-08,0.0,0.0,0.0,9e-08,0.0,0.0,0.0,9e-08
