%time,field.header.seq,field.header.stamp,field.header.frame_id,field.orientation.x,field.orientation.y,field.orientation.z,field.orientation.w,field.orientation_covariance0,field.orientation_covariance1,field.orientation_covariance2,field.orientation_covariance3,field.orientation_covariance4,field.orientation_covariance5,field.orientation_covariance6,field.orientation_covariance7,field.orientation_covariance8,field.angular_velocity.x,field.angular_velocity.y,field.angular_velocity.z,field.angular_velocity_covariance0,field.angular_velocity_covariance1,field.angular_velocity_covariance2,field.angular_velocity_covariance3,field.angular_velocity_covariance4,field.angular_velocity_covariance5,field.angular_velocity_covariance6,field.angular_velocity_covariance7,field.angular_velocity_covariance8,field.linear_acceleration.x,field.linear_acceleration.y,field.linear_acceleration.z,field.linear_acceleration_covariance0,field.linear_acceleration_covariance1,field.linear_acceleration_covariance2,field.linear_acceleration_covariance3,field.linear_acceleration_covariance4,field.linear_acceleration_covariance5,field.linear_acceleration_covariance6,field.linear_acceleration_covariance7,field.linear_acceleration_covariance8
1532135125331150448,4512,1532135125330824304,base_link,-0.0552263483152,0.122385409768,-0.28958449412,-0.947688072465,1.0,0.0,0.0,0.0,1.0,0.0,0.0,0.0,1.0,1.49052727222,-0.466057986021,0.305598318577,1.21846967915e-07,0.0,0.0,0.0,1.21846967915e-07,0.0,0.0,0.0,1.21846967915e-07,-0.392266,0.85317855,22.09438245,9e-08,0.0,0.0,0.0,9e-08,0.0,0.0,0.0,9e-08
1532135125690575120,4513,1532135125690325296,base_link,0.0044816216382,0.197426140542,-0.286696320038,-0.93744762743,1.0,0.0,0.0,0.0,1.0,0.0,0.0,0.0,1.0,-0.698858141899,-0.0731593519449,-0.225516721606,1.21846967915e-07,0.0,0.0,0.0,1.21846967915e-07,0.0,0.0,0.0,1.21846967915e-07,-1.24544455,0.87279185,15.0237878,9e-08,0.0,0.0,0.0,9e-08,0.0,0.0,0.0,9e-08
1532135126035508656,4514,1532135126035275472,base_link,0.0411936340457,0.217565057113,-0.249905830662,-0.942611057774,1.0,0.0,0.0,0.0,1.0,0.0,0.0,0.0,1.0,-0.183669865131,-0.00365143781528,-0.0689818263054,1.21846967915e-07,0.0,0.0,0.0,1.21846967915e-07,0.0,0.0,0.0,1.21846967915e-07,-1.24544455,1.13611596761e-15,9.2770909,9e-08,0.0,0.0,0.0,9e-08,0.0,0.0,0.0,9e-08
1532135126370857808,4515,1532135126370568016,base_link,0.0703175802399,0.211158040694,-0.264014333254,-0.938490357753,1.0,0.0,0.0,0.0,1.0,0.0,0.0,0.0,1.0,-0.242753878236,0.136015295982,0.249573081732,1.21846967915e-07,0.0,0.0,0.0,1.21846967915e-07,0.0,0.0,0.0,1.21846967915e-07,-1.2160246,-0.7649187,7.9237732,9e-08,0.0,0.0,0.0,9e-08,0.0,0.0,0.0,9e-08
1532135126750924784,4516,1532135126750193680,base_link,0.126141269759,0.188153961584,-0.298009518854,-0.927295418665,1.0,0.0,0.0,0.0,1.0,0.0,0.0,0.0,1.0,-0.0787045583129,0.232131257653,0.24552680552,1.21846967915e-07,0.0,0.0,0.0,1.21846967915e-07,0.0,0.0,0.0,1.21846967915e-07,-1.0002783,-0.16671305,5.87418335,9e-08,0.0,0.0,0.0,9e-08,0.0,0.0,0.0,9e-08
1532135127187527792,4517,1532135127187166608,base_link,0.198289790754,0.133104788607,-0.330955645096,-0.912925317379,1.0,0.0,0.0,0.0,1.0,0.0,0.0,0.0,1.0,-0.277949184179,0.318781763315,0.216195806861,1.21846967915e-07,0.0,0.0,0.0,1.21846967915e-07,0.0,0.0,0.0,1.21846967915e-07,-0.9022118,-0.02941995,3.8245935,9e-08,0.0,0.0,0.0,9e-08,0.0,0.0,0.0,9e-08
1532135127479088624,4518,1532135127478580816,base_link,0.248438706582,0.0951464199594,-0.340785660594,-0.901715310602,1.0,0.0,0.0,0.0,1.0,0.0,0.0,0.0,1.0,-0.175447225571,0.291123539209,0.185183048248,1.21846967915e-07,0.0,0.0,0.0,1.21846967915e-07,0.0,0.0,0.0,1.21846967915e-07,-0.85317855,-0.1569064,3.9814999,9e-08,0.0,0.0,0.0,9e-08,0.0,0.0,0.0,9e-08
1532135127885124496,4519,1532135127884923248,base_link,0.289831340026,0.0479529837932,-0.374347503586,-0.879523878154,1.0,0.0,0.0,0.0,1.0,0.0,0.0,0.0,1.0,-0.0921715795994,0.168061628938,0.389364808798,1.21846967915e-07,0.0,0.0,0.0,1.21846967915e-07,0.0,0.0,0.0,1.21846967915e-07,-0.6276256,-0.3334261,4.6287388,9e-08,0.0,0.0,0.0,9e-08,0.0,0.0,0.0,9e-08
1532135128402450960,4520,1532135128402213584,base_link,0.320912944359,0.019427723861,-0.467060035213,-0.823706482429,1.0,0.0,0.0,0.0,1.0,0.0,0.0,0.0,1.0,-0.0468374118209,-0.107395164669,0.434296935797,1.21846967915e-07,0.0,0.0,0.0,1.21846967915e-07,0.0,0.0,0.0,1.21846967915e-07,-0.4707192,-0.61781895,7.9629998,9e-08,0.0,0.0,0.0,9e-08,0.0,0.0,0.0,9e-08
1532135128737036464,4521,1532135128736841456,base_link,0.330130673721,0.0246129506946,-0.527058522115,-0.782698700135,1.0,0.0,0.0,0.0,1.0,0.0,0.0,0.0,1.0,-0.109906069934,-0.146865040064,0.407919406891,1.21846967915e-07,0.0,0.0,0.0,1.21846967915e-07,0.0,0.0,0.0,1.21846967915e-07,-0.4707192,0.392266,9.5712904,9e-08,0.0,0.0,0.0,9e-08,0.0,0.0,0.0,9e-08
1532135129119463024,4522,1532135129117857776,base_link,0.332317703622,0.0417135672338,-0.588701994864,-0.735700267371,1.0,0.0,0.0,0.0,1.0,0.0,0.0,0.0,1.0,-0.0519825816154,-0.240588486195,0.287076354027,1.21846967915e-07,0.0,0.0,0.0,1.21846967915e-07,0.0,0.0,0.0,1.21846967915e-07,-0.67665885,0.3726527,11.28745415,9e-08,0.0,0.0,0.0,9e-08,0.0,0.0,0.0,9e-08
1532135129574260240,4523,1532135129570760880,base_link,0.310146050474,0.0788372562855,-0.643180679901,-0.695638359638,1.0,0.0,0.0,0.0,1.0,0.0,0.0,0.0,1.0,-0.0495172664523,-0.29621475935,0.193544536829,1.21846967915e-07,0.0,0.0,0.0,1.21846967915e-07,0.0,0.0,0.0,1.21846967915e-07,-0.83356525,0.10787315,11.38552065,9e-08,0.0,0.0,0.0,9e-08,0.0,0.0,0.0,9e-08
1532135130079437520,4524,1532135130078421200,base_link,0.274193524342,0.130300731286,-0.705826594909,-0.640037849314,1.0,0.0,0.0,0.0,1.0,0.0,0.0,0.0,1.0,-0.0654206052423,-0.364568322897,0.282831966877,1.21846967915e-07,0.0,0.0,0.0,1.21846967915e-07,0.0,0.0,0.0,1.21846967915e-07,-0.99047165,-0.53936575,13.95486295,9e-08,0.0,0.0,0.0,9e-08,0.0,0.0,0.0,9e-08
1532135130366786992,4525,1532135130366351184,base_link,0.252320502868,0.159020293288,-0.74212301185,-0.600250235683,1.0,0.0,0.0,0.0,1.0,0.0,0.0,0.0,1.0,-0.0468373186886,-0.357182383537,0.290110468864,1.21846967915e-07,0.0,0.0,0.0,1.21846967915e-07,0.0,0.0,0.0,1.21846967915e-07,-0.79433865,-0.04903325,13.71950335,9e-08,0.0,0.0,0.0,9e-08,0.0,0.0,0.0,9e-08
1532135130642044592,4526,1532135130641662704,base_link,0.230791165058,0.186925826326,-0.77672856176,-0.555415983682,1.0,0.0,0.0,0.0,1.0,0.0,0.0,0.0,1.0,-0.0840199440718,-0.327742964029,0.310660004616,1.21846967915e-07,0.0,0.0,0.0,1.21846967915e-07,0.0,0.0,0.0,1.21846967915e-07,-1.0002783,-0.50013915,14.24906245,9e-08,0.0,0.0,0.0,9e-08,0.0,0.0,0.0,9e-08
1532135131012777104,4527,1532135131012511760,base_link,0.198264845063,0.218533384579,-0.820227623054,-0.49006209547,1.0,0.0,0.0,0.0,1.0,0.0,0.0,0.0,1.0,-0.118161961436,-0.298441678286,0.31726539135,1.21846967915e-07,0.0,0.0,0.0,1.21846967915e-07,0.0,0.0,0.0,1.21846967915e-07,-0.980665,-0.48052585,14.54326195,9e-08,0.0,0.0,0.0,9e-08,0.0,0.0,0.0,9e-08
1532135131485155472,4528,1532135131484841616,base_link,0.173226937482,0.257229423808,-0.858032774602,-0.409396152116,1.0,0.0,0.0,0.0,1.0,0.0,0.0,0.0,1.0,-0.109411306679,-0.233490541577,0.323230236769,1.21846967915e-07,0.0,0.0,0.0,1.21846967915e-07,0.0,0.0,0.0,1.21846967915e-07,-0.8825985,-0.02941995,11.76798,9e-08,0.0,0.0,0.0,9e-08,0.0,0.0,0.0,9e-08
1532135131924382704,4529,1532135131924162352,base_link,0.149748827191,0.291140806357,-0.886537047571,-0.326901182184,1.0,0.0,0.0,0.0,1.0,0.0,0.0,0.0,1.0,-0.115315012634,-0.254115492105,0.290141701698,1.21846967915e-07,0.0,0.0,0.0,1.21846967915e-07,0.0,0.0,0.0,1.21846967915e-07,-0.7453054,-0.0784532,13.73911665,9e-08,0.0,0.0,0.0,9e-08,0.0,0.0,0.0,9e-08
1532135132376506160,4530,1532135132376043408,base_link,0.121116782675,0.317397233797,-0.906516068977,-0.250635866583,1.0,0.0,0.0,0.0,1.0,0.0,0.0,0.0,1.0,0.0031061663758,-0.23840162158,0.300054490566,1.21846967915e-07,0.0,0.0,0.0,1.21846967915e-07,0.0,0.0,0.0,1.21846967915e-07,-0.95124505,-0.2745862,12.1014061,9e-08,0.0,0.0,0.0,9e-08,0.0,0.0,0.0,9e-08
1532135132793546384,4531,1532135132793159728,base_link,0.091520606185,0.321142811722,-0.928800856743,-0.16068678115,1.0,0.0,0.0,0.0,1.0,0.0,0.0,0.0,1.0,-0.0198727995157,-0.230916976929,0.380497395992,1.21846967915e-07,0.0,0.0,0.0,1.21846967915e-07,0.0,0.0,0.0,1.21846967915e-07,-0.73549875,-0.0980665,11.6699135,9e-08,0.0,0.0,0.0,9e-08,0.0,0.0,0.0,9e-08
1532135133115827984,4532,1532135133114258544,base_link,0.0753550067888,0.321761844375,-0.93967270105,-0.0883524383269,1.0,0.0,0.0,0.0,1.0,0.0,0.0,0.0,1.0,0.0882535278797,-0.235666036606,0.387219846249,1.21846967915e-07,0.0,0.0,0.0,1.21846967915e-07,0.0,0.0,0.0,1.21846967915e-07,-0.8237586,-0.0392266,11.4737805,9e-08,0.0,0.0,0.0,9e-08,0.0,0.0,0.0,9e-08
1532135133521051664,4533,1532135133520748592,base_link,0.0534334836836,0.319454219232,-0.946087094454,-0.00361584628228,1.0,0.0,0.0,0.0,1.0,0.0,0.0,0.0,1.0,-0.0836828127503,-0.229945197701,0.362222611904,1.21846967915e-07,0.0,0.0,0.0,1.21846967915e-07,0.0,0.0,0.0,1.21846967915e-07,-0.95124505,-0.28439285,10.7284751,9e-08,0.0,0.0,0.0,9e-08,0.0,0.0,0.0,9e-08
1532135134017444304,4534,1532135134015108304,base_link,0.0314124842303,0.312018147241,-0.943707652953,0.105232111949,1.0,0.0,0.0,0.0,1.0,0.0,0.0,0.0,1.0,0.11034604162,-0.218897655606,0.397446274757,1.21846967915e-07,0.0,0.0,0.0,1.21846967915e-07,0.0,0.0,0.0,1.21846967915e-07,-0.9610517,-0.18632635,10.18910935,9e-08,0.0,0.0,0.0,9e-08,0.0,0.0,0.0,9e-08
1532135134402487184,4535,1532135134402106256,base_link,0.00269102891937,0.310014591213,-0.932332600516,0.186117257699,1.0,0.0,0.0,0.0,1.0,0.0,0.0,0.0,1.0,-0.239136338234,-0.274567395449,0.319712638855,1.21846967915e-07,0.0,0.0,0.0,1.21846967915e-07,0.0,0.0,0.0,1.21846967915e-07,-0.87279185,-0.02941995,11.26784085,9e-08,0.0,0.0,0.0,9e-08,0.0,0.0,0.0,9e-08
1532135134796158864,4536,1532135134795806512,base_link,-0.0492154336545,0.351930129509,-0.898673979915,0.257114960392,1.0,0.0,0.0,0.0,1.0,0.0,0.0,0.0,1.0,-0.144979804754,-0.313703835011,0.263482779264,1.21846967915e-07,0.0,0.0,0.0,1.21846967915e-07,0.0,0.0,0.0,1.21846967915e-07,-0.42168595,-0.0196133,12.4348322,9e-08,0.0,0.0,0.0,9e-08,0.0,0.0,0.0,9e-08
1532135135123044176,4537,1532135135122831152,base_link,-0.0814858083626,0.332596942323,-0.883065510497,0.320834289258,1.0,0.0,0.0,0.0,1.0,0.0,0.0,0.0,1.0,0.190575227141,-0.325241774321,0.309163033962,1.21846967915e-07,0.0,0.0,0.0,1.21846967915e-07,0.0,0.0,0.0,1.21846967915e-07,-0.4314926,-0.588399,12.0621795,9e-08,0.0,0.0,0.0,9e-08,0.0,0.0,0.0,9e-08
1532135135526575728,4538,1532135135526282704,base_link,-0.0897848337955,0.252467915711,-0.870456931673,0.412920531409,1.0,0.0,0.0,0.0,1.0,0.0,0.0,0.0,1.0,0.386977314949,-0.276215046644,0.416212499142,1.21846967915e-07,0.0,0.0,0.0,1.21846967915e-07,0.0,0.0,0.0,1.21846967915e-07,-0.3530394,-0.97085835,13.140911,9e-08,0.0,0.0,0.0,9e-08,0.0,0.0,0.0,9e-08
1532135135918343600,4539,1532135135917998928,base_link,-0.0874963169054,0.170806491869,-0.848823172671,0.492614208484,1.0,0.0,0.0,0.0,1.0,0.0,0.0,0.0,1.0,0.401986658573,-0.203972637653,0.239301353693,1.21846967915e-07,0.0,0.0,0.0,1.21846967915e-07,0.0,0.0,0.0,1.21846967915e-07,-0.12748645,0.5099458,12.7290317,9e-08,0.0,0.0,0.0,9e-08,0.0,0.0,0.0,9e-08
1532135136347993648,4540,1532135136347702544,base_link,-0.077718659389,0.0937566725822,-0.841647511598,0.52611687157,1.0,0.0,0.0,0.0,1.0,0.0,0.0,0.0,1.0,0.267543584108,-0.131020575762,0.0385744571686,1.21846967915e-07,0.0,0.0,0.0,1.21846967915e-07,0.0,0.0,0.0,1.21846967915e-07,0.0,0.99047165,12.40541225,9e-08,0.0,0.0,0.0,9e-08,0.0,0.0,0.0,9e-08
1532135136725106800,4541,1532135136724834512,base_link,-0.0588516589619,0.0310710937993,-0.841434824899,0.536244817984,1.0,0.0,0.0,0.0,1.0,0.0,0.0,0.0,1.0,0.427415013313,-0.0229072794318,0.00913765840232,1.21846967915e-07,0.0,0.0,0.0,1.21846967915e-07,0.0,0.0,0.0,1.21846967915e-07,-0.1176798,0.53936575,10.0420096,9e-08,0.0,0.0,0.0,9e-08,0.0,0.0,0.0,9e-08
1532135137060987920,4542,1532135137060669040,base_link,-0.0157082132764,-0.0354694409414,-0.83608193907,0.547231360538,1.0,0.0,0.0,0.0,1.0,0.0,0.0,0.0,1.0,0.350767195225,0.0166591182351,0.0922452583909,1.21846967915e-07,0.0,0.0,0.0,1.21846967915e-07,0.0,0.0,0.0,1.21846967915e-07,-0.08825985,0.89240515,9.5516771,9e-08,0.0,0.0,0.0,9e-08,0.0,0.0,0.0,9e-08
1532135137402399024,4543,1532135137401902256,base_link,0.00845090320111,-0.056385074482,-0.82814468688,0.557607104691,1.0,0.0,0.0,0.0,1.0,0.0,0.0,0.0,1.0,0.0583508498967,0.0912099182606,0.00372411450371,1.21846967915e-07,0.0,0.0,0.0,1.21846967915e-07,0.0,0.0,0.0,1.21846967915e-07,-0.0784532,0.392266,8.4925589,9e-08,0.0,0.0,0.0,9e-08,0.0,0.0,0.0,9e-08
1532135137871144528,4544,1532135137870792304,base_link,0.0425893979238,-0.0716660544745,-0.836500976579,0.54158677606,1.0,0.0,0.0,0.0,1.0,0.0,0.0,0.0,1.0,0.2291341573,0.047133423388,-0.148838356137,1.21846967915e-07,0.0,0.0,0.0,1.21846967915e-07,0.0,0.0,0.0,1.21846967915e-07,0.20593965,0.06864655,9.48303055,9e-08,0.0,0.0,0.0,9e-08,0.0,0.0,0.0,9e-08
1532135138250298224,4545,1532135138250063632,base_link,0.0706850309892,-0.0970837281311,-0.846169057682,0.519207378556,1.0,0.0,0.0,0.0,1.0,0.0,0.0,0.0,1.0,-0.0477882251143,0.00674896128476,-0.107967622578,1.21846967915e-07,0.0,0.0,0.0,1.21846967915e-07,0.0,0.0,0.0,1.21846967915e-07,0.2353596,0.36284605,9.1397978,9e-08,0.0,0.0,0.0,9e-08,0.0,0.0,0.0,9e-08
1532135138589561616,4546,1532135138589160816,base_link,0.0622990418057,-0.0720295781491,-0.858219746312,0.504370336461,1.0,0.0,0.0,0.0,1.0,0.0,0.0,0.0,1.0,-0.0499365441501,0.00716386642307,-0.1291102916,1.21846967915e-07,0.0,0.0,0.0,1.21846967915e-07,0.0,0.0,0.0,1.21846967915e-07,0.28439285,0.392266,9.16921775,9e-08,0.0,0.0,0.0,9e-08,0.0,0.0,0.0,9e-08
1532135138882027536,4547,1532135138876122064,base_link,0.0540821123233,-0.0631248068894,-0.86718188689,0.491005049802,1.0,0.0,0.0,0.0,1.0,0.0,0.0,0.0,1.0,-0.166736200452,-0.0248727686703,-0.0845313072205,1.21846967915e-07,0.0,0.0,0.0,1.21846967915e-07,0.0,0.0,0.0,1.21846967915e-07,0.36284605,0.28439285,9.6693569,9e-08,0.0,0.0,0.0,9e-08,0.0,0.0,0.0,9e-08
1532135139236413776,4548,1532135139236193456,base_link,0.0465813504169,-0.0642034622405,-0.873669541801,0.480010025894,1.0,0.0,0.0,0.0,1.0,0.0,0.0,0.0,1.0,-0.0733101963997,-0.0445334203541,-0.05524180457,1.21846967915e-07,0.0,0.0,0.0,1.21846967915e-07,0.0,0.0,0.0,1.21846967915e-07,0.3726527,0.18632635,9.5516771,9e-08,0.0,0.0,0.0,9e-08,0.0,0.0,0.0,9e-08
1532135139693338288,4549,1532135139686772560,base_link,0.02005080812,-0.0413861678553,-0.881566996486,0.469813559734,1.0,0.0,0.0,0.0,1.0,0.0,0.0,0.0,1.0,-0.250243216753,-0.0401198714972,-0.0286831650883,1.21846967915e-07,0.0,0.0,0.0,1.21846967915e-07,0.0,0.0,0.0,1.21846967915e-07,0.75511205,0.2353596,10.56176205,9e-08,0.0,0.0,0.0,9e-08,0.0,0.0,0.0,9e-08
1532135140047105552,4550,1532135140046847088,base_link,-0.000507672880225,-0.0234575514125,-0.884710259582,0.465550472173,1.0,0.0,0.0,0.0,1.0,0.0,0.0,0.0,1.0,0.00942053459585,-0.0714736282825,0.00307512842119,1.21846967915e-07,0.0,0.0,0.0,1.21846967915e-07,0.0,0.0,0.0,1.21846967915e-07,0.65704555,0.1176798,10.87557485,9e-08,0.0,0.0,0.0,9e-08,0.0,0.0,0.0,9e-08
1532135140347868304,4551,1532135140345384912,base_link,-0.0141037629339,-0.0235411105031,-0.880384741535,0.473465528691,1.0,0.0,0.0,0.0,1.0,0.0,0.0,0.0,1.0,-0.0735057890415,-0.0592861287296,0.0886482521892,1.21846967915e-07,0.0,0.0,0.0,1.21846967915e-07,0.0,0.0,0.0,1.21846967915e-07,0.784532,0.2157463,10.52253545,9e-08,0.0,0.0,0.0,9e-08,0.0,0.0,0.0,9e-08
1532135140869883280,4552,1532135140869480176,base_link,-0.0460031703024,-0.000437127389676,-0.870656124874,0.489736081437,1.0,0.0,0.0,0.0,1.0,0.0,0.0,0.0,1.0,-0.118448235095,-0.0519178174436,0.0963251665235,1.21846967915e-07,0.0,0.0,0.0,1.21846967915e-07,0.0,0.0,0.0,1.21846967915e-07,0.7649187,0.30400615,11.7287534,9e-08,0.0,0.0,0.0,9e-08,0.0,0.0,0.0,9e-08
1532135141264833616,4553,1532135141264349328,base_link,-0.0604468973935,0.0137867186947,-0.863566648793,0.500408575142,1.0,0.0,0.0,0.0,1.0,0.0,0.0,0.0,1.0,-0.170884728432,-0.0162833444774,0.0406864099205,1.21846967915e-07,0.0,0.0,0.0,1.21846967915e-07,0.0,0.0,0.0,1.21846967915e-07,0.77472535,0.59820565,10.36562905,9e-08,0.0,0.0,0.0,9e-08,0.0,0.0,0.0,9e-08
1532135141759224368,4554,1532135141755785936,base_link,-0.0640175504863,0.0274423145304,-0.862655673397,0.500972915195,1.0,0.0,0.0,0.0,1.0,0.0,0.0,0.0,1.0,0.11878579855,0.0574421323836,-0.00784676056355,1.21846967915e-07,0.0,0.0,0.0,1.21846967915e-07,0.0,0.0,0.0,1.21846967915e-07,0.93163175,0.22555295,9.2574776,9e-08,0.0,0.0,0.0,9e-08,0.0,0.0,0.0,9e-08
1532135142125490576,4555,1532135142125261744,base_link,-0.0472518851419,0.0200463673246,-0.862472074764,0.503495106988,1.0,0.0,0.0,0.0,1.0,0.0,0.0,0.0,1.0,0.111769124866,0.0978343710303,0.0454634465277,1.21846967915e-07,0.0,0.0,0.0,1.21846967915e-07,0.0,0.0,0.0,1.21846967915e-07,0.97085835,-0.02941995,8.11009955,9e-08,0.0,0.0,0.0,9e-08,0.0,0.0,0.0,9e-08
1532135142664326992,4556,1532135142664058480,base_link,0.0101363497977,-0.0531563784017,-0.848724523775,0.526059251978,1.0,0.0,0.0,0.0,1.0,0.0,0.0,0.0,1.0,0.424750775099,0.0181254986674,0.0924600586295,1.21846967915e-07,0.0,0.0,0.0,1.21846967915e-07,0.0,0.0,0.0,1.21846967915e-07,0.99047165,0.28439285,9.7870367,9e-08,0.0,0.0,0.0,9e-08,0.0,0.0,0.0,9e-08
1532135143132559760,4557,1532135143131789968,base_link,0.0532346130294,-0.121693587152,-0.843399413273,0.52060942799,1.0,0.0,0.0,0.0,1.0,0.0,0.0,0.0,1.0,0.173535868526,0.0060243839398,-0.162065401673,1.21846967915e-07,0.0,0.0,0.0,1.21846967915e-07,0.0,0.0,0.0,1.21846967915e-07,1.26505785,0.8041453,9.11037785,9e-08,0.0,0.0,0.0,9e-08,0.0,0.0,0.0,9e-08
1532135143588335088,4558,1532135143588068240,base_link,0.0745312250102,-0.140021092378,-0.87007093311,0.466707361785,1.0,0.0,0.0,0.0,1.0,0.0,0.0,0.0,1.0,0.188177719712,-0.0439663119614,-0.309617698193,1.21846967915e-07,0.0,0.0,0.0,1.21846967915e-07,0.0,0.0,0.0,1.21846967915e-07,0.89240515,0.7060788,9.11037785,9e-08,0.0,0.0,0.0,9e-08,0.0,0.0,0.0,9e-08
1532135143883499536,4559,1532135143883195856,base_link,0.0828062764164,-0.183112647824,-0.881934033842,0.426386255342,1.0,0.0,0.0,0.0,1.0,0.0,0.0,0.0,1.0,0.261060327291,-0.200487464666,-0.195226609707,1.21846967915e-07,0.0,0.0,0.0,1.21846967915e-07,0.0,0.0,0.0,1.21846967915e-07,0.9218251,0.32361945,9.9635564,9e-08,0.0,0.0,0.0,9e-08,0.0,0.0,0.0,9e-08
1532135144275923088,4560,1532135144275458960,base_link,0.0534740070179,-0.190057423303,-0.898995529136,0.390929335065,1.0,0.0,0.0,0.0,1.0,0.0,0.0,0.0,1.0,-0.118509195745,-0.172721371055,-0.199287503958,1.21846967915e-07,0.0,0.0,0.0,1.21846967915e-07,0.0,0.0,0.0,1.21846967915e-07,1.6279039,0.85317855,13.20955755,9e-08,0.0,0.0,0.0,9e-08,0.0,0.0,0.0,9e-08
1532135144753237840,4561,1532135144752862896,base_link,0.0399881708165,-0.215693290463,-0.918416866486,0.329223039895,1.0,0.0,0.0,0.0,1.0,0.0,0.0,0.0,1.0,0.0435439497232,-0.164339154959,-0.257333755493,1.21846967915e-07,0.0,0.0,0.0,1.21846967915e-07,0.0,0.0,0.0,1.21846967915e-07,0.61781895,0.392266,10.75789505,9e-08,0.0,0.0,0.0,9e-08,0.0,0.0,0.0,9e-08
1532135145064140432,4562,1532135145061746352,base_link,0.0203505465081,-0.241314178906,-0.92383971177,0.296434662737,1.0,0.0,0.0,0.0,1.0,0.0,0.0,0.0,1.0,-0.00208076531999,-0.218741938472,-0.104037217796,1.21846967915e-07,0.0,0.0,0.0,1.21846967915e-07,0.0,0.0,0.0,1.21846967915e-07,0.91201845,0.40207265,11.83662655,9e-08,0.0,0.0,0.0,9e-08,0.0,0.0,0.0,9e-08
1532135145472226448,4563,1532135145471893616,base_link,-0.012527818359,-0.221839922389,-0.938849596025,0.263042845647,1.0,0.0,0.0,0.0,1.0,0.0,0.0,0.0,1.0,-0.0934114381671,-0.077207185328,-0.229030132294,1.21846967915e-07,0.0,0.0,0.0,1.21846967915e-07,0.0,0.0,0.0,1.21846967915e-07,1.08853815,0.89240515,11.11093445,9e-08,0.0,0.0,0.0,9e-08,0.0,0.0,0.0,9e-08
1532135145872527344,4564,1532135145872105008,base_link,-0.0210854391057,-0.180069238087,-0.96218379673,0.20330473448,1.0,0.0,0.0,0.0,1.0,0.0,0.0,0.0,1.0,-0.24713331461,-0.0217891540378,-0.285782784224,1.21846967915e-07,0.0,0.0,0.0,1.21846967915e-07,0.0,0.0,0.0,1.21846967915e-07,1.0983448,0.5491724,9.3555441,9e-08,0.0,0.0,0.0,9e-08,0.0,0.0,0.0,9e-08
1532135146245343440,4565,1532135146245000304,base_link,-0.0221289811204,-0.151364619296,-0.97602613108,0.154829104725,1.0,0.0,0.0,0.0,1.0,0.0,0.0,0.0,1.0,-0.197360232472,-0.0477132461965,-0.204893410206,1.21846967915e-07,0.0,0.0,0.0,1.21846967915e-07,0.0,0.0,0.0,1.21846967915e-07,1.02969825,-0.12748645,7.83551335,9e-08,0.0,0.0,0.0,9e-08,0.0,0.0,0.0,9e-08
1532135146734639088,4566,1532135146734394384,base_link,-0.0505064402756,-0.138827824141,-0.978870562738,0.14138018298,1.0,0.0,0.0,0.0,1.0,0.0,0.0,0.0,1.0,-0.237304255366,-0.13251170516,0.0741063132882,1.21846967915e-07,0.0,0.0,0.0,1.21846967915e-07,0.0,0.0,0.0,1.21846967915e-07,1.32389775,0.6668522,11.1991943,9e-08,0.0,0.0,0.0,9e-08,0.0,0.0,0.0,9e-08
1532135147079225040,4567,1532135147078882640,base_link,-0.0760684608238,-0.0954800182464,-0.983497875278,0.1335255957,1.0,0.0,0.0,0.0,1.0,0.0,0.0,0.0,1.0,-0.259014487267,-0.0498740747571,-0.0659755393863,1.21846967915e-07,0.0,0.0,0.0,1.21846967915e-07,0.0,0.0,0.0,1.21846967915e-07,1.52003075,0.61781895,13.6312435,9e-08,0.0,0.0,0.0,9e-08,0.0,0.0,0.0,9e-08
1532135147432977648,4568,1532135147432635600,base_link,-0.0841977027632,-0.0474785285299,-0.989055686683,0.111469210183,1.0,0.0,0.0,0.0,1.0,0.0,0.0,0.0,1.0,-0.294049859047,0.0332464873791,-0.114928148687,1.21846967915e-07,0.0,0.0,0.0,1.21846967915e-07,0.0,0.0,0.0,1.21846967915e-07,0.95124505,0.6276256,10.6696352,9e-08,0.0,0.0,0.0,9e-08,0.0,0.0,0.0,9e-08
1532135147792116592,4569,1532135147791385360,base_link,-0.0807151420607,-0.00160359050181,-0.992908981502,0.0872596630325,1.0,0.0,0.0,0.0,1.0,0.0,0.0,0.0,1.0,-0.205729722977,0.04361313954,-0.0706721842289,1.21846967915e-07,0.0,0.0,0.0,1.21846967915e-07,0.0,0.0,0.0,1.21846967915e-07,0.75511205,0.2353596,8.91424485,9e-08,0.0,0.0,0.0,9e-08,0.0,0.0,0.0,9e-08
1532135148216442128,4570,1532135148215463472,base_link,-0.0729256579726,0.026963255778,-0.992861960373,0.0904431251726,1.0,0.0,0.0,0.0,1.0,0.0,0.0,0.0,1.0,-0.126070588827,0.0422807261348,0.110848404467,1.21846967915e-07,0.0,0.0,0.0,1.21846967915e-07,0.0,0.0,0.0,1.21846967915e-07,1.14737805,0.16671305,8.7279185,9e-08,0.0,0.0,0.0,9e-08,0.0,0.0,0.0,9e-08
1532135148694128720,4571,1532135148691410544,base_link,-0.0626501283997,0.0527395445667,-0.989704574693,0.117381245017,1.0,0.0,0.0,0.0,1.0,0.0,0.0,0.0,1.0,-0.229792147875,0.0623162426054,0.153429016471,1.21846967915e-07,0.0,0.0,0.0,1.21846967915e-07,0.0,0.0,0.0,1.21846967915e-07,1.3140911,0.2353596,8.4925589,9e-08,0.0,0.0,0.0,9e-08,0.0,0.0,0.0,9e-08
1532135148989221168,4572,1532135148984798992,base_link,-0.0568616381603,0.0790361122034,-0.985381995363,0.139794028086,1.0,0.0,0.0,0.0,1.0,0.0,0.0,0.0,1.0,-0.0682661980391,0.0315530672669,0.17796830833,1.21846967915e-07,0.0,0.0,0.0,1.21846967915e-07,0.0,0.0,0.0,1.21846967915e-07,1.372931,0.3530394,9.2967042,9e-08,0.0,0.0,0.0,9e-08,0.0,0.0,0.0,9e-08
1532135149421957008,4573,1532135149419935856,base_link,-0.042524105004,0.0672806552847,-0.982416043002,0.168889704747,1.0,0.0,0.0,0.0,1.0,0.0,0.0,0.0,1.0,0.120984077454,0.0524769723415,0.111206583679,1.21846967915e-07,0.0,0.0,0.0,1.21846967915e-07,0.0,0.0,0.0,1.21846967915e-07,1.3925443,0.4314926,9.14960445,9e-08,0.0,0.0,0.0,9e-08,0.0,0.0,0.0,9e-08
1532135149732785520,4574,1532135149732266544,base_link,-0.0322684633591,0.0440180977773,-0.98134331975,0.184354121523,1.0,0.0,0.0,0.0,1.0,0.0,0.0,0.0,1.0,0.206468179822,0.0337171964347,0.0851782336831,1.21846967915e-07,0.0,0.0,0.0,1.21846967915e-07,0.0,0.0,0.0,1.21846967915e-07,1.7848103,0.2745862,9.022118,9e-08,0.0,0.0,0.0,9e-08,0.0,0.0,0.0,9e-08
1532135150073841840,4575,1532135150073447024,base_link,-0.0198274117972,0.00977141105953,-0.980554722125,0.194997000453,1.0,0.0,0.0,0.0,1.0,0.0,0.0,0.0,1.0,0.234524399042,0.0195709392428,0.0659427195787,1.21846967915e-07,0.0,0.0,0.0,1.21846967915e-07,0.0,0.0,0.0,1.21846967915e-07,1.63771055,0.38245935,8.3944924,9e-08,0.0,0.0,0.0,9e-08,0.0,0.0,0.0,9e-08
1532135150539456912,4576,1532135150539144976,base_link,-0.0104389421457,-0.0443242041391,-0.977771832527,0.204667136911,1.0,0.0,0.0,0.0,1.0,0.0,0.0,0.0,1.0,0.232070013881,-0.0214927457273,-3.4679658711e-05,1.21846967915e-07,0.0,0.0,0.0,1.21846967915e-07,0.0,0.0,0.0,1.21846967915e-07,1.8632635,0.48052585,10.28717585,9e-08,0.0,0.0,0.0,9e-08,0.0,0.0,0.0,9e-08
1532135150837454352,4577,1532135150837015856,base_link,-0.00491306323914,-0.0759247613185,-0.977745015645,0.195514646025,1.0,0.0,0.0,0.0,1.0,0.0,0.0,0.0,1.0,0.135959103703,-0.015812523663,-0.0959963649511,1.21846967915e-07,0.0,0.0,0.0,1.21846967915e-07,0.0,0.0,0.0,1.21846967915e-07,1.4317709,0.61781895,9.9635564,9e-08,0.0,0.0,0.0,9e-08,0.0,0.0,0.0,9e-08
1532135151187871856,4578,1532135151182784784,base_link,-0.00539220318605,-0.0954598600981,-0.979856246008,0.175328481467,1.0,0.0,0.0,0.0,1.0,0.0,0.0,0.0,1.0,0.283715456724,-0.0161728560925,-0.161081209779,1.21846967915e-07,0.0,0.0,0.0,1.21846967915e-07,0.0,0.0,0.0,1.21846967915e-07,1.52003075,0.5687857,10.1596894,9e-08,0.0,0.0,0.0,9e-08,0.0,0.0,0.0,9e-08
1532135151642660272,4579,1532135151642203504,base_link,-0.0109391270299,-0.137062565228,-0.979366135065,0.148108616227,1.0,0.0,0.0,0.0,1.0,0.0,0.0,0.0,1.0,-0.062904253602,-0.0836730003357,-0.0250717140734,1.21846967915e-07,0.0,0.0,0.0,1.21846967915e-07,0.0,0.0,0.0,1.21846967915e-07,1.32389775,0.22555295,9.67916355,9e-08,0.0,0.0,0.0,9e-08,0.0,0.0,0.0,9e-08
1532135152071126416,4580,1532135152070845104,base_link,-0.0286798436382,-0.0916527321159,-0.985440057254,0.140303730614,1.0,0.0,0.0,0.0,1.0,0.0,0.0,0.0,1.0,-0.201244339347,-0.0398639366031,-0.0732554644346,1.21846967915e-07,0.0,0.0,0.0,1.21846967915e-07,0.0,0.0,0.0,1.21846967915e-07,1.53964405,0.65704555,8.99269805,9e-08,0.0,0.0,0.0,9e-08,0.0,0.0,0.0,9e-08
1532135152521256880,4581,1532135152520387472,base_link,-0.0367476832784,-0.0785650891839,-0.990731134876,0.104541632484,1.0,0.0,0.0,0.0,1.0,0.0,0.0,0.0,1.0,-0.0606505908072,-0.0739485621452,-0.143615618348,1.21846967915e-07,0.0,0.0,0.0,1.21846967915e-07,0.0,0.0,0.0,1.21846967915e-07,1.2748645,0.4903325,10.85596155,9e-08,0.0,0.0,0.0,9e-08,0.0,0.0,0.0,9e-08
1532135152842909072,4582,1532135152842635504,base_link,-0.0478846024672,-0.0748456610215,-0.992238318064,0.0869960461048,1.0,0.0,0.0,0.0,1.0,0.0,0.0,0.0,1.0,-0.115961484611,-0.0719936341047,-0.048553917557,1.21846967915e-07,0.0,0.0,0.0,1.21846967915e-07,0.0,0.0,0.0,1.21846967915e-07,1.14737805,0.44129925,10.93441475,9e-08,0.0,0.0,0.0,9e-08,0.0,0.0,0.0,9e-08
1532135153139866544,4583,1532135153139639216,base_link,-0.0614952316671,-0.0568992347791,-0.993241784876,0.0803216679418,1.0,0.0,0.0,0.0,1.0,0.0,0.0,0.0,1.0,-0.0940045416355,-0.0687919184566,-0.00196462823078,1.21846967915e-07,0.0,0.0,0.0,1.21846967915e-07,0.0,0.0,0.0,1.21846967915e-07,1.372931,0.3334261,10.64021525,9e-08,0.0,0.0,0.0,9e-08,0.0,0.0,0.0,9e-08
1532135153536503568,4584,1532135153532665232,base_link,-0.0757511583955,-0.0397981410531,-0.993587150805,0.0739083467881,1.0,0.0,0.0,0.0,1.0,0.0,0.0,0.0,1.0,-0.19421030581,-0.00919508561492,-0.0911068767309,1.21846967915e-07,0.0,0.0,0.0,1.21846967915e-07,0.0,0.0,0.0,1.21846967915e-07,1.0002783,0.5687857,10.32640245,9e-08,0.0,0.0,0.0,9e-08,0.0,0.0,0.0,9e-08
1532135153825113104,4585,1532135153819661776,base_link,-0.0800284425958,-0.0254517123016,-0.994602990646,0.0609306959993,1.0,0.0,0.0,0.0,1.0,0.0,0.0,0.0,1.0,-0.149727776647,-0.000422813347541,-0.0575633756816,1.21846967915e-07,0.0,0.0,0.0,1.21846967915e-07,0.0,0.0,0.0,1.21846967915e-07,1.14737805,0.392266,9.8458766,9e-08,0.0,0.0,0.0,9e-08,0.0,0.0,0.0,9e-08
1532135154085753520,4586,1532135154085261616,base_link,-0.0802593669161,-0.0152943019297,-0.995327537769,0.051454940576,1.0,0.0,0.0,0.0,1.0,0.0,0.0,0.0,1.0,0.0153897469863,0.0264721177518,-0.0527795478702,1.21846967915e-07,0.0,0.0,0.0,1.21846967915e-07,0.0,0.0,0.0,1.21846967915e-07,1.0395049,0.196133,10.6696352,9e-08,0.0,0.0,0.0,9e-08,0.0,0.0,0.0,9e-08
1532135154365821872,4587,1532135154363812336,base_link,-0.0761557603425,-0.012642731525,-0.995505666656,0.054853706914,1.0,0.0,0.0,0.0,1.0,0.0,0.0,0.0,1.0,-0.057643070817,0.0315048694611,0.0426995828748,1.21846967915e-07,0.0,0.0,0.0,1.21846967915e-07,0.0,0.0,0.0,1.21846967915e-07,1.01008495,0.26477955,9.0809579,9e-08,0.0,0.0,0.0,9e-08,0.0,0.0,0.0,9e-08
1532135154944218672,4588,1532135154935386512,base_link,-0.0657104827376,0.0286900568664,-0.995397648959,0.0635809212163,1.0,0.0,0.0,0.0,1.0,0.0,0.0,0.0,1.0,-0.0914715379477,0.0622173883021,0.0297469701618,1.21846967915e-07,0.0,0.0,0.0,1.21846967915e-07,0.0,0.0,0.0,1.21846967915e-07,1.4317709,0.3726527,8.91424485,9e-08,0.0,0.0,0.0,9e-08,0.0,0.0,0.0,9e-08
1532135155322732336,4589,1532135155319570416,base_link,-0.0585912132955,0.0237582957214,-0.99536609311,0.0724496638709,1.0,0.0,0.0,0.0,1.0,0.0,0.0,0.0,1.0,0.0565310828388,0.0210984013975,0.0903859063983,1.21846967915e-07,0.0,0.0,0.0,1.21846967915e-07,0.0,0.0,0.0,1.21846967915e-07,1.2552512,0.2353596,8.85540495,9e-08,0.0,0.0,0.0,9e-08,0.0,0.0,0.0,9e-08
1532135155632811888,4590,1532135155632266512,base_link,-0.054714453297,0.0248932436782,-0.994131607241,0.0899388820495,1.0,0.0,0.0,0.0,1.0,0.0,0.0,0.0,1.0,-0.0395932905376,0.0274008158594,0.110741063952,1.21846967915e-07,0.0,0.0,0.0,1.21846967915e-07,0.0,0.0,0.0,1.21846967915e-07,1.5102241,0.20593965,9.97336305,9e-08,0.0,0.0,0.0,9e-08,0.0,0.0,0.0,9e-08
1532135156022346320,4591,1532135156019917392,base_link,-0.0516366770543,0.0168190534157,-0.993059266787,0.104326725596,1.0,0.0,0.0,0.0,1.0,0.0,0.0,0.0,1.0,0.102335818112,0.0162031818181,0.0425698980689,1.21846967915e-07,0.0,0.0,0.0,1.21846967915e-07,0.0,0.0,0.0,1.21846967915e-07,1.3337044,0.4118793,10.3362091,9e-08,0.0,0.0,0.0,9e-08,0.0,0.0,0.0,9e-08
1532135156399362608,4592,1532135156399078160,base_link,-0.0455827178358,-0.0137357877835,-0.992223143399,0.115007728747,1.0,0.0,0.0,0.0,1.0,0.0,0.0,0.0,1.0,0.168955907226,0.0174388419837,0.0518891625106,1.21846967915e-07,0.0,0.0,0.0,1.21846967915e-07,0.0,0.0,0.0,1.21846967915e-07,1.4121576,0.24516625,9.9831697,9e-08,0.0,0.0,0.0,9e-08,0.0,0.0,0.0,9e-08
1532135156733345584,4593,1532135156733091664,base_link,-0.0383684237983,-0.0282917682089,-0.991471847334,0.121288976622,1.0,0.0,0.0,0.0,1.0,0.0,0.0,0.0,1.0,0.0517279952765,0.0276110265404,0.00761848688126,1.21846967915e-07,0.0,0.0,0.0,1.21846967915e-07,0.0,0.0,0.0,1.21846967915e-07,1.40235095,0.3726527,9.62032365,9e-08,0.0,0.0,0.0,9e-08,0.0,0.0,0.0,9e-08
1532135157019501456,4594,1532135157019196848,base_link,-0.0311249658091,-0.0362811825903,-0.991776482583,0.118719505086,1.0,0.0,0.0,0.0,1.0,0.0,0.0,0.0,1.0,0.0992103368044,0.0368833020329,-0.0355003513396,1.21846967915e-07,0.0,0.0,0.0,1.21846967915e-07,0.0,0.0,0.0,1.21846967915e-07,1.3925443,0.2157463,9.03192465,9e-08,0.0,0.0,0.0,9e-08,0.0,0.0,0.0,9e-08
1532135157544535376,4595,1532135157544227184,base_link,-0.0281426228312,-0.0443364952748,-0.991734340946,0.117069487724,1.0,0.0,0.0,0.0,1.0,0.0,0.0,0.0,1.0,-0.124773129821,-0.00740536022931,0.0420812554657,1.21846967915e-07,0.0,0.0,0.0,1.21846967915e-07,0.0,0.0,0.0,1.21846967915e-07,1.2552512,0.4511059,9.91452315,9e-08,0.0,0.0,0.0,9e-08,0.0,0.0,0.0,9e-08
1532135157936823632,4596,1532135157931053520,base_link,-0.0342278591864,-0.00799626892577,-0.9921669301,0.11987199904,1.0,0.0,0.0,0.0,1.0,0.0,0.0,0.0,1.0,-0.148714244366,0.0160274934024,-0.0384735763073,1.21846967915e-07,0.0,0.0,0.0,1.21846967915e-07,0.0,0.0,0.0,1.21846967915e-07,1.48080415,0.57859235,10.64021525,9e-08,0.0,0.0,0.0,9e-08,0.0,0.0,0.0,9e-08
1532135158292527184,4597,1532135158285629936,base_link,-0.031796454736,-0.00605395306681,-0.993831313147,0.106073823951,1.0,0.0,0.0,0.0,1.0,0.0,0.0,0.0,1.0,0.0738786011934,-0.00784119591117,-0.0851469412446,1.21846967915e-07,0.0,0.0,0.0,1.21846967915e-07,0.0,0.0,0.0,1.21846967915e-07,1.22583125,0.38245935,9.7085835,9e-08,0.0,0.0,0.0,9e-08,0.0,0.0,0.0,9e-08
1532135158644754256,4598,1532135158644383056,base_link,-0.038406707135,-0.00615795148734,-0.994908593644,0.0929725484944,1.0,0.0,0.0,0.0,1.0,0.0,0.0,0.0,1.0,0.0654648095369,-0.0378622449934,-0.0882713422179,1.21846967915e-07,0.0,0.0,0.0,1.21846967915e-07,0.0,0.0,0.0,1.21846967915e-07,1.0198916,0.53936575,11.4149406,9e-08,0.0,0.0,0.0,9e-08,0.0,0.0,0.0,9e-08
1532135159074810832,4599,1532135159074458064,base_link,-0.0409235182297,-0.0452428668936,-0.995005262244,0.0790118773209,1.0,0.0,0.0,0.0,1.0,0.0,0.0,0.0,1.0,0.0206784810871,-0.0300688464195,-0.0334637090564,1.21846967915e-07,0.0,0.0,0.0,1.21846967915e-07,0.0,0.0,0.0,1.21846967915e-07,0.8237586,0.5491724,9.7870367,9e-08,0.0,0.0,0.0,9e-08,0.0,0.0,0.0,9e-08
1532135159427744336,4600,1532135159426222736,base_link,-0.0449628317375,-0.0317090747328,-0.995586111267,0.0760340278734,1.0,0.0,0.0,0.0,1.0,0.0,0.0,0.0,1.0,0.0133223030716,0.0309391245246,-0.0210762601346,1.21846967915e-07,0.0,0.0,0.0,1.21846967915e-07,0.0,0.0,0.0,1.21846967915e-07,0.89240515,0.2549729,9.6301303,9e-08,0.0,0.0,0.0,9e-08,0.0,0.0,0.0,9e-08
1532135159907021072,4601,1532135159906543920,base_link,-0.0360131038415,-0.0235870148304,-0.996377772062,0.0733351513541,1.0,0.0,0.0,0.0,1.0,0.0,0.0,0.0,1.0,0.110204428434,0.068035043776,-0.0469142273068,1.21846967915e-07,0.0,0.0,0.0,1.21846967915e-07,0.0,0.0,0.0,1.21846967915e-07,0.8825985,0.44129925,8.34545915,9e-08,0.0,0.0,0.0,9e-08,0.0,0.0,0.0,9e-08
1532135160332290064,4602,1532135160331939440,base_link,-0.0218195569911,-0.0365238487276,-0.996816445732,0.0674306230445,1.0,0.0,0.0,0.0,1.0,0.0,0.0,0.0,1.0,-0.0321188643575,0.0580055490136,0.01285113208,1.21846967915e-07,0.0,0.0,0.0,1.21846967915e-07,0.0,0.0,0.0,1.21846967915e-07,1.0198916,0.2549729,9.2770909,9e-08,0.0,0.0,0.0,9e-08,0.0,0.0,0.0,9e-08
1532135160685333328,4603,1532135160682759152,base_link,-0.0133923193022,-0.0334957804236,-0.996787729652,0.0715045487609,1.0,0.0,0.0,0.0,1.0,0.0,0.0,0.0,1.0,-0.121728479862,0.0497300922871,0.0321126431227,1.21846967915e-07,0.0,0.0,0.0,1.21846967915e-07,0.0,0.0,0.0,1.21846967915e-07,0.8629852,0.38245935,8.6102387,9e-08,0.0,0.0,0.0,9e-08,0.0,0.0,0.0,9e-08
1532135161022164464,4604,1532135161021941328,base_link,-0.008184511939,-0.020872739252,-0.99680240795,0.0766961669483,1.0,0.0,0.0,0.0,1.0,0.0,0.0,0.0,1.0,-0.088308930397,0.0459297299385,0.031621132046,1.21846967915e-07,0.0,0.0,0.0,1.21846967915e-07,0.0,0.0,0.0,1.21846967915e-07,1.06892485,0.2157463,8.75733845,9e-08,0.0,0.0,0.0,9e-08,0.0,0.0,0.0,9e-08
1532135161295446480,4605,1532135161295117872,base_link,-0.00741787925271,-0.00759792012642,-0.996193627642,0.0865188009815,1.0,0.0,0.0,0.0,1.0,0.0,0.0,0.0,1.0,-0.127544373274,0.0231586750597,0.0779150724411,1.21846967915e-07,0.0,0.0,0.0,1.21846967915e-07,0.0,0.0,0.0,1.21846967915e-07,1.57887065,0.38245935,10.13026945,9e-08,0.0,0.0,0.0,9e-08,0.0,0.0,0.0,9e-08
1532135161689242992,4606,1532135161686851216,base_link,-0.00171020272868,0.00420145004387,-0.996325125429,0.0855316751974,1.0,0.0,0.0,0.0,1.0,0.0,0.0,0.0,1.0,-0.092974036932,0.0405541136861,-0.0633486658335,1.21846967915e-07,0.0,0.0,0.0,1.21846967915e-07,0.0,0.0,0.0,1.21846967915e-07,1.0591182,0.46091255,9.63993695,9e-08,0.0,0.0,0.0,9e-08,0.0,0.0,0.0,9e-08
1532135162130260752,4607,1532135162129918608,base_link,0.00204177728986,-0.0152904048695,-0.997245765054,0.0725459767813,1.0,0.0,0.0,0.0,1.0,0.0,0.0,0.0,1.0,0.283009111881,-0.0115440972149,-0.0100830439478,1.21846967915e-07,0.0,0.0,0.0,1.21846967915e-07,0.0,0.0,0.0,1.21846967915e-07,0.87279185,-0.1569064,8.629852,9e-08,0.0,0.0,0.0,9e-08,0.0,0.0,0.0,9e-08
1532135162622921328,4608,1532135162622691504,base_link,-0.014281458487,-0.0422085070013,-0.994941998167,0.0900272301184,1.0,0.0,0.0,0.0,1.0,0.0,0.0,0.0,1.0,-0.0045960014686,-0.0619509629905,0.0197370965034,1.21846967915e-07,0.0,0.0,0.0,1.21846967915e-07,0.0,0.0,0.0,1.21846967915e-07,0.9610517,0.4511059,10.40485565,9e-08,0.0,0.0,0.0,9e-08,0.0,0.0,0.0,9e-08
1532135163042428944,4609,1532135163042118608,base_link,-0.0272228735446,-0.0457371978791,-0.995053440666,0.0838789252681,1.0,0.0,0.0,0.0,1.0,0.0,0.0,0.0,1.0,-0.0396119952202,-0.0550854951143,-0.0506635867059,1.21846967915e-07,0.0,0.0,0.0,1.21846967915e-07,0.0,0.0,0.0,1.21846967915e-07,0.9022118,0.26477955,11.375714,9e-08,0.0,0.0,0.0,9e-08,0.0,0.0,0.0,9e-08
1532135163437861200,4610,1532135163435731728,base_link,-0.0343480477601,-0.0454758046169,-0.995481371599,0.0759539439921,1.0,0.0,0.0,0.0,1.0,0.0,0.0,0.0,1.0,-0.0118755968288,-0.0102101126686,-0.0694610327482,1.21846967915e-07,0.0,0.0,0.0,1.21846967915e-07,0.0,0.0,0.0,1.21846967915e-07,0.6080123,0.46091255,10.03220295,9e-08,0.0,0.0,0.0,9e-08,0.0,0.0,0.0,9e-08
1532135163926096720,4611,1532135163925705936,base_link,-0.035436668711,-0.042237929722,-0.997041901101,0.0535504178552,1.0,0.0,0.0,0.0,1.0,0.0,0.0,0.0,1.0,-0.0394412130117,0.00388757092878,-0.0627017393708,1.21846967915e-07,0.0,0.0,0.0,1.21846967915e-07,0.0,0.0,0.0,1.21846967915e-07,0.50013915,0.1372931,9.9439431,9e-08,0.0,0.0,0.0,9e-08,0.0,0.0,0.0,9e-08
1532135164334892080,4612,1532135164334237360,base_link,-0.0362549914291,-0.0400383103432,-0.997247728287,0.0507885590171,1.0,0.0,0.0,0.0,1.0,0.0,0.0,0.0,1.0,-0.00731426477432,0.0103709772229,-0.00131785403937,1.21846967915e-07,0.0,0.0,0.0,1.21846967915e-07,0.0,0.0,0.0,1.21846967915e-07,0.75511205,0.6472389,10.71866845,9e-08,0.0,0.0,0.0,9e-08,0.0,0.0,0.0,9e-08
1532135164616649904,4613,1532135164616347344,base_link,-0.0291332639946,-0.0247325576912,-0.998259913774,0.0449076616004,1.0,0.0,0.0,0.0,1.0,0.0,0.0,0.0,1.0,-0.0292975287884,0.0564931891859,-0.0706212297082,1.21846967915e-07,0.0,0.0,0.0,1.21846967915e-07,0.0,0.0,0.0,1.21846967915e-07,0.4511059,0.5295591,8.9044382,9e-08,0.0,0.0,0.0,9e-08,0.0,0.0,0.0,9e-08
1532135165011494032,4614,1532135165011254480,base_link,-0.015830784919,-0.015830723225,-0.999511706254,0.0217973280804,1.0,0.0,0.0,0.0,1.0,0.0,0.0,0.0,1.0,-0.0979619175196,0.0424750968814,-0.0832126513124,1.21846967915e-07,0.0,0.0,0.0,1.21846967915e-07,0.0,0.0,0.0,1.21846967915e-07,0.4511059,0.30400615,8.8063717,9e-08,0.0,0.0,0.0,9e-08,0.0,0.0,0.0,9e-08
1532135165516160528,4615,1532135165515686384,base_link,-0.00915552325503,0.00109929045027,-0.999537487677,0.0289789351397,1.0,0.0,0.0,0.0,1.0,0.0,0.0,0.0,1.0,-0.117558069527,0.00775441294536,0.120682194829,1.21846967915e-07,0.0,0.0,0.0,1.21846967915e-07,0.0,0.0,0.0,1.21846967915e-07,0.3726527,0.0588399,8.3160392,9e-08,0.0,0.0,0.0,9e-08,0.0,0.0,0.0,9e-08
1532135165971153776,4616,1532135165970791696,base_link,-0.00483585482769,-0.0172235257481,-0.998755434661,0.046556915756,1.0,0.0,0.0,0.0,1.0,0.0,0.0,0.0,1.0,0.127715528011,0.00479250308126,-0.0131112923846,1.21846967915e-07,0.0,0.0,0.0,1.21846967915e-07,0.0,0.0,0.0,1.21846967915e-07,0.7060788,0.4314926,10.32640245,9e-08,0.0,0.0,0.0,9e-08,0.0,0.0,0.0,9e-08
1532135166321605008,4617,1532135166321308816,base_link,-0.00510130518826,-0.0442842368721,-0.99805526044,0.0435726996864,1.0,0.0,0.0,0.0,1.0,0.0,0.0,0.0,1.0,0.283668637276,0.00896575674415,-0.0340648368001,1.21846967915e-07,0.0,0.0,0.0,1.21846967915e-07,0.0,0.0,0.0,1.21846967915e-07,0.28439285,0.22555295,8.52197885,9e-08,0.0,0.0,0.0,9e-08,0.0,0.0,0.0,9e-08
1532135166727822640,4618,1532135166727082864,base_link,-0.00955404918749,-0.0917360278218,-0.9951808735,0.0332903944616,1.0,0.0,0.0,0.0,1.0,0.0,0.0,0.0,1.0,0.221438094974,-0.0379316583276,-0.0539263524115,1.21846967915e-07,0.0,0.0,0.0,1.21846967915e-07,0.0,0.0,0.0,1.21846967915e-07,0.34323275,0.14709975,9.5909037,9e-08,0.0,0.0,0.0,9e-08,0.0,0.0,0.0,9e-08
1532135167035924880,4619,1532135167035650256,base_link,-0.0142988157078,-0.13599479724,-0.990352715132,0.0224155888495,1.0,0.0,0.0,0.0,1.0,0.0,0.0,0.0,1.0,0.236737728119,-0.0439724549651,-0.0989058539271,1.21846967915e-07,0.0,0.0,0.0,1.21846967915e-07,0.0,0.0,0.0,1.21846967915e-07,0.30400615,0.6472389,10.07142955,9e-08,0.0,0.0,0.0,9e-08,0.0,0.0,0.0,9e-08
1532135167436711312,4620,1532135167429903728,base_link,-0.0135288633811,-0.180037094365,-0.983501644449,-0.0113194467045,1.0,0.0,0.0,0.0,1.0,0.0,0.0,0.0,1.0,0.223332390189,-0.0336281657219,-0.238356098533,1.21846967915e-07,0.0,0.0,0.0,1.21846967915e-07,0.0,0.0,0.0,1.21846967915e-07,0.2745862,0.5099458,9.34573745,9e-08,0.0,0.0,0.0,9e-08,0.0,0.0,0.0,9e-08
1532135167789605904,4621,1532135167788895792,base_link,-0.0191698836576,-0.219205393059,-0.974039177088,-0.0531901561552,1.0,0.0,0.0,0.0,1.0,0.0,0.0,0.0,1.0,0.192096754909,-0.0991327390075,-0.237252935767,1.21846967915e-07,0.0,0.0,0.0,1.21846967915e-07,0.0,0.0,0.0,1.21846967915e-07,0.3334261,0.38245935,9.38496405,9e-08,0.0,0.0,0.0,9e-08,0.0,0.0,0.0,9e-08
1532135168096865680,4622,1532135168096345584,base_link,-0.0308670677111,-0.253296827125,-0.962169069432,-0.0954914830114,1.0,0.0,0.0,0.0,1.0,0.0,0.0,0.0,1.0,0.168030798435,-0.141330614686,-0.269421458244,1.21846967915e-07,0.0,0.0,0.0,1.21846967915e-07,0.0,0.0,0.0,1.21846967915e-07,0.4118793,0.40207265,9.85568325,9e-08,0.0,0.0,0.0,9e-08,0.0,0.0,0.0,9e-08
1532135168530196688,4623,1532135168529875120,base_link,-0.0526203048493,-0.267278116617,-0.949386435874,-0.15639343744,1.0,0.0,0.0,0.0,1.0,0.0,0.0,0.0,1.0,0.0611186213791,-0.206089645624,-0.235093995929,1.21846967915e-07,0.0,0.0,0.0,1.21846967915e-07,0.0,0.0,0.0,1.21846967915e-07,0.5687857,0.57859235,10.8461549,9e-08,0.0,0.0,0.0,9e-08,0.0,0.0,0.0,9e-08
1532135168875166160,4624,1532135168874807280,base_link,-0.0767150441797,-0.269576803031,-0.936712073018,-0.209794283827,1.0,0.0,0.0,0.0,1.0,0.0,0.0,0.0,1.0,0.0473459139466,-0.188714042306,-0.308021426201,1.21846967915e-07,0.0,0.0,0.0,1.21846967915e-07,0.0,0.0,0.0,1.21846967915e-07,0.6472389,0.69627215,11.3168741,9e-08,0.0,0.0,0.0,9e-08,0.0,0.0,0.0,9e-08
1532135169326589328,4625,1532135169326352048,base_link,-0.114561909603,-0.312558422556,-0.896016790231,-0.293831096008,1.0,0.0,0.0,0.0,1.0,0.0,0.0,0.0,1.0,0.230506762862,-0.249104842544,-0.368197202682,1.21846967915e-07,0.0,0.0,0.0,1.21846967915e-07,0.0,0.0,0.0,1.21846967915e-07,0.8433719,1.0002783,10.7088618,9e-08,0.0,0.0,0.0,9e-08,0.0,0.0,0.0,9e-08
1532135169783269424,4626,1532135169781410736,base_link,-0.146169032617,-0.310288791218,-0.850371118341,-0.399029373656,1.0,0.0,0.0,0.0,1.0,0.0,0.0,0.0,1.0,-0.00842634961009,-0.339019209146,-0.491377234459,1.21846967915e-07,0.0,0.0,0.0,1.21846967915e-07,0.0,0.0,0.0,1.21846967915e-07,0.9022118,0.784532,12.7290317,9e-08,0.0,0.0,0.0,9e-08,0.0,0.0,0.0,9e-08
1532135170084944336,4627,1532135170084381392,base_link,-0.174918616553,-0.302984072906,-0.808460690973,-0.47328156556,1.0,0.0,0.0,0.0,1.0,0.0,0.0,0.0,1.0,0.144560202956,-0.383984208107,-0.424104809761,1.21846967915e-07,0.0,0.0,0.0,1.21846967915e-07,0.0,0.0,0.0,1.21846967915e-07,0.7453054,0.392266,12.6898051,9e-08,0.0,0.0,0.0,9e-08,0.0,0.0,0.0,9e-08
1532135170515100368,4628,1532135170514852912,base_link,-0.235092674101,-0.275144663229,-0.747498574814,-0.557021300788,1.0,0.0,0.0,0.0,1.0,0.0,0.0,0.0,1.0,-0.15624012053,-0.456659942865,-0.298020541668,1.21846967915e-07,0.0,0.0,0.0,1.21846967915e-07,0.0,0.0,0.0,1.21846967915e-07,0.81395195,0.8041453,13.17033095,9e-08,0.0,0.0,0.0,9e-08,0.0,0.0,0.0,9e-08
1532135170988200752,4629,1532135170987957936,base_link,-0.254172884975,-0.193926349715,-0.692441883763,-0.646771175178,1.0,0.0,0.0,0.0,1.0,0.0,0.0,0.0,1.0,-0.240276560187,-0.353593975306,-0.271510571241,1.21846967915e-07,0.0,0.0,0.0,1.21846967915e-07,0.0,0.0,0.0,1.21846967915e-07,1.02969825,0.5491724,14.8276548,9e-08,0.0,0.0,0.0,9e-08,0.0,0.0,0.0,9e-08
1532135171349315248,4630,1532135171349063888,base_link,-0.216025646394,-0.0995203219094,-0.659587013255,-0.713003224097,1.0,0.0,0.0,0.0,1.0,0.0,0.0,0.0,1.0,-0.59185987711,-0.208082169294,-0.297462850809,1.21846967915e-07,0.0,0.0,0.0,1.21846967915e-07,0.0,0.0,0.0,1.21846967915e-07,0.89240515,0.3530394,12.7682583,9e-08,0.0,0.0,0.0,9e-08,0.0,0.0,0.0,9e-08
1532135171754978704,4631,1532135171754407440,base_link,-0.138334014725,-0.000520172408898,-0.622037423337,-0.7706704054,1.0,0.0,0.0,0.0,1.0,0.0,0.0,0.0,1.0,-0.588066458702,-0.0964592322707,-0.197999075055,1.21846967915e-07,0.0,0.0,0.0,1.21846967915e-07,0.0,0.0,0.0,1.21846967915e-07,0.87279185,0.28439285,11.73856005,9e-08,0.0,0.0,0.0,9e-08,0.0,0.0,0.0,9e-08
1532135172023714512,4632,1532135172023346544,base_link,-0.0947839230025,0.0447749184563,-0.604569487426,-0.789624562365,1.0,0.0,0.0,0.0,1.0,0.0,0.0,0.0,1.0,-0.374612122774,-0.0440201573074,-0.0993485301733,1.21846967915e-07,0.0,0.0,0.0,1.21846967915e-07,0.0,0.0,0.0,1.21846967915e-07,0.83356525,0.0980665,10.89518815,9e-08,0.0,0.0,0.0,9e-08,0.0,0.0,0.0,9e-08
1532135172472338640,4633,1532135172470275760,base_link,-0.0269977141133,0.106327280517,-0.603942737009,-0.789442083541,1.0,0.0,0.0,0.0,1.0,0.0,0.0,0.0,1.0,-0.410697311163,-0.00518135773018,0.111535437405,1.21846967915e-07,0.0,0.0,0.0,1.21846967915e-07,0.0,0.0,0.0,1.21846967915e-07,0.95124505,-0.0196133,9.63993695,9e-08,0.0,0.0,0.0,9e-08,0.0,0.0,0.0,9e-08
1532135172817245936,4634,1532135172816065808,base_link,0.019800392672,0.133600811742,-0.614212899545,-0.777496804871,1.0,0.0,0.0,0.0,1.0,0.0,0.0,0.0,1.0,-0.208338052034,0.0509869717062,0.142451539636,1.21846967915e-07,0.0,0.0,0.0,1.21846967915e-07,0.0,0.0,0.0,1.21846967915e-07,0.9414384,-0.08825985,7.9433865,9e-08,0.0,0.0,0.0,9e-08,0.0,0.0,0.0,9e-08
1532135173219212944,4635,1532135173214951824,base_link,0.05812559679,0.149774084915,-0.640095885713,-0.751309786692,1.0,0.0,0.0,0.0,1.0,0.0,0.0,0.0,1.0,-0.181882992387,0.0110053699464,0.273179411888,1.21846967915e-07,0.0,0.0,0.0,1.21846967915e-07,0.0,0.0,0.0,1.21846967915e-07,1.5298374,-0.20593965,8.6690786,9e-08,0.0,0.0,0.0,9e-08,0.0,0.0,0.0,9e-08
1532135173636783248,4636,1532135173636298000,base_link,0.0748151712108,0.144941729882,-0.691689678258,-0.703533918221,1.0,0.0,0.0,0.0,1.0,0.0,0.0,0.0,1.0,0.114759407938,0.0258393790573,0.315026193857,1.21846967915e-07,0.0,0.0,0.0,1.21846967915e-07,0.0,0.0,0.0,1.21846967915e-07,1.46119085,0.392266,8.629852,9e-08,0.0,0.0,0.0,9e-08,0.0,0.0,0.0,9e-08
1532135174136078448,4637,1532135174135684688,base_link,0.0645119895405,0.11084519229,-0.730336705142,-0.670939523112,1.0,0.0,0.0,0.0,1.0,0.0,0.0,0.0,1.0,0.285809636116,0.0512447245419,0.127736777067,1.21846967915e-07,0.0,0.0,0.0,1.21846967915e-07,0.0,0.0,0.0,1.21846967915e-07,1.55925735,0.14709975,8.6102387,9e-08,0.0,0.0,0.0,9e-08,0.0,0.0,0.0,9e-08
1532135174470075024,4638,1532135174469751984,base_link,0.0342971163433,0.0710688948828,-0.751990264311,-0.654433772335,1.0,0.0,0.0,0.0,1.0,0.0,0.0,0.0,1.0,0.334908813238,0.00711969751865,0.164448574185,1.21846967915e-07,0.0,0.0,0.0,1.21846967915e-07,0.0,0.0,0.0,1.21846967915e-07,1.372931,0.3138128,8.9044382,9e-08,0.0,0.0,0.0,9e-08,0.0,0.0,0.0,9e-08
1532135174936299792,4639,1532135174932377648,base_link,-0.0256522974866,0.00780991858854,-0.777941112908,-0.627764756619,1.0,0.0,0.0,0.0,1.0,0.0,0.0,0.0,1.0,0.301881939173,-0.03648166731,0.132820695639,1.21846967915e-07,0.0,0.0,0.0,1.21846967915e-07,0.0,0.0,0.0,1.21846967915e-07,1.8240369,0.28439285,11.0030613,9e-08,0.0,0.0,0.0,9e-08,0.0,0.0,0.0,9e-08
1532135175332246704,4640,1532135175331891504,base_link,-0.0551117962339,-0.0193536719124,-0.787294182199,-0.613804525867,1.0,0.0,0.0,0.0,1.0,0.0,0.0,0.0,1.0,0.195515230298,-0.00359302200377,-0.0235691070557,1.21846967915e-07,0.0,0.0,0.0,1.21846967915e-07,0.0,0.0,0.0,1.21846967915e-07,1.3533177,0.6276256,10.1204628,9e-08,0.0,0.0,0.0,9e-08,0.0,0.0,0.0,9e-08
1532135175732137968,4641,1532135175731683216,base_link,-0.0874925840537,-0.0551249025111,-0.774376652723,-0.62421718382,1.0,0.0,0.0,0.0,1.0,0.0,0.0,0.0,1.0,0.163084894419,-0.0116795003414,-0.157509684563,1.21846967915e-07,0.0,0.0,0.0,1.21846967915e-07,0.0,0.0,0.0,1.21846967915e-07,1.04931155,0.67665885,9.5516771,9e-08,0.0,0.0,0.0,9e-08,0.0,0.0,0.0,9e-08
1532135176218250736,4642,1532135176217997136,base_link,-0.104847039342,-0.0691173142161,-0.746066913886,-0.653922055922,1.0,0.0,0.0,0.0,1.0,0.0,0.0,0.0,1.0,0.0321279317141,-0.064113073051,-0.150524944067,1.21846967915e-07,0.0,0.0,0.0,1.21846967915e-07,0.0,0.0,0.0,1.21846967915e-07,1.1964113,0.50013915,10.4735022,9e-08,0.0,0.0,0.0,9e-08,0.0,0.0,0.0,9e-08
1532135176619384752,4643,1532135176618969168,base_link,-0.107358962292,-0.0563927537649,-0.728184484857,-0.674567466272,1.0,0.0,0.0,0.0,1.0,0.0,0.0,0.0,1.0,-0.0880476608872,-0.0473149195313,-0.130282357335,1.21846967915e-07,0.0,0.0,0.0,1.21846967915e-07,0.0,0.0,0.0,1.21846967915e-07,1.24544455,0.4511059,10.2381426,9e-08,0.0,0.0,0.0,9e-08,0.0,0.0,0.0,9e-08
1532135177130199472,4644,1532135177125038128,base_link,-0.108767512692,-0.0430870141928,-0.703378282823,-0.701122049749,1.0,0.0,0.0,0.0,1.0,0.0,0.0,0.0,1.0,-0.126989081502,-0.0572759285569,-0.113186255097,1.21846967915e-07,0.0,0.0,0.0,1.21846967915e-07,0.0,0.0,0.0,1.21846967915e-07,1.18660465,0.36284605,10.0223963,9e-08,0.0,0.0,0.0,9e-08,0.0,0.0,0.0,9e-08
1532135177431567888,4645,1532135177431198128,base_link,-0.0947977249772,-0.0187993425552,-0.693251453773,-0.714186528787,1.0,0.0,0.0,0.0,1.0,0.0,0.0,0.0,1.0,-0.17213344574,-0.0568172447383,-0.0870541632175,1.21846967915e-07,0.0,0.0,0.0,1.21846967915e-07,0.0,0.0,0.0,1.21846967915e-07,1.18660465,0.3530394,10.2969825,9e-08,0.0,0.0,0.0,9e-08,0.0,0.0,0.0,9e-08
1532135177757331568,4646,1532135177757029200,base_link,-0.0842615410401,0.00465339718839,-0.685988839432,-0.722701633297,1.0,0.0,0.0,0.0,1.0,0.0,0.0,0.0,1.0,-0.1268671453,-0.0643492117524,-0.0174953266978,1.21846967915e-07,0.0,0.0,0.0,1.21846967915e-07,0.0,0.0,0.0,1.21846967915e-07,1.3337044,0.42168595,11.11093445,9e-08,0.0,0.0,0.0,9e-08,0.0,0.0,0.0,9e-08
1532135178268550928,4647,1532135178268040304,base_link,-0.0494787046774,0.0397921701457,-0.674903473701,-0.735169192884,1.0,0.0,0.0,0.0,1.0,0.0,0.0,0.0,1.0,-0.21030639112,0.0555021315813,-0.130609452724,1.21846967915e-07,0.0,0.0,0.0,1.21846967915e-07,0.0,0.0,0.0,1.21846967915e-07,1.04931155,0.67665885,9.63993695,9e-08,0.0,0.0,0.0,9e-08,0.0,0.0,0.0,9e-08
1532135178720422320,4648,1532135178720081232,base_link,-0.0173357962195,0.0536459421234,-0.658948231704,-0.750072537157,1.0,0.0,0.0,0.0,1.0,0.0,0.0,0.0,1.0,-0.0592010319233,0.0309974066913,-0.032740984112,1.21846967915e-07,0.0,0.0,0.0,1.21846967915e-07,0.0,0.0,0.0,1.21846967915e-07,1.2160246,-0.00980665,9.4732239,9e-08,0.0,0.0,0.0,9e-08,0.0,0.0,0.0,9e-08
1532135179155666480,4649,1532135179155359536,base_link,-0.00614400859929,0.0583256469877,-0.669516457918,-0.740478279654,1.0,0.0,0.0,0.0,1.0,0.0,0.0,0.0,1.0,-0.0258410014212,0.0149093642831,0.114928014576,1.21846967915e-07,0.0,0.0,0.0,1.21846967915e-07,0.0,0.0,0.0,1.21846967915e-07,1.30428445,0.12748645,9.30651085,9e-08,0.0,0.0,0.0,9e-08,0.0,0.0,0.0,9e-08
1532135179634408976,4650,1532135179634105936,base_link,0.000125263117336,0.0646688892092,-0.698076980422,-0.713096380921,1.0,0.0,0.0,0.0,1.0,0.0,0.0,0.0,1.0,-0.0187142975628,-0.00721186306328,0.18517549336,1.21846967915e-07,0.0,0.0,0.0,1.21846967915e-07,0.0,0.0,0.0,1.21846967915e-07,1.1179581,0.2745862,9.5909037,9e-08,0.0,0.0,0.0,9e-08,0.0,0.0,0.0,9e-08
1532135179948678608,4651,1532135179946519408,base_link,0.00588662908811,0.0685775975044,-0.71602806628,-0.694669899318,1.0,0.0,0.0,0.0,1.0,0.0,0.0,0.0,1.0,-0.0514736138284,0.01241212897,0.119297675788,1.21846967915e-07,0.0,0.0,0.0,1.21846967915e-07,0.0,0.0,0.0,1.21846967915e-07,1.2552512,0.48052585,9.62032365,9e-08,0.0,0.0,0.0,9e-08,0.0,0.0,0.0,9e-08
1532135180267759184,4652,1532135180266755568,base_link,0.00712546799904,0.0655687792564,-0.723494482195,-0.687172247057,1.0,0.0,0.0,0.0,1.0,0.0,0.0,0.0,1.0,0.1735804528,0.0248964559287,0.0258575715125,1.21846967915e-07,0.0,0.0,0.0,1.21846967915e-07,0.0,0.0,0.0,1.21846967915e-07,1.16699135,0.4118793,9.50264385,9e-08,0.0,0.0,0.0,9e-08,0.0,0.0,0.0,9e-08
1532135180679372784,4653,1532135180678860400,base_link,-0.0394587219322,0.00720731460411,-0.728842890309,-0.683505014704,1.0,0.0,0.0,0.0,1.0,0.0,0.0,0.0,1.0,0.340934514999,0.0296021774411,0.00405334495008,1.21846967915e-07,0.0,0.0,0.0,1.21846967915e-07,0.0,0.0,0.0,1.21846967915e-07,1.1179581,0.4314926,8.6102387,9e-08,0.0,0.0,0.0,9e-08,0.0,0.0,0.0,9e-08
1532135181038934224,4654,1532135181038679600,base_link,-0.0760258230537,-0.0370578897723,-0.724456301208,-0.684112457623,1.0,0.0,0.0,0.0,1.0,0.0,0.0,0.0,1.0,0.360612034798,0.00442335335538,-0.0857324898243,1.21846967915e-07,0.0,0.0,0.0,1.21846967915e-07,0.0,0.0,0.0,1.21846967915e-07,1.2552512,0.63743225,9.44380395,9e-08,0.0,0.0,0.0,9e-08,0.0,0.0,0.0,9e-08
1532135181470100752,4655,1532135181469785936,base_link,-0.143325450447,-0.112985786492,-0.693306409219,-0.697150091617,1.0,0.0,0.0,0.0,1.0,0.0,0.0,0.0,1.0,0.342265963554,-0.0214024484158,-0.185659632087,1.21846967915e-07,0.0,0.0,0.0,1.21846967915e-07,0.0,0.0,0.0,1.21846967915e-07,1.36312435,0.63743225,9.2574776,9e-08,0.0,0.0,0.0,9e-08,0.0,0.0,0.0,9e-08
1532135181730794512,4656,1532135181730365136,base_link,-0.173705442341,-0.141075446161,-0.667650617861,-0.710047033837,1.0,0.0,0.0,0.0,1.0,0.0,0.0,0.0,1.0,0.260168254375,-0.0836140140891,-0.230357557535,1.21846967915e-07,0.0,0.0,0.0,1.21846967915e-07,0.0,0.0,0.0,1.21846967915e-07,1.34351105,0.57859235,9.95374975,9e-08,0.0,0.0,0.0,9e-08,0.0,0.0,0.0,9e-08
1532135182125210864,4657,1532135182124503184,base_link,-0.194286338342,-0.151554939049,-0.629722850507,-0.736704181292,1.0,0.0,0.0,0.0,1.0,0.0,0.0,0.0,1.0,-0.0186973810196,-0.073685452342,-0.281957954168,1.21846967915e-07,0.0,0.0,0.0,1.21846967915e-07,0.0,0.0,0.0,1.21846967915e-07,1.176798,0.67665885,8.38468575,9e-08,0.0,0.0,0.0,9e-08,0.0,0.0,0.0,9e-08
1532135182454372016,4658,1532135182453902512,base_link,-0.21908302522,-0.161642291784,-0.575252006757,-0.771336195371,1.0,0.0,0.0,0.0,1.0,0.0,0.0,0.0,1.0,0.210553333163,-0.166108340025,-0.345806181431,1.21846967915e-07,0.0,0.0,0.0,1.21846967915e-07,0.0,0.0,0.0,1.21846967915e-07,1.0002783,0.5491724,9.46341725,9e-08,0.0,0.0,0.0,9e-08,0.0,0.0,0.0,9e-08
1532135182822940816,4659,1532135182822689904,base_link,-0.275830404254,-0.164771591702,-0.506628892651,-0.800059420161,1.0,0.0,0.0,0.0,1.0,0.0,0.0,0.0,1.0,0.15998890996,-0.318373799324,-0.318352758884,1.21846967915e-07,0.0,0.0,0.0,1.21846967915e-07,0.0,0.0,0.0,1.21846967915e-07,1.44157755,0.50013915,11.7483667,9e-08,0.0,0.0,0.0,9e-08,0.0,0.0,0.0,9e-08
1532135183250137424,4660,1532135183249869328,base_link,-0.319843180615,-0.128252404599,-0.432656257293,-0.833102768903,1.0,0.0,0.0,0.0,1.0,0.0,0.0,0.0,1.0,-0.00604926142842,-0.352700531483,-0.290944337845,1.21846967915e-07,0.0,0.0,0.0,1.21846967915e-07,0.0,0.0,0.0,1.21846967915e-07,1.46119085,1.0787315,12.0425662,9e-08,0.0,0.0,0.0,9e-08,0.0,0.0,0.0,9e-08
1532135183637688016,4661,1532135183636569104,base_link,-0.344206652946,-0.0957061763161,-0.3513390582,-0.865403359172,1.0,0.0,0.0,0.0,1.0,0.0,0.0,0.0,1.0,0.060950525105,-0.365845829248,-0.395037829876,1.21846967915e-07,0.0,0.0,0.0,1.21846967915e-07,0.0,0.0,0.0,1.21846967915e-07,1.6671305,0.8433719,11.9248864,9e-08,0.0,0.0,0.0,9e-08,0.0,0.0,0.0,9e-08
1532135184064959216,4662,1532135184060329936,base_link,-0.357739897339,-0.04879577764,-0.25304884551,-0.897556360193,1.0,0.0,0.0,0.0,1.0,0.0,0.0,0.0,1.0,-0.185057446361,-0.353739380836,-0.347852736712,1.21846967915e-07,0.0,0.0,0.0,1.21846967915e-07,0.0,0.0,0.0,1.21846967915e-07,1.89268345,0.6864655,12.79767825,9e-08,0.0,0.0,0.0,9e-08,0.0,0.0,0.0,9e-08
1532135184443887792,4663,1532135184443701616,base_link,-0.321919873706,0.00685371461591,-0.164249249737,-0.932385545507,1.0,0.0,0.0,0.0,1.0,0.0,0.0,0.0,1.0,-0.207093581557,-0.354830920696,-0.34990182519,1.21846967915e-07,0.0,0.0,0.0,1.21846967915e-07,0.0,0.0,0.0,1.21846967915e-07,1.9809433,0.588399,13.60182355,9e-08,0.0,0.0,0.0,9e-08,0.0,0.0,0.0,9e-08
1532135184849311824,4664,1532135184848257136,base_link,-0.291814254473,0.058773614435,-0.0814160068895,-0.951189537871,1.0,0.0,0.0,0.0,1.0,0.0,0.0,0.0,1.0,-0.321631222963,-0.319558590651,-0.329917818308,1.21846967915e-07,0.0,0.0,0.0,1.21846967915e-07,0.0,0.0,0.0,1.21846967915e-07,1.8240369,1.38273765,14.99436785,9e-08,0.0,0.0,0.0,9e-08,0.0,0.0,0.0,9e-08
1532135185236773712,4665,1532135185235764400,base_link,-0.228329395719,0.0896667943521,-0.00129575316712,-0.969445137213,1.0,0.0,0.0,0.0,1.0,0.0,0.0,0.0,1.0,-0.479809522629,-0.231411367655,-0.277668565512,1.21846967915e-07,0.0,0.0,0.0,1.21846967915e-07,0.0,0.0,0.0,1.21846967915e-07,1.44157755,0.51975245,12.9055514,9e-08,0.0,0.0,0.0,9e-08,0.0,0.0,0.0,9e-08
1532135185603084816,4666,1532135185602841296,base_link,-0.157561002633,0.117438197224,0.0467354152271,-0.979386849639,1.0,0.0,0.0,0.0,1.0,0.0,0.0,0.0,1.0,-0.340439110994,-0.163056954741,-0.138538002968,1.21846967915e-07,0.0,0.0,0.0,1.21846967915e-07,0.0,0.0,0.0,1.21846967915e-07,1.1571847,0.18632635,11.0815145,9e-08,0.0,0.0,0.0,9e-08,0.0,0.0,0.0,9e-08
1532135185921824816,4667,1532135185916779056,base_link,-0.0808700042117,0.130545848666,0.0737193728299,-0.985384837454,1.0,0.0,0.0,0.0,1.0,0.0,0.0,0.0,1.0,-0.56823527813,-0.061947517097,-0.0473865792155,1.21846967915e-07,0.0,0.0,0.0,1.21846967915e-07,0.0,0.0,0.0,1.21846967915e-07,1.14737805,0.50013915,11.71894675,9e-08,0.0,0.0,0.0,9e-08,0.0,0.0,0.0,9e-08
1532135186375277968,4668,1532135186374946288,base_link,0.0275971382336,0.120705507661,0.0924816103341,-0.987985693283,1.0,0.0,0.0,0.0,1.0,0.0,0.0,0.0,1.0,-0.382631450891,0.0392223857343,0.0368222594261,1.21846967915e-07,0.0,0.0,0.0,1.21846967915e-07,0.0,0.0,0.0,1.21846967915e-07,1.1571847,0.28439285,9.8262633,9e-08,0.0,0.0,0.0,9e-08,0.0,0.0,0.0,9e-08
1532135186775035184,4669,1532135186774492080,base_link,0.0732941829893,0.0999780751173,0.0908961914334,-0.988114482041,1.0,0.0,0.0,0.0,1.0,0.0,0.0,0.0,1.0,-0.214406773448,0.114488050342,0.0902210175991,1.21846967915e-07,0.0,0.0,0.0,1.21846967915e-07,0.0,0.0,0.0,1.21846967915e-07,1.1179581,0.1765197,8.3552658,9e-08,0.0,0.0,0.0,9e-08,0.0,0.0,0.0,9e-08
1532135187075845776,4670,1532135187075354160,base_link,0.106533334714,0.0810008983906,0.0750654190952,-0.988157217203,1.0,0.0,0.0,0.0,1.0,0.0,0.0,0.0,1.0,-0.171994194388,0.0841607227921,0.166837781668,1.21846967915e-07,0.0,0.0,0.0,1.21846967915e-07,0.0,0.0,0.0,1.21846967915e-07,1.55925735,-0.08825985,7.7668668,9e-08,0.0,0.0,0.0,9e-08,0.0,0.0,0.0,9e-08
1532135187540998000,4671,1532135187540736528,base_link,0.0955239217019,0.0530075505065,0.0281673085312,-0.99361561114,1.0,0.0,0.0,0.0,1.0,0.0,0.0,0.0,1.0,0.149862959981,0.116663686931,0.253246635199,1.21846967915e-07,0.0,0.0,0.0,1.21846967915e-07,0.0,0.0,0.0,1.21846967915e-07,1.83384355,0.00980665,7.77667345,9e-08,0.0,0.0,0.0,9e-08,0.0,0.0,0.0,9e-08
1532135187968857072,4672,1532135187968525072,base_link,0.0702684317315,0.0296860926902,-0.00950792047576,-0.997040963477,1.0,0.0,0.0,0.0,1.0,0.0,0.0,0.0,1.0,0.318931370974,0.0679194182158,0.0828672200441,1.21846967915e-07,0.0,0.0,0.0,1.21846967915e-07,0.0,0.0,0.0,1.21846967915e-07,1.77500365,0.3726527,7.73744685,9e-08,0.0,0.0,0.0,9e-08,0.0,0.0,0.0,9e-08
1532135188332905776,4673,1532135188332076112,base_link,0.0135609778064,0.0174392728339,-0.026115805883,-0.999414796932,1.0,0.0,0.0,0.0,1.0,0.0,0.0,0.0,1.0,0.206431895494,0.0481150746346,0.0532362349331,1.21846967915e-07,0.0,0.0,0.0,1.21846967915e-07,0.0,0.0,0.0,1.21846967915e-07,1.57887065,0.40207265,9.2770909,9e-08,0.0,0.0,0.0,9e-08,0.0,0.0,0.0,9e-08
1532135188795751376,4674,1532135188795229584,base_link,-0.0348331696073,0.0132388279996,-0.0313683582376,-0.998813000431,1.0,0.0,0.0,0.0,1.0,0.0,0.0,0.0,1.0,0.353078991175,-0.00566269177943,-0.0539128705859,1.21846967915e-07,0.0,0.0,0.0,1.21846967915e-07,0.0,0.0,0.0,1.21846967915e-07,1.4513842,0.5687857,10.2773692,9e-08,0.0,0.0,0.0,9e-08,0.0,0.0,0.0,9e-08
1532135189230142160,4675,1532135189228155376,base_link,-0.0763486570082,0.016037335932,-0.0115598773795,-0.99688517677,1.0,0.0,0.0,0.0,1.0,0.0,0.0,0.0,1.0,0.0615743994713,-0.0694594755769,-0.102643474936,1.21846967915e-07,0.0,0.0,0.0,1.21846967915e-07,0.0,0.0,0.0,1.21846967915e-07,1.16699135,0.53936575,10.73828175,9e-08,0.0,0.0,0.0,9e-08,0.0,0.0,0.0,9e-08
1532135189566315728,4676,1532135189565717168,base_link,-0.0964571522934,0.0263870232757,0.0018591096624,-0.994985570994,1.0,0.0,0.0,0.0,1.0,0.0,0.0,0.0,1.0,0.215609446168,-0.102702923119,-0.0492260381579,1.21846967915e-07,0.0,0.0,0.0,1.21846967915e-07,0.0,0.0,0.0,1.21846967915e-07,0.95124505,0.20593965,9.6889702,9e-08,0.0,0.0,0.0,9e-08,0.0,0.0,0.0,9e-08
1532135189989921712,4677,1532135189988887184,base_link,-0.116075106056,0.0393382175787,0.0212557759173,-0.992233473726,1.0,0.0,0.0,0.0,1.0,0.0,0.0,0.0,1.0,-0.150130465627,-0.0727310031652,-0.137505143881,1.21846967915e-07,0.0,0.0,0.0,1.21846967915e-07,0.0,0.0,0.0,1.21846967915e-07,1.10815145,0.5491724,10.26756255,9e-08,0.0,0.0,0.0,9e-08,0.0,0.0,0.0,9e-08
1532135190292825200,4678,1532135190292506832,base_link,-0.0891383562116,0.0434583496518,0.0389521165753,-0.994308029693,1.0,0.0,0.0,0.0,1.0,0.0,0.0,0.0,1.0,-0.221965074539,-0.0218775663525,-0.0834261849523,1.21846967915e-07,0.0,0.0,0.0,1.21846967915e-07,0.0,0.0,0.0,1.21846967915e-07,1.2552512,0.3334261,11.0619012,9e-08,0.0,0.0,0.0,9e-08,0.0,0.0,0.0,9e-08
1532135190797116176,4679,1532135190796815376,base_link,-0.0403317562772,0.0439224771045,0.0473937988599,-0.997094776473,1.0,0.0,0.0,0.0,1.0,0.0,0.0,0.0,1.0,-0.15919277072,-0.00862587336451,0.0166765544564,1.21846967915e-07,0.0,0.0,0.0,1.21846967915e-07,0.0,0.0,0.0,1.21846967915e-07,1.06892485,0.3530394,10.16949605,9e-08,0.0,0.0,0.0,9e-08,0.0,0.0,0.0,9e-08
1532135191210448624,4680,1532135191210065616,base_link,-0.0191464687236,0.0352886931463,0.0400342742221,-0.998391395075,1.0,0.0,0.0,0.0,1.0,0.0,0.0,0.0,1.0,-0.140893176198,0.072782792151,0.0392012894154,1.21846967915e-07,0.0,0.0,0.0,1.21846967915e-07,0.0,0.0,0.0,1.21846967915e-07,1.08853815,0.5295591,9.24767095,9e-08,0.0,0.0,0.0,9e-08,0.0,0.0,0.0,9e-08
1532135191531317680,4681,1532135191530999152,base_link,-0.0033822535167,0.0190466386106,0.0436574526574,-0.998859255724,1.0,0.0,0.0,0.0,1.0,0.0,0.0,0.0,1.0,0.00960207358003,0.102000109851,-0.0572361759841,1.21846967915e-07,0.0,0.0,0.0,1.21846967915e-07,0.0,0.0,0.0,1.21846967915e-07,1.1375714,0.4707192,7.87473995,9e-08,0.0,0.0,0.0,9e-08,0.0,0.0,0.0,9e-08
1532135191950148336,4682,1532135191949836880,base_link,-0.0156103190459,0.00106772057579,0.0625079886767,-0.997921805185,1.0,0.0,0.0,0.0,1.0,0.0,0.0,0.0,1.0,0.0878944694996,0.0700948163867,-0.0775303989649,1.21846967915e-07,0.0,0.0,0.0,1.21846967915e-07,0.0,0.0,0.0,1.21846967915e-07,0.980665,0.24516625,8.32584585,9e-08,0.0,0.0,0.0,9e-08,0.0,0.0,0.0,9e-08
1532135192371096688,4683,1532135192370799248,base_link,-0.0111667430867,-0.00675967106707,0.0669134722023,-0.997673392415,1.0,0.0,0.0,0.0,1.0,0.0,0.0,0.0,1.0,-0.0872379466891,-0.00150992663112,0.0129426633939,1.21846967915e-07,0.0,0.0,0.0,1.21846967915e-07,0.0,0.0,0.0,1.21846967915e-07,0.99047165,-0.00980665,7.9433865,9e-08,0.0,0.0,0.0,9e-08,0.0,0.0,0.0,9e-08
1532135192751112432,4684,1532135192750774608,base_link,-0.00318082519977,-0.00431334667392,0.0582025960794,-0.998290406245,1.0,0.0,0.0,0.0,1.0,0.0,0.0,0.0,1.0,-0.138615190983,-0.0117258727551,-0.00191253027879,1.21846967915e-07,0.0,0.0,0.0,1.21846967915e-07,0.0,0.0,0.0,1.21846967915e-07,1.2944778,0.7256921,9.99297635,9e-08,0.0,0.0,0.0,9e-08,0.0,0.0,0.0,9e-08
1532135193246615856,4685,1532135193246284016,base_link,-0.00976093654751,0.00792978184578,0.0792023087951,-0.996779231806,1.0,0.0,0.0,0.0,1.0,0.0,0.0,0.0,1.0,0.202560856938,-0.0943253934383,-0.055937808007,1.21846967915e-07,0.0,0.0,0.0,1.21846967915e-07,0.0,0.0,0.0,1.21846967915e-07,0.9414384,0.1176798,10.9442214,9e-08,0.0,0.0,0.0,9e-08,0.0,0.0,0.0,9e-08
1532135193577849552,4686,1532135193577363632,base_link,-0.0283285656062,0.026510001827,0.0757235967391,-0.99637374969,1.0,0.0,0.0,0.0,1.0,0.0,0.0,0.0,1.0,0.0183274913579,-0.104654334486,0.0550729185343,1.21846967915e-07,0.0,0.0,0.0,1.21846967915e-07,0.0,0.0,0.0,1.21846967915e-07,0.71588545,0.2941995,11.22861425,9e-08,0.0,0.0,0.0,9e-08,0.0,0.0,0.0,9e-08
1532135193913932528,4687,1532135193913485488,base_link,-0.0086425763169,0.0403831380761,0.0700799750167,-0.996686161806,1.0,0.0,0.0,0.0,1.0,0.0,0.0,0.0,1.0,-0.155187577009,-0.0413510873914,-0.0312362350523,1.21846967915e-07,0.0,0.0,0.0,1.21846967915e-07,0.0,0.0,0.0,1.21846967915e-07,0.6668522,0.73549875,11.375714,9e-08,0.0,0.0,0.0,9e-08,0.0,0.0,0.0,9e-08
1532135194386776944,4688,1532135194386189968,base_link,-0.0255761253337,0.0468155726256,0.0845912459208,-0.994986675834,1.0,0.0,0.0,0.0,1.0,0.0,0.0,0.0,1.0,0.0708295628428,-0.010604467243,-0.0734953060746,1.21846967915e-07,0.0,0.0,0.0,1.21846967915e-07,0.0,0.0,0.0,1.21846967915e-07,0.46091255,0.2745862,8.4729456,9e-08,0.0,0.0,0.0,9e-08,0.0,0.0,0.0,9e-08
1532135194873611920,4689,1532135194873177968,base_link,-0.0567674887255,0.0535705192166,0.0946932002822,-0.992441862033,1.0,0.0,0.0,0.0,1.0,0.0,0.0,0.0,1.0,-0.0759987235069,0.0166764073074,-0.0263468902558,1.21846967915e-07,0.0,0.0,0.0,1.21846967915e-07,0.0,0.0,0.0,1.21846967915e-07,0.67665885,0.26477955,8.95347145,9e-08,0.0,0.0,0.0,9e-08,0.0,0.0,0.0,9e-08
1532135195271236880,4690,1532135195270509328,base_link,-0.0326060888872,0.0459631703325,0.098998043864,-0.993490622629,1.0,0.0,0.0,0.0,1.0,0.0,0.0,0.0,1.0,-0.136475965381,0.0265696961433,-0.00843125209212,1.21846967915e-07,0.0,0.0,0.0,1.21846967915e-07,0.0,0.0,0.0,1.21846967915e-07,1.0198916,0.2157463,9.4928372,9e-08,0.0,0.0,0.0,9e-08,0.0,0.0,0.0,9e-08
1532135195755008656,4691,1532135195754652624,base_link,0.0062889283073,0.0418075665468,0.0976624056261,-0.994321191209,1.0,0.0,0.0,0.0,1.0,0.0,0.0,0.0,1.0,-0.127612352371,0.019838636741,0.00236969348043,1.21846967915e-07,0.0,0.0,0.0,1.21846967915e-07,0.0,0.0,0.0,1.21846967915e-07,1.0591182,0.16671305,9.9047165,9e-08,0.0,0.0,0.0,9e-08,0.0,0.0,0.0,9e-08
1532135196142061584,4692,1532135196141670160,base_link,0.0182037258587,0.0327627783128,0.0918682501806,-0.995065550268,1.0,0.0,0.0,0.0,1.0,0.0,0.0,0.0,1.0,-0.0605987198651,0.0698674172163,0.0441576652229,1.21846967915e-07,0.0,0.0,0.0,1.21846967915e-07,0.0,0.0,0.0,1.21846967915e-07,0.4707192,0.06864655,9.7674234,9e-08,0.0,0.0,0.0,9e-08,0.0,0.0,0.0,9e-08
1532135196565869584,4693,1532135196564809904,base_link,0.0086628513166,0.00676692977371,0.0773255893642,-0.996945292831,1.0,0.0,0.0,0.0,1.0,0.0,0.0,0.0,1.0,-0.0237884111702,0.179522961378,0.0689292699099,1.21846967915e-07,0.0,0.0,0.0,1.21846967915e-07,0.0,0.0,0.0,1.21846967915e-07,-0.1372931,-0.38245935,7.50208725,9e-08,0.0,0.0,0.0,9e-08,0.0,0.0,0.0,9e-08
1532135197045549520,4694,1532135197045224336,base_link,0.00270157757496,-0.0488692716462,0.0727831665102,-0.996146127052,1.0,0.0,0.0,0.0,1.0,0.0,0.0,0.0,1.0,-0.0403721854091,0.255130648613,-0.0681228861213,1.21846967915e-07,0.0,0.0,0.0,1.21846967915e-07,0.0,0.0,0.0,1.21846967915e-07,-0.4707192,-0.0980665,6.472389,9e-08,0.0,0.0,0.0,9e-08,0.0,0.0,0.0,9e-08
1532135197471406704,4695,1532135197468909680,base_link,-0.00949589507657,-0.0973132386181,0.0994167804171,-0.990230410227,1.0,0.0,0.0,0.0,1.0,0.0,0.0,0.0,1.0,0.0674748718739,0.18553969264,-0.100603669882,1.21846967915e-07,0.0,0.0,0.0,1.21846967915e-07,0.0,0.0,0.0,1.21846967915e-07,-0.3334261,0.73549875,7.2176944,9e-08,0.0,0.0,0.0,9e-08,0.0,0.0,0.0,9e-08
1532135197884934928,4696,1532135197876766096,base_link,-0.0438848608113,-0.122074796088,0.108154316649,-0.985634063404,1.0,0.0,0.0,0.0,1.0,0.0,0.0,0.0,1.0,0.271500557661,0.122308835387,0.0338842757046,1.21846967915e-07,0.0,0.0,0.0,1.21846967915e-07,0.0,0.0,0.0,1.21846967915e-07,-0.5491724,-0.6276256,8.3356525,9e-08,0.0,0.0,0.0,9e-08,0.0,0.0,0.0,9e-08
1532135198217351600,4697,1532135198212863920,base_link,-0.0661402780432,-0.130930276692,0.0963902364742,-0.984475316388,1.0,0.0,0.0,0.0,1.0,0.0,0.0,0.0,1.0,-0.0866678282619,0.0616563484073,0.0891889184713,1.21846967915e-07,0.0,0.0,0.0,1.21846967915e-07,0.0,0.0,0.0,1.21846967915e-07,-0.6080123,0.53936575,7.34518085,9e-08,0.0,0.0,0.0,9e-08,0.0,0.0,0.0,9e-08
1532135198591653424,4698,1532135198591387088,base_link,-0.017276557114,-0.142340047219,0.0908908254661,-0.985484494743,1.0,0.0,0.0,0.0,1.0,0.0,0.0,0.0,1.0,-0.240225225687,0.0151624623686,-0.0997875779867,1.21846967915e-07,0.0,0.0,0.0,1.21846967915e-07,0.0,0.0,0.0,1.21846967915e-07,-0.7256921,0.16671305,10.0223963,9e-08,0.0,0.0,0.0,9e-08,0.0,0.0,0.0,9e-08
1532135199095631696,4699,1532135199095258832,base_link,0.00873122810517,-0.138328158178,0.108112210192,-0.984429193146,1.0,0.0,0.0,0.0,1.0,0.0,0.0,0.0,1.0,-0.00356138544157,-0.0188160985708,-0.0139489490539,1.21846967915e-07,0.0,0.0,0.0,1.21846967915e-07,0.0,0.0,0.0,1.21846967915e-07,-0.6472389,0.1176798,10.81673495,9e-08,0.0,0.0,0.0,9e-08,0.0,0.0,0.0,9e-08
1532135199485536560,4700,1532135199482159792,base_link,-0.00488695816997,-0.127695235922,0.0960769685496,-0.987136900575,1.0,0.0,0.0,0.0,1.0,0.0,0.0,0.0,1.0,0.107758797705,-0.0572982095182,0.110806509852,1.21846967915e-07,0.0,0.0,0.0,1.21846967915e-07,0.0,0.0,0.0,1.21846967915e-07,-0.9414384,-0.1569064,11.20900095,9e-08,0.0,0.0,0.0,9e-08,0.0,0.0,0.0,9e-08
1532135199880026064,4701,1532135199879670672,base_link,-0.0199364745377,-0.11064532363,0.0838189577185,-0.990118443253,1.0,0.0,0.0,0.0,1.0,0.0,0.0,0.0,1.0,-0.121484600008,-0.0896492674947,-0.00857612490654,1.21846967915e-07,0.0,0.0,0.0,1.21846967915e-07,0.0,0.0,0.0,1.21846967915e-07,-1.10815145,0.4118793,9.67916355,9e-08,0.0,0.0,0.0,9e-08,0.0,0.0,0.0,9e-08
1532135200172737072,4702,1532135200172343280,base_link,0.00557153610901,-0.100739235714,0.0919996043837,-0.990634461932,1.0,0.0,0.0,0.0,1.0,0.0,0.0,0.0,1.0,-0.114252485335,-0.0542160123587,-0.113934420049,1.21846967915e-07,0.0,0.0,0.0,1.21846967915e-07,0.0,0.0,0.0,1.21846967915e-07,-0.980665,0.36284605,11.15016105,9e-08,0.0,0.0,0.0,9e-08,0.0,0.0,0.0,9e-08
1532135200538399440,4703,1532135200538093296,base_link,0.00490028308457,-0.0888445852273,0.101933066795,-0.990803853846,1.0,0.0,0.0,0.0,1.0,0.0,0.0,0.0,1.0,0.0240688733757,-0.0318651720881,0.00836717616767,1.21846967915e-07,0.0,0.0,0.0,1.21846967915e-07,0.0,0.0,0.0,1.21846967915e-07,-1.176798,0.0196133,10.40485565,9e-08,0.0,0.0,0.0,9e-08,0.0,0.0,0.0,9e-08
1532135200941873296,4704,1532135200941592848,base_link,0.0181108821413,-0.0814253515812,0.091642979361,-0.992292029799,1.0,0.0,0.0,0.0,1.0,0.0,0.0,0.0,1.0,-0.0404012091458,-0.00735667999834,0.0621958598495,1.21846967915e-07,0.0,0.0,0.0,1.21846967915e-07,0.0,0.0,0.0,1.21846967915e-07,-1.24544455,-0.14709975,10.79712165,9e-08,0.0,0.0,0.0,9e-08,0.0,0.0,0.0,9e-08
1532135201420802864,4705,1532135201420501264,base_link,0.0219112699843,-0.078791325263,0.0701172016585,-0.994180768946,1.0,0.0,0.0,0.0,1.0,0.0,0.0,0.0,1.0,-0.128943800926,0.0142802409828,0.0266084391624,1.21846967915e-07,0.0,0.0,0.0,1.21846967915e-07,0.0,0.0,0.0,1.21846967915e-07,-1.14737805,0.50013915,8.7475318,9e-08,0.0,0.0,0.0,9e-08,0.0,0.0,0.0,9e-08
1532135201915250512,4706,1532135201915055280,base_link,0.000293131653349,-0.077124888092,0.0775118670468,-0.994003810947,1.0,0.0,0.0,0.0,1.0,0.0,0.0,0.0,1.0,0.162254586816,0.0158582888544,-0.035303954035,1.21846967915e-07,0.0,0.0,0.0,1.21846967915e-07,0.0,0.0,0.0,1.21846967915e-07,-1.1964113,1.10368982477e-15,9.01231135,9e-08,0.0,0.0,0.0,9e-08,0.0,0.0,0.0,9e-08
1532135202189276048,4707,1532135202188919504,base_link,-0.0280724916451,-0.0772287799054,0.0806797074467,-0.993347087162,1.0,0.0,0.0,0.0,1.0,0.0,0.0,0.0,1.0,0.0847418084741,0.0563230589032,0.00818020105362,1.21846967915e-07,0.0,0.0,0.0,1.21846967915e-07,0.0,0.0,0.0,1.21846967915e-07,-1.16699135,-0.04903325,10.22833595,9e-08,0.0,0.0,0.0,9e-08,0.0,0.0,0.0,9e-08
1532135202606370512,4708,1532135202606091856,base_link,-0.015118649987,-0.0923025747831,0.0724877139195,-0.992973913274,1.0,0.0,0.0,0.0,1.0,0.0,0.0,0.0,1.0,-0.095241561532,0.0939230844378,0.0179126821458,1.21846967915e-07,0.0,0.0,0.0,1.21846967915e-07,0.0,0.0,0.0,1.21846967915e-07,-1.1375714,0.42168595,8.01203305,9e-08,0.0,0.0,0.0,9e-08,0.0,0.0,0.0,9e-08
1532135202942156240,4709,1532135202941598704,base_link,-0.0163201098014,-0.107673441113,0.0728340683406,-0.991380493344,1.0,0.0,0.0,0.0,1.0,0.0,0.0,0.0,1.0,0.1248248294,0.0870180875063,-0.00412318389863,1.21846967915e-07,0.0,0.0,0.0,1.21846967915e-07,0.0,0.0,0.0,1.21846967915e-07,-1.3925443,0.30400615,7.060788,9e-08,0.0,0.0,0.0,9e-08,0.0,0.0,0.0,9e-08
1532135203395258096,4710,1532135203393569200,base_link,-0.0343081069826,-0.122506948935,0.0815947503151,-0.98851266961,1.0,0.0,0.0,0.0,1.0,0.0,0.0,0.0,1.0,0.0111561436206,0.0501542463899,-0.0335402041674,1.21846967915e-07,0.0,0.0,0.0,1.21846967915e-07,0.0,0.0,0.0,1.21846967915e-07,-1.46119085,-0.14709975,7.89435325,9e-08,0.0,0.0,0.0,9e-08,0.0,0.0,0.0,9e-08
1532135203867269872,4711,1532135203865970000,base_link,-0.0479114579478,-0.132868642998,0.0797670192806,-0.986756119079,1.0,0.0,0.0,0.0,1.0,0.0,0.0,0.0,1.0,0.107800126076,-0.0471143908799,0.0262272860855,1.21846967915e-07,0.0,0.0,0.0,1.21846967915e-07,0.0,0.0,0.0,1.21846967915e-07,-1.26505785,0.34323275,7.69822025,9e-08,0.0,0.0,0.0,9e-08,0.0,0.0,0.0,9e-08
