%time,field.header.seq,field.header.stamp,field.header.frame_id,field.orientation.x,field.orientation.y,field.orientation.z,field.orientation.w,field.orientation_covariance0,field.orientation_covariance1,field.orientation_covariance2,field.orientation_covariance3,field.orientation_covariance4,field.orientation_covariance5,field.orientation_covariance6,field.orientation_covariance7,field.orientation_covariance8,field.angular_velocity.x,field.angular_velocity.y,field.angular_velocity.z,field.angular_velocity_covariance0,field.angular_velocity_covariance1,field.angular_velocity_covariance2,field.angular_velocity_covariance3,field.angular_velocity_covariance4,field.angular_velocity_covariance5,field.angular_velocity_covariance6,field.angular_velocity_covariance7,field.angular_velocity_covariance8,field.linear_acceleration.x,field.linear_acceleration.y,field.linear_acceleration.z,field.linear_acceleration_covariance0,field.linear_acceleration_covariance1,field.linear_acceleration_covariance2,field.linear_acceleration_covariance3,field.linear_acceleration_covariance4,field.linear_acceleration_covariance5,field.linear_acceleration_covariance6,field.linear_acceleration_covariance7,field.linear_acceleration_covariance8
1536703358009512545,1388,1536703358009296130,base_link,0.0258918690171,0.0117734528556,-0.999473125881,-0.0156354586688,1.0,0.0,0.0,0.0,1.0,0.0,0.0,0.0,1.0,0.072866126895,0.0181859508157,-0.036570392549,1.21846967915e-07,0.0,0.0,0.0,1.21846967915e-07,0.0,0.0,0.0,1.21846967915e-07,-0.12748645,0.1569064,8.18855275,9e-08,0.0,0.0,0.0,9e-08,0.0,0.0,0.0,9e-08
1536703358393922748,1389,1536703358393537149,base_link,0.0293200086263,-0.0436678034738,-0.998461421126,-0.0175570657285,1.0,0.0,0.0,0.0,1.0,0.0,0.0,0.0,1.0,1.11373889446,0.0894435048103,-0.0532666817307,1.21846967915e-07,0.0,0.0,0.0,1.21846967915e-07,0.0,0.0,0.0,1.21846967915e-07,-0.1176798,0.02941995,9.42419065,9e-08,0.0,0.0,0.0,9e-08,0.0,0.0,0.0,9e-08
1536703358694695379,1390,1536703358694311540,base_link,0.0347966518527,-0.187909325817,-0.981307596135,-0.0226865611793,1.0,0.0,0.0,0.0,1.0,0.0,0.0,0.0,1.0,0.627949953079,0.0268062874675,0.00185644999146,1.21846967915e-07,0.0,0.0,0.0,1.21846967915e-07,0.0,0.0,0.0,1.21846967915e-07,-0.40207265,0.57859235,10.002783,9e-08,0.0,0.0,0.0,9e-08,0.0,0.0,0.0,9e-08
1536703359043520241,1391,1536703359042906195,base_link,0.0427394891975,-0.267613190932,-0.961539745714,-0.0446971309413,1.0,0.0,0.0,0.0,1.0,0.0,0.0,0.0,1.0,0.335546463728,-0.00248571066186,-0.248534157872,1.21846967915e-07,0.0,0.0,0.0,1.21846967915e-07,0.0,0.0,0.0,1.21846967915e-07,-0.7060788,0.95124505,9.09076455,9e-08,0.0,0.0,0.0,9e-08,0.0,0.0,0.0,9e-08
1536703359412947604,1392,1536703359411861399,base_link,0.0520341735168,-0.321054401081,-0.939457751657,-0.10786866637,1.0,0.0,0.0,0.0,1.0,0.0,0.0,0.0,1.0,0.252713829279,0.0766241624951,-0.344492167234,1.21846967915e-07,0.0,0.0,0.0,1.21846967915e-07,0.0,0.0,0.0,1.21846967915e-07,-0.97085835,0.6080123,8.14932615,9e-08,0.0,0.0,0.0,9e-08,0.0,0.0,0.0,9e-08
1536703359730760764,1393,1536703359730478717,base_link,0.0727730937942,-0.355486842958,-0.918434900425,-0.157513539053,1.0,0.0,0.0,0.0,1.0,0.0,0.0,0.0,1.0,0.259369909763,-0.0587392896414,-0.353878647089,1.21846967915e-07,0.0,0.0,0.0,1.21846967915e-07,0.0,0.0,0.0,1.21846967915e-07,-1.0983448,0.42168595,6.42335575,9e-08,0.0,0.0,0.0,9e-08,0.0,0.0,0.0,9e-08
1536703360241348144,1394,1536703360240832945,base_link,0.0814746438506,-0.367989243692,-0.896183777864,-0.234094927819,1.0,0.0,0.0,0.0,1.0,0.0,0.0,0.0,1.0,-0.0691593214869,-0.0889618769288,-0.248016700149,1.21846967915e-07,0.0,0.0,0.0,1.21846967915e-07,0.0,0.0,0.0,1.21846967915e-07,-1.4513842,0.4118793,8.2571993,9e-08,0.0,0.0,0.0,9e-08,0.0,0.0,0.0,9e-08
1536703360689038021,1395,1536703360688745766,base_link,0.0752870172527,-0.317535628735,-0.898241391556,-0.294389863978,1.0,0.0,0.0,0.0,1.0,0.0,0.0,0.0,1.0,-0.167414218187,-0.174678087234,-0.274886488914,1.21846967915e-07,0.0,0.0,0.0,1.21846967915e-07,0.0,0.0,0.0,1.21846967915e-07,-1.65732385,0.5687857,11.3364874,9e-08,0.0,0.0,0.0,9e-08,0.0,0.0,0.0,9e-08
1536703361002138946,1396,1536703361001249349,base_link,0.0730459571305,-0.283969197995,-0.894160378351,-0.338382919966,1.0,0.0,0.0,0.0,1.0,0.0,0.0,0.0,1.0,-0.300558328629,-0.118968874216,-0.198211193085,1.21846967915e-07,0.0,0.0,0.0,1.21846967915e-07,0.0,0.0,0.0,1.21846967915e-07,-1.71616375,0.4511059,11.69933345,9e-08,0.0,0.0,0.0,9e-08,0.0,0.0,0.0,9e-08
1536703361387467844,1397,1536703361387231205,base_link,0.0821778743854,-0.236332596557,-0.894117482833,-0.371413014929,1.0,0.0,0.0,0.0,1.0,0.0,0.0,0.0,1.0,-0.110981121659,-0.071697935462,-0.161134153605,1.21846967915e-07,0.0,0.0,0.0,1.21846967915e-07,0.0,0.0,0.0,1.21846967915e-07,-1.8240369,0.28439285,11.5914603,9e-08,0.0,0.0,0.0,9e-08,0.0,0.0,0.0,9e-08
1536703361813319670,1398,1536703361812972663,base_link,0.0889481088493,-0.197057639238,-0.891914790713,-0.397170652061,1.0,0.0,0.0,0.0,1.0,0.0,0.0,0.0,1.0,-0.138709336519,-0.163279488683,-0.0893625691533,1.21846967915e-07,0.0,0.0,0.0,1.21846967915e-07,0.0,0.0,0.0,1.21846967915e-07,-1.77500365,0.16671305,11.15016105,9e-08,0.0,0.0,0.0,9e-08,0.0,0.0,0.0,9e-08
1536703362173547986,1399,1536703362173351155,base_link,0.0809914798921,-0.144630459992,-0.896922476747,-0.409942045822,1.0,0.0,0.0,0.0,1.0,0.0,0.0,0.0,1.0,-0.245992928743,-0.140143319964,-0.0712084323168,1.21846967915e-07,0.0,0.0,0.0,1.21846967915e-07,0.0,0.0,0.0,1.21846967915e-07,-1.3533177,0.38245935,12.67999845,9e-08,0.0,0.0,0.0,9e-08,0.0,0.0,0.0,9e-08
1536703362642724084,1400,1536703362642370965,base_link,0.0533177361814,-0.0666564200918,-0.905019536461,-0.416717865339,1.0,0.0,0.0,0.0,1.0,0.0,0.0,0.0,1.0,-0.273215085268,-0.375699490309,0.0114088980481,1.21846967915e-07,0.0,0.0,0.0,1.21846967915e-07,0.0,0.0,0.0,1.21846967915e-07,-0.75511205,0.3726527,16.3182656,9e-08,0.0,0.0,0.0,9e-08,0.0,0.0,0.0,9e-08
1536703362827343584,1401,1536703362827088385,base_link,0.0301603649266,-0.0314419110032,-0.90718363414,-0.418472953209,1.0,0.0,0.0,0.0,1.0,0.0,0.0,0.0,1.0,-0.179526537657,-0.345721393824,-0.015342688188,1.21846967915e-07,0.0,0.0,0.0,1.21846967915e-07,0.0,0.0,0.0,1.21846967915e-07,-0.5687857,0.30400615,17.2989306,9e-08,0.0,0.0,0.0,9e-08,0.0,0.0,0.0,9e-08
1536703363281510312,1402,1536703363281184650,base_link,-0.0156128422712,0.00852175562477,-0.906768634272,-0.421253205019,1.0,0.0,0.0,0.0,1.0,0.0,0.0,0.0,1.0,0.159007295966,-0.231689378619,0.021331967786,1.21846967915e-07,0.0,0.0,0.0,1.21846967915e-07,0.0,0.0,0.0,1.21846967915e-07,-0.26477955,-0.02941995,14.97475455,9e-08,0.0,0.0,0.0,9e-08,0.0,0.0,0.0,9e-08
1536703363638738126,1403,1536703363638406287,base_link,-0.0554670067128,0.00843723191433,-0.911744470259,-0.406908153318,1.0,0.0,0.0,0.0,1.0,0.0,0.0,0.0,1.0,0.193595305085,-0.112435363233,0.0665168687701,1.21846967915e-07,0.0,0.0,0.0,1.21846967915e-07,0.0,0.0,0.0,1.21846967915e-07,-0.26477955,0.3726527,13.60182355,9e-08,0.0,0.0,0.0,9e-08,0.0,0.0,0.0,9e-08
1536703364203928639,1404,1536703364202539652,base_link,-0.113019108622,-0.0690849224575,-0.901406467763,-0.412213942571,1.0,0.0,0.0,0.0,1.0,0.0,0.0,0.0,1.0,0.437558054924,-0.0553654879332,-0.0791805163026,1.21846967915e-07,0.0,0.0,0.0,1.21846967915e-07,0.0,0.0,0.0,1.21846967915e-07,-0.40207265,0.4118793,10.4735022,9e-08,0.0,0.0,0.0,9e-08,0.0,0.0,0.0,9e-08
1536703364552765798,1405,1536703364551554603,base_link,-0.126039056731,-0.11983491973,-0.889427268924,-0.422697151026,1.0,0.0,0.0,0.0,1.0,0.0,0.0,0.0,1.0,0.415995419025,0.069013081491,-0.139330387115,1.21846967915e-07,0.0,0.0,0.0,1.21846967915e-07,0.0,0.0,0.0,1.21846967915e-07,-0.38245935,0.2745862,8.83579165,9e-08,0.0,0.0,0.0,9e-08,0.0,0.0,0.0,9e-08
1536703365041248330,1406,1536703365041004107,base_link,-0.172626416485,-0.228269294618,-0.861260217578,-0.419909617755,1.0,0.0,0.0,0.0,1.0,0.0,0.0,0.0,1.0,0.322959572077,0.0703200921416,-0.0637494400144,1.21846967915e-07,0.0,0.0,0.0,1.21846967915e-07,0.0,0.0,0.0,1.21846967915e-07,-0.0784532,0.51975245,9.9439431,9e-08,0.0,0.0,0.0,9e-08,0.0,0.0,0.0,9e-08
1536703365463340314,1407,1536703365463014523,base_link,-0.173191956073,-0.276630137797,-0.825064194411,-0.461247643155,1.0,0.0,0.0,0.0,1.0,0.0,0.0,0.0,1.0,0.203636884689,-0.0753319934011,-0.407760947943,1.21846967915e-07,0.0,0.0,0.0,1.21846967915e-07,0.0,0.0,0.0,1.21846967915e-07,-0.0196133,0.91201845,7.7472535,9e-08,0.0,0.0,0.0,9e-08,0.0,0.0,0.0,9e-08
1536703366055653351,1408,1536703366055246441,base_link,-0.187784997098,-0.322426577874,-0.747996004323,-0.548889674036,1.0,0.0,0.0,0.0,1.0,0.0,0.0,0.0,1.0,0.0847518965602,-0.280997723341,-0.272223204374,1.21846967915e-07,0.0,0.0,0.0,1.21846967915e-07,0.0,0.0,0.0,1.21846967915e-07,0.1765197,0.6080123,10.2969825,9e-08,0.0,0.0,0.0,9e-08,0.0,0.0,0.0,9e-08
1536703366400737476,1409,1536703366400139047,base_link,-0.223990965606,-0.316402019213,-0.704885245084,-0.594015657056,1.0,0.0,0.0,0.0,1.0,0.0,0.0,0.0,1.0,0.0628765001893,-0.352273970842,-0.245898857713,1.21846967915e-07,0.0,0.0,0.0,1.21846967915e-07,0.0,0.0,0.0,1.21846967915e-07,0.81395195,0.79433865,14.05292945,9e-08,0.0,0.0,0.0,9e-08,0.0,0.0,0.0,9e-08
1536703366788343844,1410,1536703366787870310,base_link,-0.253425190423,-0.282021907247,-0.653453789872,-0.655162164043,1.0,0.0,0.0,0.0,1.0,0.0,0.0,0.0,1.0,-0.0542443469167,-0.336939245462,-0.315082669258,1.21846967915e-07,0.0,0.0,0.0,1.21846967915e-07,0.0,0.0,0.0,1.21846967915e-07,0.85317855,1.0002783,14.09215605,9e-08,0.0,0.0,0.0,9e-08,0.0,0.0,0.0,9e-08
1536703367186643860,1411,1536703367184297502,base_link,-0.267062583389,-0.261586353902,-0.597305499752,-0.709560635866,1.0,0.0,0.0,0.0,1.0,0.0,0.0,0.0,1.0,-0.0391580983996,-0.199900358915,-0.309381484985,1.21846967915e-07,0.0,0.0,0.0,1.21846967915e-07,0.0,0.0,0.0,1.21846967915e-07,0.7649187,0.91201845,12.95458465,9e-08,0.0,0.0,0.0,9e-08,0.0,0.0,0.0,9e-08
1536703367568399242,1412,1536703367568105036,base_link,-0.279412778229,-0.246897079303,-0.534105389948,-0.758750132799,1.0,0.0,0.0,0.0,1.0,0.0,0.0,0.0,1.0,-0.00867933779955,-0.259709000587,-0.320314407349,1.21846967915e-07,0.0,0.0,0.0,1.21846967915e-07,0.0,0.0,0.0,1.21846967915e-07,0.67665885,0.59820565,11.62088025,9e-08,0.0,0.0,0.0,9e-08,0.0,0.0,0.0,9e-08
1536703368089677388,1413,1536703368089409901,base_link,-0.316694362083,-0.184981069684,-0.448304288806,-0.815174796913,1.0,0.0,0.0,0.0,1.0,0.0,0.0,0.0,1.0,-0.0281945448369,-0.43126386404,-0.251926600933,1.21846967915e-07,0.0,0.0,0.0,1.21846967915e-07,0.0,0.0,0.0,1.21846967915e-07,1.01008495,0.95124505,14.95514125,9e-08,0.0,0.0,0.0,9e-08,0.0,0.0,0.0,9e-08
1536703368539010748,1414,1536703368538531359,base_link,-0.33960664983,-0.141552847747,-0.371531257823,-0.852405208306,1.0,0.0,0.0,0.0,1.0,0.0,0.0,0.0,1.0,0.0292324442416,-0.244980037212,-0.330658823252,1.21846967915e-07,0.0,0.0,0.0,1.21846967915e-07,0.0,0.0,0.0,1.21846967915e-07,0.8433719,0.91201845,14.7688149,9e-08,0.0,0.0,0.0,9e-08,0.0,0.0,0.0,9e-08
1536703368915199501,1415,1536703368913118423,base_link,-0.366061884152,-0.0982730227992,-0.292315128736,-0.878005111302,1.0,0.0,0.0,0.0,1.0,0.0,0.0,0.0,1.0,-0.00679073296487,-0.38253068924,-0.207753390074,1.21846967915e-07,0.0,0.0,0.0,1.21846967915e-07,0.0,0.0,0.0,1.21846967915e-07,0.91201845,0.73549875,15.7887065,9e-08,0.0,0.0,0.0,9e-08,0.0,0.0,0.0,9e-08
1536703369286565922,1416,1536703369286032197,base_link,-0.3866459595,-0.0460450177438,-0.224372782109,-0.893331748564,1.0,0.0,0.0,0.0,1.0,0.0,0.0,0.0,1.0,-0.00397566147149,-0.398707211018,-0.259088635445,1.21846967915e-07,0.0,0.0,0.0,1.21846967915e-07,0.0,0.0,0.0,1.21846967915e-07,0.8433719,1.02969825,15.7690932,9e-08,0.0,0.0,0.0,9e-08,0.0,0.0,0.0,9e-08
1536703369703886468,1417,1536703369701011794,base_link,-0.405998169351,0.00173160104376,-0.138682789627,-0.903288199803,1.0,0.0,0.0,0.0,1.0,0.0,0.0,0.0,1.0,-0.035298243165,-0.29032176733,-0.2337410748,1.21846967915e-07,0.0,0.0,0.0,1.21846967915e-07,0.0,0.0,0.0,1.21846967915e-07,0.65704555,0.75511205,14.0235095,9e-08,0.0,0.0,0.0,9e-08,0.0,0.0,0.0,9e-08
1536703370194307865,1418,1536703370193911899,base_link,-0.399381677407,0.0570673447539,-0.0298324273625,-0.914520431807,1.0,0.0,0.0,0.0,1.0,0.0,0.0,0.0,1.0,-0.0208297390491,-0.362355560064,-0.333370953798,1.21846967915e-07,0.0,0.0,0.0,1.21846967915e-07,0.0,0.0,0.0,1.21846967915e-07,0.40207265,0.7453054,14.4353888,9e-08,0.0,0.0,0.0,9e-08,0.0,0.0,0.0,9e-08
1536703370603335519,1419,1536703370603133088,base_link,-0.396722345851,0.0781978296681,0.0427378462993,-0.913602734361,1.0,0.0,0.0,0.0,1.0,0.0,0.0,0.0,1.0,-0.0883044302464,-0.120814986527,-0.27993619442,1.21846967915e-07,0.0,0.0,0.0,1.21846967915e-07,0.0,0.0,0.0,1.21846967915e-07,0.26477955,0.85317855,10.50292215,9e-08,0.0,0.0,0.0,9e-08,0.0,0.0,0.0,9e-08
1536703370980087531,1420,1536703370979621230,base_link,-0.384608361689,0.0888861766866,0.118534436588,-0.911112091378,1.0,0.0,0.0,0.0,1.0,0.0,0.0,0.0,1.0,-0.0459569878876,-0.234865799546,-0.368337333202,1.21846967915e-07,0.0,0.0,0.0,1.21846967915e-07,0.0,0.0,0.0,1.21846967915e-07,-0.04903325,0.83356525,10.83634825,9e-08,0.0,0.0,0.0,9e-08,0.0,0.0,0.0,9e-08
1536703371339294680,1421,1536703371338752795,base_link,-0.385661078303,0.100589998377,0.193352012117,-0.89652784916,1.0,0.0,0.0,0.0,1.0,0.0,0.0,0.0,1.0,-0.0456024035811,-0.222337961197,-0.338729381561,1.21846967915e-07,0.0,0.0,0.0,1.21846967915e-07,0.0,0.0,0.0,1.21846967915e-07,-0.0784532,0.61781895,11.18938765,9e-08,0.0,0.0,0.0,9e-08,0.0,0.0,0.0,9e-08
1536703371690606539,1422,1536703371690262637,base_link,-0.378262175548,0.111423663146,0.25942849704,-0.881589104268,1.0,0.0,0.0,0.0,1.0,0.0,0.0,0.0,1.0,-0.0142210163176,-0.187635883689,-0.311599254608,1.21846967915e-07,0.0,0.0,0.0,1.21846967915e-07,0.0,0.0,0.0,1.21846967915e-07,-0.0784532,0.71588545,10.8461549,9e-08,0.0,0.0,0.0,9e-08,0.0,0.0,0.0,9e-08
1536703371959412533,1423,1536703371959024535,base_link,-0.37398542216,0.122151000975,0.303948309884,-0.867657456541,1.0,0.0,0.0,0.0,1.0,0.0,0.0,0.0,1.0,-0.000701535493135,-0.250039607286,-0.323739260435,1.21846967915e-07,0.0,0.0,0.0,1.21846967915e-07,0.0,0.0,0.0,1.21846967915e-07,-0.0784532,0.784532,11.2776475,9e-08,0.0,0.0,0.0,9e-08,0.0,0.0,0.0,9e-08
1536703372332604349,1424,1536703372332308062,base_link,-0.364906262287,0.133337125886,0.380738452867,-0.839108372686,1.0,0.0,0.0,0.0,1.0,0.0,0.0,0.0,1.0,-0.0662010163069,-0.274717479944,-0.332825511694,1.21846967915e-07,0.0,0.0,0.0,1.21846967915e-07,0.0,0.0,0.0,1.21846967915e-07,-0.12748645,0.63743225,11.11093445,9e-08,0.0,0.0,0.0,9e-08,0.0,0.0,0.0,9e-08
1536703372691804714,1425,1536703372691157325,base_link,-0.332656234276,0.1481617538,0.452368240705,-0.814095141436,1.0,0.0,0.0,0.0,1.0,0.0,0.0,0.0,1.0,-0.185551613569,-0.340051025152,-0.3338085711,1.21846967915e-07,0.0,0.0,0.0,1.21846967915e-07,0.0,0.0,0.0,1.21846967915e-07,0.0588399,0.8237586,13.6508568,9e-08,0.0,0.0,0.0,9e-08,0.0,0.0,0.0,9e-08
1536703373033641168,1426,1536703373032726038,base_link,-0.287847359773,0.151440133154,0.517155644606,-0.791681642325,1.0,0.0,0.0,0.0,1.0,0.0,0.0,0.0,1.0,-0.295520991087,-0.252113133669,-0.313742369413,1.21846967915e-07,0.0,0.0,0.0,1.21846967915e-07,0.0,0.0,0.0,1.21846967915e-07,-0.196133,0.97085835,13.11149105,9e-08,0.0,0.0,0.0,9e-08,0.0,0.0,0.0,9e-08
1536703373412318323,1427,1536703373411933205,base_link,-0.219622545211,0.143449288484,0.577458658256,-0.773129832094,1.0,0.0,0.0,0.0,1.0,0.0,0.0,0.0,1.0,-0.34605500102,-0.193460091949,-0.215396746993,1.21846967915e-07,0.0,0.0,0.0,1.21846967915e-07,0.0,0.0,0.0,1.21846967915e-07,-0.196133,0.5099458,13.42530385,9e-08,0.0,0.0,0.0,9e-08,0.0,0.0,0.0,9e-08
1536703373824402553,1428,1536703373824188666,base_link,-0.138718900552,0.115776490982,0.621713668259,-0.762118747614,1.0,0.0,0.0,0.0,1.0,0.0,0.0,0.0,1.0,-0.420640587807,-0.164037540555,-0.157427251339,1.21846967915e-07,0.0,0.0,0.0,1.21846967915e-07,0.0,0.0,0.0,1.21846967915e-07,-0.3334261,0.784532,12.87613145,9e-08,0.0,0.0,0.0,9e-08,0.0,0.0,0.0,9e-08
1536703374240759583,1429,1536703374240295522,base_link,-0.0541288927495,0.0666421068836,0.653890566686,-0.751702081518,1.0,0.0,0.0,0.0,1.0,0.0,0.0,0.0,1.0,-0.368339836597,0.0105741526932,-0.104707956314,1.21846967915e-07,0.0,0.0,0.0,1.21846967915e-07,0.0,0.0,0.0,1.21846967915e-07,-0.42168595,0.51975245,11.2580342,9e-08,0.0,0.0,0.0,9e-08,0.0,0.0,0.0,9e-08
1536703374742744854,1430,1536703374742524695,base_link,-0.00806721455115,-0.000470440063956,0.6687738986,-0.743421933553,1.0,0.0,0.0,0.0,1.0,0.0,0.0,0.0,1.0,-0.169605910778,0.0165042523295,-0.00421772478148,1.21846967915e-07,0.0,0.0,0.0,1.21846967915e-07,0.0,0.0,0.0,1.21846967915e-07,-0.53936575,0.1569064,7.453054,9e-08,0.0,0.0,0.0,9e-08,0.0,0.0,0.0,9e-08
1536703375211688043,1431,1536703375211360845,base_link,0.0129390461215,-0.0324649051972,0.65976252285,-0.750661058307,1.0,0.0,0.0,0.0,1.0,0.0,0.0,0.0,1.0,-0.183730632067,0.0420215949416,0.063225492835,1.21846967915e-07,0.0,0.0,0.0,1.21846967915e-07,0.0,0.0,0.0,1.21846967915e-07,-0.51975245,0.0980665,8.0218397,9e-08,0.0,0.0,0.0,9e-08,0.0,0.0,0.0,9e-08
1536703375690609978,1432,1536703375690339579,base_link,0.015750813132,-0.0562201843149,0.645720429403,-0.761338511973,1.0,0.0,0.0,0.0,1.0,0.0,0.0,0.0,1.0,0.0433005727828,0.0736930146813,0.0940905958414,1.21846967915e-07,0.0,0.0,0.0,1.21846967915e-07,0.0,0.0,0.0,1.21846967915e-07,-0.61781895,0.1765197,8.3356525,9e-08,0.0,0.0,0.0,9e-08,0.0,0.0,0.0,9e-08
1536703375940828993,1433,1536703375940553314,base_link,0.0142623976369,-0.057402606793,0.638943709052,-0.766976180471,1.0,0.0,0.0,0.0,1.0,0.0,0.0,0.0,1.0,-0.00519787706435,0.0164572708309,0.0512756258249,1.21846967915e-07,0.0,0.0,0.0,1.21846967915e-07,0.0,0.0,0.0,1.21846967915e-07,-0.6080123,0.20593965,9.24767095,9e-08,0.0,0.0,0.0,9e-08,0.0,0.0,0.0,9e-08
1536703376264264999,1434,1536703376263745322,base_link,0.00414218995555,-0.0640927015814,0.63150338911,-0.7727085074,1.0,0.0,0.0,0.0,1.0,0.0,0.0,0.0,1.0,0.00731078628451,0.00537310075015,0.0687178522348,1.21846967915e-07,0.0,0.0,0.0,1.21846967915e-07,0.0,0.0,0.0,1.21846967915e-07,-0.53936575,0.3726527,9.0809579,9e-08,0.0,0.0,0.0,9e-08,0.0,0.0,0.0,9e-08
1536703376641984853,1435,1536703376641466872,base_link,0.0306522340916,-0.0757152374745,0.618549597291,-0.781488348634,1.0,0.0,0.0,0.0,1.0,0.0,0.0,0.0,1.0,-0.243205279112,0.046761598438,0.0642994120717,1.21846967915e-07,0.0,0.0,0.0,1.21846967915e-07,0.0,0.0,0.0,1.21846967915e-07,-0.40207265,0.2157463,10.0223963,9e-08,0.0,0.0,0.0,9e-08,0.0,0.0,0.0,9e-08
1536703377103880045,1436,1536703377102641909,base_link,0.0810254329112,-0.107550985787,0.597481142798,-0.790496014334,1.0,0.0,0.0,0.0,1.0,0.0,0.0,0.0,1.0,-0.243856310844,-0.155226618052,0.103480145335,1.21846967915e-07,0.0,0.0,0.0,1.21846967915e-07,0.0,0.0,0.0,1.21846967915e-07,-0.2745862,0.16671305,11.28745415,9e-08,0.0,0.0,0.0,9e-08,0.0,0.0,0.0,9e-08
1536703377437360406,1437,1536703377437154039,base_link,0.121580186248,-0.11698293788,0.568565746814,-0.805149825875,1.0,0.0,0.0,0.0,1.0,0.0,0.0,0.0,1.0,-0.256990075111,-0.13247820735,0.21302177012,1.21846967915e-07,0.0,0.0,0.0,1.21846967915e-07,0.0,0.0,0.0,1.21846967915e-07,-0.2549729,0.04903325,11.0030613,9e-08,0.0,0.0,0.0,9e-08,0.0,0.0,0.0,9e-08
1536703377903858328,1438,1536703377903549114,base_link,0.170749864926,-0.12161484318,0.51417399663,-0.831672660808,1.0,0.0,0.0,0.0,1.0,0.0,0.0,0.0,1.0,-0.0982313901186,-0.154811888933,0.18799854815,1.21846967915e-07,0.0,0.0,0.0,1.21846967915e-07,0.0,0.0,0.0,1.21846967915e-07,-0.1569064,0.22555295,12.15043935,9e-08,0.0,0.0,0.0,9e-08,0.0,0.0,0.0,9e-08
1536703378344556965,1439,1536703378343885386,base_link,0.176914180343,-0.114694929681,0.470716039067,-0.856722158266,1.0,0.0,0.0,0.0,1.0,0.0,0.0,0.0,1.0,0.00121171958745,-0.147591724992,0.212580576539,1.21846967915e-07,0.0,0.0,0.0,1.21846967915e-07,0.0,0.0,0.0,1.21846967915e-07,-0.12748645,0.28439285,10.30678915,9e-08,0.0,0.0,0.0,9e-08,0.0,0.0,0.0,9e-08
1536703378747207993,1440,1536703378746909627,base_link,0.178527855935,-0.101068370174,0.427166505851,-0.880591713273,1.0,0.0,0.0,0.0,1.0,0.0,0.0,0.0,1.0,0.0463359616697,-0.0548850595951,0.244729474187,1.21846967915e-07,0.0,0.0,0.0,1.21846967915e-07,0.0,0.0,0.0,1.21846967915e-07,-0.04903325,-0.00980665,11.89546645,9e-08,0.0,0.0,0.0,9e-08,0.0,0.0,0.0,9e-08
1536703379090257953,1441,1536703379089986210,base_link,0.166512165854,-0.096895836788,0.387009374506,-0.901725368103,1.0,0.0,0.0,0.0,1.0,0.0,0.0,0.0,1.0,0.0669760107994,-0.0579950362444,0.223483636975,1.21846967915e-07,0.0,0.0,0.0,1.21846967915e-07,0.0,0.0,0.0,1.21846967915e-07,-0.0980665,0.2549729,10.395049,9e-08,0.0,0.0,0.0,9e-08,0.0,0.0,0.0,9e-08
1536703379531350901,1442,1536703379522125683,base_link,0.136659243153,-0.0773875642058,0.355819887786,-0.921264144327,1.0,0.0,0.0,0.0,1.0,0.0,0.0,0.0,1.0,0.211413353682,-0.0149670066312,0.151019603014,1.21846967915e-07,0.0,0.0,0.0,1.21846967915e-07,0.0,0.0,0.0,1.21846967915e-07,-0.10787315,0.24516625,10.2773692,9e-08,0.0,0.0,0.0,9e-08,0.0,0.0,0.0,9e-08
1536703380039818118,1443,1536703380039520232,base_link,0.0876071756438,-0.0442427727978,0.331860237047,-0.938209114696,1.0,0.0,0.0,0.0,1.0,0.0,0.0,0.0,1.0,0.283524692059,-0.132984086871,0.113177530468,1.21846967915e-07,0.0,0.0,0.0,1.21846967915e-07,0.0,0.0,0.0,1.21846967915e-07,-0.08825985,0.00980665,11.28745415,9e-08,0.0,0.0,0.0,9e-08,0.0,0.0,0.0,9e-08
1536703380347765949,1444,1536703380347378111,base_link,0.0527015081768,-0.0282531186604,0.305580084762,-0.95028686412,1.0,0.0,0.0,0.0,1.0,0.0,0.0,0.0,1.0,0.166648030281,0.0184487681836,0.186963632703,1.21846967915e-07,0.0,0.0,0.0,1.21846967915e-07,0.0,0.0,0.0,1.21846967915e-07,-0.0980665,0.26477955,11.0226746,9e-08,0.0,0.0,0.0,9e-08,0.0,0.0,0.0,9e-08
1536703380847997531,1445,1536703380846847683,base_link,0.0722495596228,-0.0227009689903,0.283140499122,-0.956083743664,1.0,0.0,0.0,0.0,1.0,0.0,0.0,0.0,1.0,-0.0653214007616,-0.0665981173515,0.0293941758573,1.21846967915e-07,0.0,0.0,0.0,1.21846967915e-07,0.0,0.0,0.0,1.21846967915e-07,-0.1176798,0.30400615,9.99297635,9e-08,0.0,0.0,0.0,9e-08,0.0,0.0,0.0,9e-08
1536703381182922047,1446,1536703381182559905,base_link,0.0916046833131,-0.01119318076,0.26443731761,-0.959977187101,1.0,0.0,0.0,0.0,1.0,0.0,0.0,0.0,1.0,-0.176662027836,-0.067541770637,0.169007152319,1.21846967915e-07,0.0,0.0,0.0,1.21846967915e-07,0.0,0.0,0.0,1.21846967915e-07,0.0,0.2157463,11.46397385,9e-08,0.0,0.0,0.0,9e-08,0.0,0.0,0.0,9e-08
1536703381578358150,1447,1536703381577964681,base_link,0.139482046293,-0.0267379320212,0.227064242186,-0.963468562888,1.0,0.0,0.0,0.0,1.0,0.0,0.0,0.0,1.0,-0.342054992914,-0.0929782390594,0.179988235235,1.21846967915e-07,0.0,0.0,0.0,1.21846967915e-07,0.0,0.0,0.0,1.21846967915e-07,-0.0588399,0.3726527,10.13026945,9e-08,0.0,0.0,0.0,9e-08,0.0,0.0,0.0,9e-08
1536703381997668232,1448,1536703381993384102,base_link,0.213974109178,-0.0282011788058,0.184481850204,-0.958846296891,1.0,0.0,0.0,0.0,1.0,0.0,0.0,0.0,1.0,-0.266745984554,-0.166490972042,0.198639824986,1.21846967915e-07,0.0,0.0,0.0,1.21846967915e-07,0.0,0.0,0.0,1.21846967915e-07,0.0784532,0.16671305,11.93469305,9e-08,0.0,0.0,0.0,9e-08,0.0,0.0,0.0,9e-08
1536703382329127320,1449,1536703382328788699,base_link,0.258437144203,-0.0317414335115,0.145053705165,-0.954548137347,1.0,0.0,0.0,0.0,1.0,0.0,0.0,0.0,1.0,-0.225990757346,-0.0108179477975,0.24430334568,1.21846967915e-07,0.0,0.0,0.0,1.21846967915e-07,0.0,0.0,0.0,1.21846967915e-07,0.18632635,0.22555295,10.9638347,9e-08,0.0,0.0,0.0,9e-08,0.0,0.0,0.0,9e-08
1536703382784564312,1450,1536703382783998972,base_link,0.309010642916,-0.0367674244552,0.0722985984915,-0.947593526635,1.0,0.0,0.0,0.0,1.0,0.0,0.0,0.0,1.0,-0.128190070391,-0.252205073833,0.314518630505,1.21846967915e-07,0.0,0.0,0.0,1.21846967915e-07,0.0,0.0,0.0,1.21846967915e-07,0.26477955,-0.1569064,9.5516771,9e-08,0.0,0.0,0.0,9e-08,0.0,0.0,0.0,9e-08
1536703383194978009,1451,1536703383191747057,base_link,0.351475487166,0.00193658947308,-0.0217323823969,-0.935942805463,1.0,0.0,0.0,0.0,1.0,0.0,0.0,0.0,1.0,-0.165596872568,-0.348273575306,0.367931842804,1.21846967915e-07,0.0,0.0,0.0,1.21846967915e-07,0.0,0.0,0.0,1.21846967915e-07,0.83356525,0.0392266,13.60182355,9e-08,0.0,0.0,0.0,9e-08,0.0,0.0,0.0,9e-08
1536703383660985861,1452,1536703383659735502,base_link,0.380211846402,0.0479319495494,-0.12833468441,-0.914697594206,1.0,0.0,0.0,0.0,1.0,0.0,0.0,0.0,1.0,-0.159835100174,-0.35517975688,0.343818187714,1.21846967915e-07,0.0,0.0,0.0,1.21846967915e-07,0.0,0.0,0.0,1.21846967915e-07,1.20621795,0.1569064,14.28828905,9e-08,0.0,0.0,0.0,9e-08,0.0,0.0,0.0,9e-08
1536703383967764468,1453,1536703383967392375,base_link,0.385373953195,0.0838584616689,-0.193425543401,-0.898354737153,1.0,0.0,0.0,0.0,1.0,0.0,0.0,0.0,1.0,-0.0540779307485,-0.42087122798,0.325440466404,1.21846967915e-07,0.0,0.0,0.0,1.21846967915e-07,0.0,0.0,0.0,1.21846967915e-07,1.569064,0.1176798,15.05320775,9e-08,0.0,0.0,0.0,9e-08,0.0,0.0,0.0,9e-08
1536703384345582475,1454,1536703384345266573,base_link,0.383695136705,0.142514614518,-0.290400052701,-0.864948227415,1.0,0.0,0.0,0.0,1.0,0.0,0.0,0.0,1.0,0.067602455616,-0.51797837019,0.354282766581,1.21846967915e-07,0.0,0.0,0.0,1.21846967915e-07,0.0,0.0,0.0,1.21846967915e-07,1.8828768,-0.0980665,15.9652262,9e-08,0.0,0.0,0.0,9e-08,0.0,0.0,0.0,9e-08
1536703384723258526,1455,1536703384721849352,base_link,0.342072828129,0.200223465668,-0.39892559619,-0.826894861972,1.0,0.0,0.0,0.0,1.0,0.0,0.0,0.0,1.0,0.0944665372372,-0.54227823019,0.420429646969,1.21846967915e-07,0.0,0.0,0.0,1.21846967915e-07,0.0,0.0,0.0,1.21846967915e-07,2.06920315,0.2549729,19.7113665,9e-08,0.0,0.0,0.0,9e-08,0.0,0.0,0.0,9e-08
1536703385090378482,1456,1536703385090065204,base_link,0.274445162799,0.236939757808,-0.495439714679,-0.789353465125,1.0,0.0,0.0,0.0,1.0,0.0,0.0,0.0,1.0,0.432799637318,-0.513459026814,0.258972465992,1.21846967915e-07,0.0,0.0,0.0,1.21846967915e-07,0.0,0.0,0.0,1.21846967915e-07,1.7259704,0.3530394,17.4950636,9e-08,0.0,0.0,0.0,9e-08,0.0,0.0,0.0,9e-08
1536703385609923773,1457,1536703385608412552,base_link,0.136744871836,0.261167323001,-0.611891656037,-0.733948956464,1.0,0.0,0.0,0.0,1.0,0.0,0.0,0.0,1.0,0.539576232433,-0.395882129669,0.315202981234,1.21846967915e-07,0.0,0.0,0.0,1.21846967915e-07,0.0,0.0,0.0,1.21846967915e-07,1.4709975,0.34323275,19.5152335,9e-08,0.0,0.0,0.0,9e-08,0.0,0.0,0.0,9e-08
1536703386079589492,1458,1536703386079049625,base_link,0.0154486648239,0.188976347948,-0.685956608276,-0.70250466919,1.0,0.0,0.0,0.0,1.0,0.0,0.0,0.0,1.0,0.862025499344,-0.0250441469252,0.133065834641,1.21846967915e-07,0.0,0.0,0.0,1.21846967915e-07,0.0,0.0,0.0,1.21846967915e-07,0.42168595,-0.00980665,12.97419795,9e-08,0.0,0.0,0.0,9e-08,0.0,0.0,0.0,9e-08
1536703386454525963,1459,1536703386454084206,base_link,-0.0949253993216,0.0764973012151,-0.72376533299,-0.679191485689,1.0,0.0,0.0,0.0,1.0,0.0,0.0,0.0,1.0,0.59093105793,0.014491151087,0.0637413039804,1.21846967915e-07,0.0,0.0,0.0,1.21846967915e-07,0.0,0.0,0.0,1.21846967915e-07,0.0784532,0.4314926,9.97336305,9e-08,0.0,0.0,0.0,9e-08,0.0,0.0,0.0,9e-08
1536703386840404812,1460,1536703386837954815,base_link,-0.116992717719,-0.00995685700027,-0.7362919873,-0.666399035442,1.0,0.0,0.0,0.0,1.0,0.0,0.0,0.0,1.0,0.240662410855,0.192721039057,-0.0376357771456,1.21846967915e-07,0.0,0.0,0.0,1.21846967915e-07,0.0,0.0,0.0,1.21846967915e-07,-0.1176798,0.42168595,5.7859235,9e-08,0.0,0.0,0.0,9e-08,0.0,0.0,0.0,9e-08
1536703387232278621,1461,1536703387232006176,base_link,-0.105096684992,-0.0635608662238,-0.725734980042,-0.676922035269,1.0,0.0,0.0,0.0,1.0,0.0,0.0,0.0,1.0,0.107715912163,0.188536718488,-0.142265185714,1.21846967915e-07,0.0,0.0,0.0,1.21846967915e-07,0.0,0.0,0.0,1.21846967915e-07,-0.2157463,0.48052585,4.2168595,9e-08,0.0,0.0,0.0,9e-08,0.0,0.0,0.0,9e-08
1536703387627114847,1462,1536703387626658019,base_link,-0.0791468148046,-0.100300715447,-0.708434121685,-0.694115727685,1.0,0.0,0.0,0.0,1.0,0.0,0.0,0.0,1.0,0.0726084709167,0.23844987154,-0.152513802052,1.21846967915e-07,0.0,0.0,0.0,1.21846967915e-07,0.0,0.0,0.0,1.21846967915e-07,-0.3530394,0.30400615,5.8055368,9e-08,0.0,0.0,0.0,9e-08,0.0,0.0,0.0,9e-08
1536703387945478906,1463,1536703387943924262,base_link,-0.0618462903123,-0.130991364483,-0.693933996373,-0.705316884445,1.0,0.0,0.0,0.0,1.0,0.0,0.0,0.0,1.0,-0.00844782032073,0.0682148858905,-0.101386845112,1.21846967915e-07,0.0,0.0,0.0,1.21846967915e-07,0.0,0.0,0.0,1.21846967915e-07,-0.28439285,0.2549729,5.97224985,9e-08,0.0,0.0,0.0,9e-08,0.0,0.0,0.0,9e-08
1536703388318110619,1464,1536703388317806238,base_link,-0.0406252996042,-0.123184848246,-0.686270533701,-0.715686965627,1.0,0.0,0.0,0.0,1.0,0.0,0.0,0.0,1.0,-0.207344219089,0.022629192099,-0.0763556286693,1.21846967915e-07,0.0,0.0,0.0,1.21846967915e-07,0.0,0.0,0.0,1.21846967915e-07,-0.32361945,0.48052585,7.8257067,9e-08,0.0,0.0,0.0,9e-08,0.0,0.0,0.0,9e-08
1536703388788232423,1465,1536703388787606796,base_link,0.0147096710703,-0.0819789190124,-0.684352681331,-0.724378692377,1.0,0.0,0.0,0.0,1.0,0.0,0.0,0.0,1.0,-0.266545027494,-0.0458310134709,-0.0664881244302,1.21846967915e-07,0.0,0.0,0.0,1.21846967915e-07,0.0,0.0,0.0,1.21846967915e-07,-0.18632635,0.7060788,8.9632781,9e-08,0.0,0.0,0.0,9e-08,0.0,0.0,0.0,9e-08
1536703389219252877,1466,1536703389218939280,base_link,0.021897216114,-0.0385929021972,-0.674534096965,-0.736908984786,1.0,0.0,0.0,0.0,1.0,0.0,0.0,0.0,1.0,-0.0475597679615,-0.198282048106,-0.0121449194849,1.21846967915e-07,0.0,0.0,0.0,1.21846967915e-07,0.0,0.0,0.0,1.21846967915e-07,-0.0196133,0.1372931,12.4348322,9e-08,0.0,0.0,0.0,9e-08,0.0,0.0,0.0,9e-08
1536703389618109050,1467,1536703389617859068,base_link,0.0210065777977,-0.00499058170019,-0.689077171952,-0.724366253271,1.0,0.0,0.0,0.0,1.0,0.0,0.0,0.0,1.0,-0.137613490224,-0.0383469983935,0.118528343737,1.21846967915e-07,0.0,0.0,0.0,1.21846967915e-07,0.0,0.0,0.0,1.21846967915e-07,0.08825985,0.65704555,12.4152189,9e-08,0.0,0.0,0.0,9e-08,0.0,0.0,0.0,9e-08
1536703390034962703,1468,1536703390034552499,base_link,0.0249828206267,0.00613997014725,-0.696857066589,-0.716748483211,1.0,0.0,0.0,0.0,1.0,0.0,0.0,0.0,1.0,-0.131186395884,0.0252417195588,0.0491575486958,1.21846967915e-07,0.0,0.0,0.0,1.21846967915e-07,0.0,0.0,0.0,1.21846967915e-07,0.0784532,0.2549729,11.8660465,9e-08,0.0,0.0,0.0,9e-08,0.0,0.0,0.0,9e-08
1536703390444647080,1469,1536703390444152077,base_link,0.0269586237191,0.0192954411497,-0.712042482237,-0.70135327906,1.0,0.0,0.0,0.0,1.0,0.0,0.0,0.0,1.0,-0.110974490643,-0.0556093975902,0.163523346186,1.21846967915e-07,0.0,0.0,0.0,1.21846967915e-07,0.0,0.0,0.0,1.21846967915e-07,0.0,0.2549729,11.0619012,9e-08,0.0,0.0,0.0,9e-08,0.0,0.0,0.0,9e-08
1536703390941265648,1470,1536703390941028434,base_link,0.0333439410404,0.0490446447914,-0.727236255204,-0.683820322548,1.0,0.0,0.0,0.0,1.0,0.0,0.0,0.0,1.0,-0.175751760602,-0.059777341783,0.0222080443054,1.21846967915e-07,0.0,0.0,0.0,1.21846967915e-07,0.0,0.0,0.0,1.21846967915e-07,0.04903325,0.44129925,11.99353295,9e-08,0.0,0.0,0.0,9e-08,0.0,0.0,0.0,9e-08
1536703391286334456,1471,1536703391286073754,base_link,0.0495805696776,0.047845021619,-0.728149562946,-0.68194635786,1.0,0.0,0.0,0.0,1.0,0.0,0.0,0.0,1.0,-0.0339371003211,0.0592826120555,0.026404298842,1.21846967915e-07,0.0,0.0,0.0,1.21846967915e-07,0.0,0.0,0.0,1.21846967915e-07,-0.12748645,0.1569064,7.99241975,9e-08,0.0,0.0,0.0,9e-08,0.0,0.0,0.0,9e-08
1536703391543395102,1472,1536703391543145120,base_link,0.0568064671739,0.04578998823,-0.732641859568,-0.676692107146,1.0,0.0,0.0,0.0,1.0,0.0,0.0,0.0,1.0,0.00102449953556,-0.0316156931221,0.112308070064,1.21846967915e-07,0.0,0.0,0.0,1.21846967915e-07,0.0,0.0,0.0,1.21846967915e-07,-0.16671305,-0.12748645,8.65927195,9e-08,0.0,0.0,0.0,9e-08,0.0,0.0,0.0,9e-08
1536703391941318655,1473,1536703391941119105,base_link,0.0652333293231,0.0791540070498,-0.753852769484,-0.648987871885,1.0,0.0,0.0,0.0,1.0,0.0,0.0,0.0,1.0,-0.198272481561,-0.0571743696928,0.150102987885,1.21846967915e-07,0.0,0.0,0.0,1.21846967915e-07,0.0,0.0,0.0,1.21846967915e-07,0.0,0.36284605,11.24822755,9e-08,0.0,0.0,0.0,9e-08,0.0,0.0,0.0,9e-08
1536703392324774571,1474,1536703392324357487,base_link,0.0911539280447,0.100178688113,-0.766449468944,-0.627861770938,1.0,0.0,0.0,0.0,1.0,0.0,0.0,0.0,1.0,-0.175656273961,0.0265425313264,0.130702137947,1.21846967915e-07,0.0,0.0,0.0,1.21846967915e-07,0.0,0.0,0.0,1.21846967915e-07,-0.00980665,0.36284605,9.6497436,9e-08,0.0,0.0,0.0,9e-08,0.0,0.0,0.0,9e-08
1536703392734905193,1475,1536703392734507885,base_link,0.118086093748,0.115772157398,-0.785269432892,-0.596661042637,1.0,0.0,0.0,0.0,1.0,0.0,0.0,0.0,1.0,-0.0410213842988,-0.0774567127228,0.204831823707,1.21846967915e-07,0.0,0.0,0.0,1.21846967915e-07,0.0,0.0,0.0,1.21846967915e-07,-0.2353596,-0.0588399,8.36507245,9e-08,0.0,0.0,0.0,9e-08,0.0,0.0,0.0,9e-08
1536703393134116338,1476,1536703393133901172,base_link,0.12125318754,0.142750498398,-0.812370705508,-0.552244326862,1.0,0.0,0.0,0.0,1.0,0.0,0.0,0.0,1.0,-0.322263926268,0.00134529452771,0.298747688532,1.21846967915e-07,0.0,0.0,0.0,1.21846967915e-07,0.0,0.0,0.0,1.21846967915e-07,0.0392266,0.20593965,12.9251647,9e-08,0.0,0.0,0.0,9e-08,0.0,0.0,0.0,9e-08
1536703393592158580,1477,1536703393591901463,base_link,0.130323806722,0.184797279686,-0.840993271014,-0.491524148879,1.0,0.0,0.0,0.0,1.0,0.0,0.0,0.0,1.0,-0.386420428753,0.0257262755185,0.196292430162,1.21846967915e-07,0.0,0.0,0.0,1.21846967915e-07,0.0,0.0,0.0,1.21846967915e-07,0.0196133,0.392266,10.05181625,9e-08,0.0,0.0,0.0,9e-08,0.0,0.0,0.0,9e-08
1536703393870211545,1478,1536703393869667774,base_link,0.141921801809,0.20654460642,-0.847478552072,-0.467950458391,1.0,0.0,0.0,0.0,1.0,0.0,0.0,0.0,1.0,-0.147021785378,-0.130879476666,0.164789050817,1.21846967915e-07,0.0,0.0,0.0,1.21846967915e-07,0.0,0.0,0.0,1.21846967915e-07,0.0,0.04903325,10.8069283,9e-08,0.0,0.0,0.0,9e-08,0.0,0.0,0.0,9e-08
1536703394226858320,1479,1536703394225747802,base_link,0.144757715737,0.249829470095,-0.860781764842,-0.419148175378,1.0,0.0,0.0,0.0,1.0,0.0,0.0,0.0,1.0,-0.155226647854,-0.126180276275,0.279452949762,1.21846967915e-07,0.0,0.0,0.0,1.21846967915e-07,0.0,0.0,0.0,1.21846967915e-07,0.08825985,0.00980665,10.8461549,9e-08,0.0,0.0,0.0,9e-08,0.0,0.0,0.0,9e-08
1536703394600859163,1480,1536703394600220481,base_link,0.116029422388,0.259543341307,-0.889678159125,-0.357277483616,1.0,0.0,0.0,0.0,1.0,0.0,0.0,0.0,1.0,0.0323534607887,-0.276351302862,0.338058769703,1.21846967915e-07,0.0,0.0,0.0,1.21846967915e-07,0.0,0.0,0.0,1.21846967915e-07,0.51975245,0.0588399,14.6511351,9e-08,0.0,0.0,0.0,9e-08,0.0,0.0,0.0,9e-08
1536703394942033897,1481,1536703394941614573,base_link,0.100956259665,0.273390217314,-0.90908952086,-0.29769424881,1.0,0.0,0.0,0.0,1.0,0.0,0.0,0.0,1.0,0.0764187276363,-0.213088929653,0.277288526297,1.21846967915e-07,0.0,0.0,0.0,1.21846967915e-07,0.0,0.0,0.0,1.21846967915e-07,0.57859235,0.1569064,13.7881499,9e-08,0.0,0.0,0.0,9e-08,0.0,0.0,0.0,9e-08
1536703395393608940,1482,1536703395393175024,base_link,0.0633668583743,0.279115565979,-0.934846277296,-0.210098976471,1.0,0.0,0.0,0.0,1.0,0.0,0.0,0.0,1.0,-0.0156309846789,-0.285488158464,0.330029994249,1.21846967915e-07,0.0,0.0,0.0,1.21846967915e-07,0.0,0.0,0.0,1.21846967915e-07,0.6864655,0.06864655,14.2196425,9e-08,0.0,0.0,0.0,9e-08,0.0,0.0,0.0,9e-08
1536703395770380968,1483,1536703395769871597,base_link,0.0360268145693,0.305810908331,-0.941610018673,-0.136206937093,1.0,0.0,0.0,0.0,1.0,0.0,0.0,0.0,1.0,-0.13728415966,-0.207941651344,0.269523322582,1.21846967915e-07,0.0,0.0,0.0,1.21846967915e-07,0.0,0.0,0.0,1.21846967915e-07,0.61781895,0.55897905,13.2193642,9e-08,0.0,0.0,0.0,9e-08,0.0,0.0,0.0,9e-08
1536703396264120067,1484,1536703396263831301,base_link,0.00880266530951,0.326425121802,-0.943250906984,-0.0603893981935,1.0,0.0,0.0,0.0,1.0,0.0,0.0,0.0,1.0,0.0347833782434,-0.283920258284,0.309544712305,1.21846967915e-07,0.0,0.0,0.0,1.21846967915e-07,0.0,0.0,0.0,1.21846967915e-07,0.89240515,-0.22555295,13.68027675,9e-08,0.0,0.0,0.0,9e-08,0.0,0.0,0.0,9e-08
1536703396726380509,1485,1536703396725940993,base_link,-0.0371413000944,0.33848058561,-0.939219233173,0.0438023861156,1.0,0.0,0.0,0.0,1.0,0.0,0.0,0.0,1.0,0.0768391117454,-0.358436405659,0.292915940285,1.21846967915e-07,0.0,0.0,0.0,1.21846967915e-07,0.0,0.0,0.0,1.21846967915e-07,0.91201845,0.4707192,14.09215605,9e-08,0.0,0.0,0.0,9e-08,0.0,0.0,0.0,9e-08
1536703397124737167,1486,1536703397124315731,base_link,-0.0822308349438,0.284608889345,-0.947105745576,0.12339601528,1.0,0.0,0.0,0.0,1.0,0.0,0.0,0.0,1.0,0.37222096324,-0.403162240982,0.320229321718,1.21846967915e-07,0.0,0.0,0.0,1.21846967915e-07,0.0,0.0,0.0,1.21846967915e-07,1.10815145,-0.0392266,15.62199345,9e-08,0.0,0.0,0.0,9e-08,0.0,0.0,0.0,9e-08
1536703397530436312,1487,1536703397529720638,base_link,-0.0922330723521,0.19611642106,-0.953620769701,0.208899108064,1.0,0.0,0.0,0.0,1.0,0.0,0.0,0.0,1.0,0.543184936047,-0.0469514504075,0.254364311695,1.21846967915e-07,0.0,0.0,0.0,1.21846967915e-07,0.0,0.0,0.0,1.21846967915e-07,0.48052585,0.53936575,13.1801376,9e-08,0.0,0.0,0.0,9e-08,0.0,0.0,0.0,9e-08
1536703397961441813,1488,1536703397960879066,base_link,-0.0805136626518,0.087370805219,-0.960317491408,0.252337488727,1.0,0.0,0.0,0.0,1.0,0.0,0.0,0.0,1.0,0.596398591995,-0.101265572011,0.155649632215,1.21846967915e-07,0.0,0.0,0.0,1.21846967915e-07,0.0,0.0,0.0,1.21846967915e-07,0.14709975,-0.08825985,11.38552065,9e-08,0.0,0.0,0.0,9e-08,0.0,0.0,0.0,9e-08
1536703398348483034,1489,1536703398348165661,base_link,-0.0603848725817,-0.020278963171,-0.954263395897,0.292102382851,1.0,0.0,0.0,0.0,1.0,0.0,0.0,0.0,1.0,0.432533323765,-0.000128403771669,0.112873136997,1.21846967915e-07,0.0,0.0,0.0,1.21846967915e-07,0.0,0.0,0.0,1.21846967915e-07,0.00980665,0.392266,10.44408225,9e-08,0.0,0.0,0.0,9e-08,0.0,0.0,0.0,9e-08
1536703398697337826,1490,1536703398696922214,base_link,-0.0234138069105,-0.0734845247051,-0.951769296905,0.29696300063,1.0,0.0,0.0,0.0,1.0,0.0,0.0,0.0,1.0,0.317703723907,0.166726008058,-0.054216787219,1.21846967915e-07,0.0,0.0,0.0,1.21846967915e-07,0.0,0.0,0.0,1.21846967915e-07,-0.20593965,0.4511059,7.7668668,9e-08,0.0,0.0,0.0,9e-08,0.0,0.0,0.0,9e-08
1536703399226004429,1491,1536703399225725392,base_link,0.0227380886537,-0.114598064649,-0.954303812552,0.27505362432,1.0,0.0,0.0,0.0,1.0,0.0,0.0,0.0,1.0,0.105847448111,0.0619460865855,-0.117496624589,1.21846967915e-07,0.0,0.0,0.0,1.21846967915e-07,0.0,0.0,0.0,1.21846967915e-07,-0.18632635,0.32361945,7.69822025,9e-08,0.0,0.0,0.0,9e-08,0.0,0.0,0.0,9e-08
1536703399498452929,1492,1536703399498123364,base_link,0.0326292011204,-0.118079008345,-0.957404206619,0.261476324302,1.0,0.0,0.0,0.0,1.0,0.0,0.0,0.0,1.0,-0.00213010981679,0.0424204133451,-0.103812135756,1.21846967915e-07,0.0,0.0,0.0,1.21846967915e-07,0.0,0.0,0.0,1.21846967915e-07,-0.24516625,0.3138128,8.93385815,9e-08,0.0,0.0,0.0,9e-08,0.0,0.0,0.0,9e-08
1536703399832578823,1493,1536703399832245322,base_link,0.0487333515383,-0.109334868463,-0.961017557807,0.249231219097,1.0,0.0,0.0,0.0,1.0,0.0,0.0,0.0,1.0,-0.0679521560669,0.14944460988,-0.0970872342587,1.21846967915e-07,0.0,0.0,0.0,1.21846967915e-07,0.0,0.0,0.0,1.21846967915e-07,-0.24516625,0.61781895,8.52197885,9e-08,0.0,0.0,0.0,9e-08,0.0,0.0,0.0,9e-08
1536703400254629601,1494,1536703400254133926,base_link,0.0626647440319,-0.0872119160385,-0.966354160685,0.233723870589,1.0,0.0,0.0,0.0,1.0,0.0,0.0,0.0,1.0,-0.0906230732799,0.0628612414002,-0.0775027126074,1.21846967915e-07,0.0,0.0,0.0,1.21846967915e-07,0.0,0.0,0.0,1.21846967915e-07,-0.3530394,0.42168595,7.5903471,9e-08,0.0,0.0,0.0,9e-08,0.0,0.0,0.0,9e-08
1536703400531610499,1495,1536703400531310598,base_link,0.0645200740383,-0.0750405837876,-0.969118053504,0.225867813563,1.0,0.0,0.0,0.0,1.0,0.0,0.0,0.0,1.0,-0.0472947210073,-0.0591304935515,-0.0462223663926,1.21846967915e-07,0.0,0.0,0.0,1.21846967915e-07,0.0,0.0,0.0,1.21846967915e-07,-0.36284605,0.24516625,8.8652116,9e-08,0.0,0.0,0.0,9e-08,0.0,0.0,0.0,9e-08
1536703400939386961,1496,1536703400938984693,base_link,0.0607964979602,-0.0562819426974,-0.972118425239,0.219367035063,1.0,0.0,0.0,0.0,1.0,0.0,0.0,0.0,1.0,-0.137305065989,0.0221116542816,-0.013182990253,1.21846967915e-07,0.0,0.0,0.0,1.21846967915e-07,0.0,0.0,0.0,1.21846967915e-07,-0.2157463,0.24516625,10.1793027,9e-08,0.0,0.0,0.0,9e-08,0.0,0.0,0.0,9e-08
1536703401266116109,1497,1536703401263215562,base_link,0.0356147745915,-0.0275752197356,-0.973848788766,0.222687520318,1.0,0.0,0.0,0.0,1.0,0.0,0.0,0.0,1.0,-0.274999082088,-0.161108896136,0.0170404780656,1.21846967915e-07,0.0,0.0,0.0,1.21846967915e-07,0.0,0.0,0.0,1.21846967915e-07,-0.16671305,0.63743225,11.24822755,9e-08,0.0,0.0,0.0,9e-08,0.0,0.0,0.0,9e-08
1536703401593253405,1498,1536703401592835873,base_link,0.0249529018453,0.00110023306982,-0.974028046909,0.225045564299,1.0,0.0,0.0,0.0,1.0,0.0,0.0,0.0,1.0,-0.102487541735,-0.0284892991185,0.00709126563743,1.21846967915e-07,0.0,0.0,0.0,1.21846967915e-07,0.0,0.0,0.0,1.21846967915e-07,-0.16671305,0.48052585,9.95374975,9e-08,0.0,0.0,0.0,9e-08,0.0,0.0,0.0,9e-08
1536703401862178793,1499,1536703401861859436,base_link,0.0114057422371,0.0121460363714,-0.973514464668,0.228017477238,1.0,0.0,0.0,0.0,1.0,0.0,0.0,0.0,1.0,-0.0239085704088,-0.077926017344,0.0296363662928,1.21846967915e-07,0.0,0.0,0.0,1.21846967915e-07,0.0,0.0,0.0,1.21846967915e-07,-0.08825985,0.40207265,11.11093445,9e-08,0.0,0.0,0.0,9e-08,0.0,0.0,0.0,9e-08
1536703402201777604,1500,1536703402201424296,base_link,-0.00262185402239,0.0145603183151,-0.971742376069,0.235579875126,1.0,0.0,0.0,0.0,1.0,0.0,0.0,0.0,1.0,-0.0665268227458,-0.0614045262337,0.0647750273347,1.21846967915e-07,0.0,0.0,0.0,1.21846967915e-07,0.0,0.0,0.0,1.21846967915e-07,-0.0784532,0.34323275,11.38552065,9e-08,0.0,0.0,0.0,9e-08,0.0,0.0,0.0,9e-08
1536703402649012829,1501,1536703402648560738,base_link,-0.00248557101233,0.0189849383405,-0.969023758151,0.246224186852,1.0,0.0,0.0,0.0,1.0,0.0,0.0,0.0,1.0,0.0127870105207,-0.0041197356768,0.057537920773,1.21846967915e-07,0.0,0.0,0.0,1.21846967915e-07,0.0,0.0,0.0,1.21846967915e-07,-0.1569064,0.3138128,9.7870367,9e-08,0.0,0.0,0.0,9e-08,0.0,0.0,0.0,9e-08
1536703402948421591,1502,1536703402948090586,base_link,-0.00482235063843,0.00835059912824,-0.966732785379,0.25560660027,1.0,0.0,0.0,0.0,1.0,0.0,0.0,0.0,1.0,0.0585319474339,-0.064427383244,0.0689452663064,1.21846967915e-07,0.0,0.0,0.0,1.21846967915e-07,0.0,0.0,0.0,1.21846967915e-07,0.0,0.57859235,11.11093445,9e-08,0.0,0.0,0.0,9e-08,0.0,0.0,0.0,9e-08
1536703403332376153,1503,1536703403332076892,base_link,0.00170738800767,0.00566435080186,-0.965619107902,0.259893705986,1.0,0.0,0.0,0.0,1.0,0.0,0.0,0.0,1.0,0.107841387391,0.158141642809,-0.011148083955,1.21846967915e-07,0.0,0.0,0.0,1.21846967915e-07,0.0,0.0,0.0,1.21846967915e-07,-0.0980665,0.48052585,9.30651085,9e-08,0.0,0.0,0.0,9e-08,0.0,0.0,0.0,9e-08
1536703403574040657,1504,1536703403573772980,base_link,0.0151649134001,-0.00572415326912,-0.96561744008,0.259461401532,1.0,0.0,0.0,0.0,1.0,0.0,0.0,0.0,1.0,0.139669016004,0.00251020025462,0.0138360019773,1.21846967915e-07,0.0,0.0,0.0,1.21846967915e-07,0.0,0.0,0.0,1.21846967915e-07,-0.0588399,0.2353596,9.07115125,9e-08,0.0,0.0,0.0,9e-08,0.0,0.0,0.0,9e-08
1536703403942095662,1505,1536703403941833648,base_link,0.0220427143,-0.0273174976026,-0.963367038048,0.265879339313,1.0,0.0,0.0,0.0,1.0,0.0,0.0,0.0,1.0,0.132054105401,0.000347341410816,0.0465737879276,1.21846967915e-07,0.0,0.0,0.0,1.21846967915e-07,0.0,0.0,0.0,1.21846967915e-07,-0.08825985,0.2941995,9.44380395,9e-08,0.0,0.0,0.0,9e-08,0.0,0.0,0.0,9e-08
1536703404327353746,1506,1536703404327021269,base_link,0.0242015783334,-0.0503805334173,-0.962564015941,0.265229336,1.0,0.0,0.0,0.0,1.0,0.0,0.0,0.0,1.0,0.114209204912,-0.0591390989721,-0.0392338261008,1.21846967915e-07,0.0,0.0,0.0,1.21846967915e-07,0.0,0.0,0.0,1.21846967915e-07,-0.0392266,0.50013915,10.0812362,9e-08,0.0,0.0,0.0,9e-08,0.0,0.0,0.0,9e-08
1536703404837481329,1507,1536703404836961302,base_link,0.0433587344759,-0.0644908092987,-0.963985345345,0.25434859862,1.0,0.0,0.0,0.0,1.0,0.0,0.0,0.0,1.0,0.0958845466375,0.0180823076516,-0.057848636061,1.21846967915e-07,0.0,0.0,0.0,1.21846967915e-07,0.0,0.0,0.0,1.21846967915e-07,-0.08825985,0.46091255,8.56120545,9e-08,0.0,0.0,0.0,9e-08,0.0,0.0,0.0,9e-08
1536703405308277724,1508,1536703405308063390,base_link,0.0391597683473,-0.0764923208334,-0.965034737494,0.247635604926,1.0,0.0,0.0,0.0,1.0,0.0,0.0,0.0,1.0,-0.00666264817119,-0.0755872502923,-0.0159949064255,1.21846967915e-07,0.0,0.0,0.0,1.21846967915e-07,0.0,0.0,0.0,1.21846967915e-07,0.02941995,0.7060788,10.2969825,9e-08,0.0,0.0,0.0,9e-08,0.0,0.0,0.0,9e-08
1536703405723870669,1509,1536703405723431666,base_link,0.0286764858999,-0.0607636369673,-0.968883032968,0.23822491055,1.0,0.0,0.0,0.0,1.0,0.0,0.0,0.0,1.0,-0.0809177458286,-0.0146600734442,-0.0616889819503,1.21846967915e-07,0.0,0.0,0.0,1.21846967915e-07,0.0,0.0,0.0,1.21846967915e-07,0.0588399,0.57859235,10.16949605,9e-08,0.0,0.0,0.0,9e-08,0.0,0.0,0.0,9e-08
1536703406068763121,1510,1536703406068523764,base_link,0.023911930196,-0.0561323186539,-0.971225412216,0.230214206907,1.0,0.0,0.0,0.0,1.0,0.0,0.0,0.0,1.0,-0.0194212757051,-0.00668812962249,-0.0237069576979,1.21846967915e-07,0.0,0.0,0.0,1.21846967915e-07,0.0,0.0,0.0,1.21846967915e-07,0.04903325,0.32361945,10.52253545,9e-08,0.0,0.0,0.0,9e-08,0.0,0.0,0.0,9e-08
1536703406524136460,1511,1536703406523870863,base_link,0.00925591604387,-0.0412139235275,-0.972260220076,0.23005609095,1.0,0.0,0.0,0.0,1.0,0.0,0.0,0.0,1.0,-0.0563235878944,0.0414377599955,-0.0178083665669,1.21846967915e-07,0.0,0.0,0.0,1.21846967915e-07,0.0,0.0,0.0,1.21846967915e-07,0.08825985,0.588399,11.60126695,9e-08,0.0,0.0,0.0,9e-08,0.0,0.0,0.0,9e-08
1536703406848712321,1512,1536703406847147218,base_link,0.00821841587371,-0.0180198041325,-0.973892406943,0.226144475939,1.0,0.0,0.0,0.0,1.0,0.0,0.0,0.0,1.0,-0.146655872464,0.0300768204033,-0.0109537150711,1.21846967915e-07,0.0,0.0,0.0,1.21846967915e-07,0.0,0.0,0.0,1.21846967915e-07,0.00980665,0.0784532,9.81645665,9e-08,0.0,0.0,0.0,9e-08,0.0,0.0,0.0,9e-08
1536703407175377290,1513,1536703407174858800,base_link,0.0143780251089,-0.024127654089,-0.971626599537,0.234846502581,1.0,0.0,0.0,0.0,1.0,0.0,0.0,0.0,1.0,0.142200961709,-0.0477199181914,0.118942394853,1.21846967915e-07,0.0,0.0,0.0,1.21846967915e-07,0.0,0.0,0.0,1.21846967915e-07,-0.00980665,-0.0980665,10.20872265,9e-08,0.0,0.0,0.0,9e-08,0.0,0.0,0.0,9e-08
1536703407604263300,1514,1536703407601836318,base_link,0.00319659469346,-0.0199914323778,-0.966198987993,0.257001245161,1.0,0.0,0.0,0.0,1.0,0.0,0.0,0.0,1.0,-0.0130595620722,-0.0187724791467,0.0762467235327,1.21846967915e-07,0.0,0.0,0.0,1.21846967915e-07,0.0,0.0,0.0,1.21846967915e-07,-0.02941995,0.51975245,10.7284751,9e-08,0.0,0.0,0.0,9e-08,0.0,0.0,0.0,9e-08
1536703407890565638,1515,1536703407889229141,base_link,0.00130319602024,-0.00921771995734,-0.96484708913,0.262646968223,1.0,0.0,0.0,0.0,1.0,0.0,0.0,0.0,1.0,-0.115404143929,-0.0467750802636,0.0130759393796,1.21846967915e-07,0.0,0.0,0.0,1.21846967915e-07,0.0,0.0,0.0,1.21846967915e-07,-0.0392266,0.48052585,9.95374975,9e-08,0.0,0.0,0.0,9e-08,0.0,0.0,0.0,9e-08
1536703408200654323,1516,1536703408200375158,base_link,-0.0060600944365,-0.0139564787327,-0.96451181779,0.263600920521,1.0,0.0,0.0,0.0,1.0,0.0,0.0,0.0,1.0,0.114038996398,-0.0677489414811,-0.00514845270663,1.21846967915e-07,0.0,0.0,0.0,1.21846967915e-07,0.0,0.0,0.0,1.21846967915e-07,0.0784532,0.48052585,11.7875933,9e-08,0.0,0.0,0.0,9e-08,0.0,0.0,0.0,9e-08
1536703408624648715,1517,1536703408624415469,base_link,-0.00226919267049,-0.0462261382105,-0.963535323915,0.263548239378,1.0,0.0,0.0,0.0,1.0,0.0,0.0,0.0,1.0,-0.00748182274401,-0.0222135186195,0.0222789086401,1.21846967915e-07,0.0,0.0,0.0,1.21846967915e-07,0.0,0.0,0.0,1.21846967915e-07,0.0196133,0.51975245,10.50292215,9e-08,0.0,0.0,0.0,9e-08,0.0,0.0,0.0,9e-08
1536703409026020562,1518,1536703409025436889,base_link,0.0070629718283,-0.0450922904813,-0.962404428193,0.267758317073,1.0,0.0,0.0,0.0,1.0,0.0,0.0,0.0,1.0,-0.0223087519407,0.206868290901,0.0353136844933,1.21846967915e-07,0.0,0.0,0.0,1.21846967915e-07,0.0,0.0,0.0,1.21846967915e-07,-0.0196133,0.5099458,8.69849855,9e-08,0.0,0.0,0.0,9e-08,0.0,0.0,0.0,9e-08
1536703409429009081,1519,1536703409428488190,base_link,0.0371335148175,-0.0219853803974,-0.96507352432,0.258400537504,1.0,0.0,0.0,0.0,1.0,0.0,0.0,0.0,1.0,-0.135909765959,0.100222215056,-0.121348775923,1.21846967915e-07,0.0,0.0,0.0,1.21846967915e-07,0.0,0.0,0.0,1.21846967915e-07,-0.1372931,0.5687857,5.6682437,9e-08,0.0,0.0,0.0,9e-08,0.0,0.0,0.0,9e-08
1536703409652725178,1520,1536703409652334431,base_link,0.0461833537222,-0.0253573933954,-0.968356609639,0.243945848514,1.0,0.0,0.0,0.0,1.0,0.0,0.0,0.0,1.0,0.19087061286,0.039810385555,-0.117576763034,1.21846967915e-07,0.0,0.0,0.0,1.21846967915e-07,0.0,0.0,0.0,1.21846967915e-07,-0.196133,0.196133,7.01175475,9e-08,0.0,0.0,0.0,9e-08,0.0,0.0,0.0,9e-08
1536703410044867697,1521,1536703410044555828,base_link,0.0516400478237,-0.0567049541371,-0.969058609916,0.234613009409,1.0,0.0,0.0,0.0,1.0,0.0,0.0,0.0,1.0,0.120903007686,-0.0171473510563,0.039995893836,1.21846967915e-07,0.0,0.0,0.0,1.21846967915e-07,0.0,0.0,0.0,1.21846967915e-07,-0.0588399,0.18632635,9.77723005,9e-08,0.0,0.0,0.0,9e-08,0.0,0.0,0.0,9e-08
1536703410409240140,1522,1536703410408847729,base_link,0.0371439407693,-0.0611135492842,-0.967151431593,0.243933536287,1.0,0.0,0.0,0.0,1.0,0.0,0.0,0.0,1.0,-0.0896484032273,-0.145788937807,0.0160764716566,1.21846967915e-07,0.0,0.0,0.0,1.21846967915e-07,0.0,0.0,0.0,1.21846967915e-07,0.1372931,0.6276256,11.79739995,9e-08,0.0,0.0,0.0,9e-08,0.0,0.0,0.0,9e-08
1536703410836477461,1523,1536703410835130116,base_link,0.028551099044,-0.0422074327834,-0.97155864539,0.23125130471,1.0,0.0,0.0,0.0,1.0,0.0,0.0,0.0,1.0,-0.11270724982,-0.0429224669933,-0.0910428389907,1.21846967915e-07,0.0,0.0,0.0,1.21846967915e-07,0.0,0.0,0.0,1.21846967915e-07,0.0392266,0.48052585,9.7674234,9e-08,0.0,0.0,0.0,9e-08,0.0,0.0,0.0,9e-08
1536703411279826378,1524,1536703411279458670,base_link,0.0210853265662,-0.0293020203566,-0.97350895626,0.225781116768,1.0,0.0,0.0,0.0,1.0,0.0,0.0,0.0,1.0,-0.0961040332913,-0.0538982786238,0.0269094184041,1.21846967915e-07,0.0,0.0,0.0,1.21846967915e-07,0.0,0.0,0.0,1.21846967915e-07,0.14709975,0.6864655,10.002783,9e-08,0.0,0.0,0.0,9e-08,0.0,0.0,0.0,9e-08
1536703411668128815,1525,1536703411667639573,base_link,0.0169083157847,-0.0132245649534,-0.975949160915,0.216938827895,1.0,0.0,0.0,0.0,1.0,0.0,0.0,0.0,1.0,0.0300548579544,0.033049736172,-0.0764017179608,1.21846967915e-07,0.0,0.0,0.0,1.21846967915e-07,0.0,0.0,0.0,1.21846967915e-07,0.10787315,0.34323275,9.89490985,9e-08,0.0,0.0,0.0,9e-08,0.0,0.0,0.0,9e-08
1536703412010414002,1526,1536703412010151157,base_link,0.00962112573867,-0.0160220454469,-0.976725432617,0.213677694852,1.0,0.0,0.0,0.0,1.0,0.0,0.0,0.0,1.0,0.0152225252241,-0.0367967523634,0.0339412167668,1.21846967915e-07,0.0,0.0,0.0,1.21846967915e-07,0.0,0.0,0.0,1.21846967915e-07,0.2549729,0.2941995,10.71866845,9e-08,0.0,0.0,0.0,9e-08,0.0,0.0,0.0,9e-08
1536703412438006510,1527,1536703412437373813,base_link,0.00166754468833,-0.0268209424804,-0.973778885578,0.225903825427,1.0,0.0,0.0,0.0,1.0,0.0,0.0,0.0,1.0,0.0162326637655,-0.116080805659,0.080158084631,1.21846967915e-07,0.0,0.0,0.0,1.21846967915e-07,0.0,0.0,0.0,1.21846967915e-07,0.3138128,0.24516625,11.09132115,9e-08,0.0,0.0,0.0,9e-08,0.0,0.0,0.0,9e-08
1536703412844022300,1528,1536703412843443459,base_link,-0.00560375356902,-0.0348180256038,-0.970205469944,0.239703252228,1.0,0.0,0.0,0.0,1.0,0.0,0.0,0.0,1.0,0.118616878986,0.00804815161973,0.0364443100989,1.21846967915e-07,0.0,0.0,0.0,1.21846967915e-07,0.0,0.0,0.0,1.21846967915e-07,0.24516625,0.57859235,10.36562905,9e-08,0.0,0.0,0.0,9e-08,0.0,0.0,0.0,9e-08
1536703413215674131,1529,1536703413215217720,base_link,0.00493393453449,-0.0864644044452,-0.968997482022,0.231394561064,1.0,0.0,0.0,0.0,1.0,0.0,0.0,0.0,1.0,0.402431488037,-0.00515976082534,-0.107083536685,1.21846967915e-07,0.0,0.0,0.0,1.21846967915e-07,0.0,0.0,0.0,1.21846967915e-07,0.22555295,0.61781895,10.3754357,9e-08,0.0,0.0,0.0,9e-08,0.0,0.0,0.0,9e-08
1536703413432548820,1530,1536703413432264152,base_link,0.0158444649178,-0.129623073445,-0.967130318506,0.218187439574,1.0,0.0,0.0,0.0,1.0,0.0,0.0,0.0,1.0,0.410648345947,-0.0101637449116,-0.135394945741,1.21846967915e-07,0.0,0.0,0.0,1.21846967915e-07,0.0,0.0,0.0,1.21846967915e-07,0.22555295,0.6080123,10.07142955,9e-08,0.0,0.0,0.0,9e-08,0.0,0.0,0.0,9e-08
1536703413799485262,1531,1536703413799253169,base_link,0.0367748107804,-0.200273838036,-0.960010811942,0.192138606338,1.0,0.0,0.0,0.0,1.0,0.0,0.0,0.0,1.0,0.393858581781,0.0732724294066,-0.140598624945,1.21846967915e-07,0.0,0.0,0.0,1.21846967915e-07,0.0,0.0,0.0,1.21846967915e-07,0.22555295,0.4903325,9.1594111,9e-08,0.0,0.0,0.0,9e-08,0.0,0.0,0.0,9e-08
1536703414184498275,1532,1536703414184226918,base_link,0.0480346855705,-0.262260254725,-0.951766546613,0.151831052561,1.0,0.0,0.0,0.0,1.0,0.0,0.0,0.0,1.0,0.273953139782,-0.127010285854,-0.199711754918,1.21846967915e-07,0.0,0.0,0.0,1.21846967915e-07,0.0,0.0,0.0,1.21846967915e-07,0.2549729,0.65704555,9.81645665,9e-08,0.0,0.0,0.0,9e-08,0.0,0.0,0.0,9e-08
1536703414466764668,1533,1536703414464932849,base_link,0.0457265951054,-0.295063874575,-0.947396519193,0.115265883254,1.0,0.0,0.0,0.0,1.0,0.0,0.0,0.0,1.0,0.231961101294,-0.180692955852,-0.265681505203,1.21846967915e-07,0.0,0.0,0.0,1.21846967915e-07,0.0,0.0,0.0,1.21846967915e-07,0.3530394,0.71588545,9.7870367,9e-08,0.0,0.0,0.0,9e-08,0.0,0.0,0.0,9e-08
1536703414903711684,1534,1536703414903425160,base_link,0.0239588754545,-0.332593170313,-0.941569132991,0.0474902426499,1.0,0.0,0.0,0.0,1.0,0.0,0.0,0.0,1.0,-0.00134830735624,-0.243761062622,-0.261302649975,1.21846967915e-07,0.0,0.0,0.0,1.21846967915e-07,0.0,0.0,0.0,1.21846967915e-07,0.69627215,0.97085835,12.4544455,9e-08,0.0,0.0,0.0,9e-08,0.0,0.0,0.0,9e-08
1536703415220385880,1535,1536703415219977852,base_link,-0.00779747515172,-0.339278414933,-0.940498106259,-0.0171075615988,1.0,0.0,0.0,0.0,1.0,0.0,0.0,0.0,1.0,0.117060557008,-0.268195182085,-0.294908225536,1.21846967915e-07,0.0,0.0,0.0,1.21846967915e-07,0.0,0.0,0.0,1.21846967915e-07,0.9414384,0.93163175,13.42530385,9e-08,0.0,0.0,0.0,9e-08,0.0,0.0,0.0,9e-08
1536703415691982299,1536,1536703415691196740,base_link,-0.0327134361639,-0.356820406902,-0.928283524577,-0.0994923429795,1.0,0.0,0.0,0.0,1.0,0.0,0.0,0.0,1.0,0.053454760462,-0.127399742603,-0.336743861437,1.21846967915e-07,0.0,0.0,0.0,1.21846967915e-07,0.0,0.0,0.0,1.21846967915e-07,0.93163175,0.91201845,11.26784085,9e-08,0.0,0.0,0.0,9e-08,0.0,0.0,0.0,9e-08
1536703416125926756,1537,1536703416125675974,base_link,-0.0662493560663,-0.353320299442,-0.915644346224,-0.179920037938,1.0,0.0,0.0,0.0,1.0,0.0,0.0,0.0,1.0,-0.0597079023719,-0.305000543594,-0.27841848135,1.21846967915e-07,0.0,0.0,0.0,1.21846967915e-07,0.0,0.0,0.0,1.21846967915e-07,1.0198916,1.0198916,12.8074849,9e-08,0.0,0.0,0.0,9e-08,0.0,0.0,0.0,9e-08
1536703416432857623,1538,1536703416432636890,base_link,-0.0832729603451,-0.342789281253,-0.90441366462,-0.239993845715,1.0,0.0,0.0,0.0,1.0,0.0,0.0,0.0,1.0,-0.0345873199403,-0.196314886212,-0.32452327013,1.21846967915e-07,0.0,0.0,0.0,1.21846967915e-07,0.0,0.0,0.0,1.21846967915e-07,1.04931155,0.980665,11.7287534,9e-08,0.0,0.0,0.0,9e-08,0.0,0.0,0.0,9e-08
1536703416923831487,1539,1536703416923586498,base_link,-0.124603526976,-0.332931630477,-0.874071221369,-0.331104198807,1.0,0.0,0.0,0.0,1.0,0.0,0.0,0.0,1.0,-0.0580466911197,-0.371483504772,-0.271363407373,1.21846967915e-07,0.0,0.0,0.0,1.21846967915e-07,0.0,0.0,0.0,1.21846967915e-07,1.04931155,1.01008495,13.11149105,9e-08,0.0,0.0,0.0,9e-08,0.0,0.0,0.0,9e-08
1536703417323196722,1540,1536703417322687608,base_link,-0.164268311873,-0.301018761256,-0.846404798862,-0.407434097187,1.0,0.0,0.0,0.0,1.0,0.0,0.0,0.0,1.0,-0.0896522849798,-0.261839151382,-0.301840692759,1.21846967915e-07,0.0,0.0,0.0,1.21846967915e-07,0.0,0.0,0.0,1.21846967915e-07,1.14737805,1.02969825,15.11204765,9e-08,0.0,0.0,0.0,9e-08,0.0,0.0,0.0,9e-08
1536703417643294821,1541,1536703417642562126,base_link,-0.187995519971,-0.271711981803,-0.81892269446,-0.469250363787,1.0,0.0,0.0,0.0,1.0,0.0,0.0,0.0,1.0,-0.0498450100422,-0.325981140137,-0.289254546165,1.21846967915e-07,0.0,0.0,0.0,1.21846967915e-07,0.0,0.0,0.0,1.21846967915e-07,1.01008495,0.77472535,13.75872995,9e-08,0.0,0.0,0.0,9e-08,0.0,0.0,0.0,9e-08
1536703417890155996,1542,1536703417886953058,base_link,-0.211491211552,-0.251058275162,-0.796316902721,-0.508055705952,1.0,0.0,0.0,0.0,1.0,0.0,0.0,0.0,1.0,-0.0833186507225,-0.35961034894,-0.235258430243,1.21846967915e-07,0.0,0.0,0.0,1.21846967915e-07,0.0,0.0,0.0,1.21846967915e-07,0.87279185,0.71588545,13.07226445,9e-08,0.0,0.0,0.0,9e-08,0.0,0.0,0.0,9e-08
1536703418331263153,1543,1536703418329362824,base_link,-0.217088906379,-0.193667782562,-0.765090510084,-0.574457751365,1.0,0.0,0.0,0.0,1.0,0.0,0.0,0.0,1.0,-0.325423896313,-0.182164981961,-0.240962982178,1.21846967915e-07,0.0,0.0,0.0,1.21846967915e-07,0.0,0.0,0.0,1.21846967915e-07,0.5687857,0.67665885,12.73883835,9e-08,0.0,0.0,0.0,9e-08,0.0,0.0,0.0,9e-08
1536703418735867534,1544,1536703418735420467,base_link,-0.193383167516,-0.134263689456,-0.741462775551,-0.628338415734,1.0,0.0,0.0,0.0,1.0,0.0,0.0,0.0,1.0,-0.324385106564,-0.107906505466,-0.222183585167,1.21846967915e-07,0.0,0.0,0.0,1.21846967915e-07,0.0,0.0,0.0,1.21846967915e-07,0.30400615,0.73549875,11.42474725,9e-08,0.0,0.0,0.0,9e-08,0.0,0.0,0.0,9e-08
1536703419117797452,1545,1536703419116524731,base_link,-0.152559845531,-0.0791539622881,-0.721774387038,-0.670449012231,1.0,0.0,0.0,0.0,1.0,0.0,0.0,0.0,1.0,-0.432869851589,-0.0159918982536,-0.168145373464,1.21846967915e-07,0.0,0.0,0.0,1.21846967915e-07,0.0,0.0,0.0,1.21846967915e-07,0.0980665,0.71588545,9.99297635,9e-08,0.0,0.0,0.0,9e-08,0.0,0.0,0.0,9e-08
1536703419590289703,1546,1536703419589987114,base_link,-0.0835468649839,-0.0427787672553,-0.701411905686,-0.706548821374,1.0,0.0,0.0,0.0,1.0,0.0,0.0,0.0,1.0,-0.256845355034,0.135143861175,-0.106973707676,1.21846967915e-07,0.0,0.0,0.0,1.21846967915e-07,0.0,0.0,0.0,1.21846967915e-07,-0.14709975,0.16671305,7.77667345,9e-08,0.0,0.0,0.0,9e-08,0.0,0.0,0.0,9e-08
1536703420000342131,1547,1536703419999968823,base_link,-0.0313732602016,-0.0424859547796,-0.698732483213,-0.713430850954,1.0,0.0,0.0,0.0,1.0,0.0,0.0,0.0,1.0,-0.113867767155,0.109365709126,0.00435915682465,1.21846967915e-07,0.0,0.0,0.0,1.21846967915e-07,0.0,0.0,0.0,1.21846967915e-07,-0.2353596,0.34323275,7.1392412,9e-08,0.0,0.0,0.0,9e-08,0.0,0.0,0.0,9e-08
1536703420427715997,1548,1536703420427448576,base_link,0.00352321637224,-0.0321085458538,-0.699107716796,-0.714286377124,1.0,0.0,0.0,0.0,1.0,0.0,0.0,0.0,1.0,-0.0406349226832,0.0302541218698,-0.0352155715227,1.21846967915e-07,0.0,0.0,0.0,1.21846967915e-07,0.0,0.0,0.0,1.21846967915e-07,-0.3726527,0.44129925,7.54131385,9e-08,0.0,0.0,0.0,9e-08,0.0,0.0,0.0,9e-08
1536703420826743552,1549,1536703420824454364,base_link,0.0156766070981,-0.0148767104436,-0.699854528552,-0.713958378578,1.0,0.0,0.0,0.0,1.0,0.0,0.0,0.0,1.0,-0.142835125327,-0.0680935755372,0.0484628640115,1.21846967915e-07,0.0,0.0,0.0,1.21846967915e-07,0.0,0.0,0.0,1.21846967915e-07,-0.18632635,0.2353596,10.1596894,9e-08,0.0,0.0,0.0,9e-08,0.0,0.0,0.0,9e-08
1536703421147309902,1550,1536703421147061105,base_link,0.0226249950787,-0.00922095621841,-0.709147816096,-0.704636401622,1.0,0.0,0.0,0.0,1.0,0.0,0.0,0.0,1.0,-0.0346280559897,0.00480325054377,0.0700458288193,1.21846967915e-07,0.0,0.0,0.0,1.21846967915e-07,0.0,0.0,0.0,1.21846967915e-07,-0.1372931,0.36284605,10.3165958,9e-08,0.0,0.0,0.0,9e-08,0.0,0.0,0.0,9e-08
1536703421533192741,1551,1536703421531888853,base_link,0.0462839829437,-0.0111675026217,-0.710958195433,-0.701620641198,1.0,0.0,0.0,0.0,1.0,0.0,0.0,0.0,1.0,0.0774492770433,0.142596632242,-0.0517972819507,1.21846967915e-07,0.0,0.0,0.0,1.21846967915e-07,0.0,0.0,0.0,1.21846967915e-07,-0.0588399,0.4707192,8.95347145,9e-08,0.0,0.0,0.0,9e-08,0.0,0.0,0.0,9e-08
1536703421942221183,1552,1536703421940033402,base_link,0.0354286427221,-0.0384468690428,-0.708364087711,-0.703908352541,1.0,0.0,0.0,0.0,1.0,0.0,0.0,0.0,1.0,0.13471403718,-0.0205544549972,0.060155685991,1.21846967915e-07,0.0,0.0,0.0,1.21846967915e-07,0.0,0.0,0.0,1.21846967915e-07,-0.18632635,0.1372931,9.3751574,9e-08,0.0,0.0,0.0,9e-08,0.0,0.0,0.0,9e-08
1536703422253115859,1553,1536703422252551002,base_link,0.0184754685177,-0.0528530492902,-0.716903797749,-0.694920252271,1.0,0.0,0.0,0.0,1.0,0.0,0.0,0.0,1.0,0.0564648211002,-0.0504174456,0.0830865055323,1.21846967915e-07,0.0,0.0,0.0,1.21846967915e-07,0.0,0.0,0.0,1.21846967915e-07,-0.1569064,0.3726527,9.2967042,9e-08,0.0,0.0,0.0,9e-08,0.0,0.0,0.0,9e-08
1536703422749608864,1554,1536703422745959917,base_link,-0.0102719878797,-0.0406798782665,-0.71620104761,-0.696631676836,1.0,0.0,0.0,0.0,1.0,0.0,0.0,0.0,1.0,0.186171710491,-0.0595664381981,-0.0369132943451,1.21846967915e-07,0.0,0.0,0.0,1.21846967915e-07,0.0,0.0,0.0,1.21846967915e-07,0.00980665,0.34323275,10.77750835,9e-08,0.0,0.0,0.0,9e-08,0.0,0.0,0.0,9e-08
1536703423093565001,1555,1536703423093125454,base_link,-0.030283362884,-0.0415690954546,-0.711972110911,-0.700321812826,1.0,0.0,0.0,0.0,1.0,0.0,0.0,0.0,1.0,0.035817541182,-0.07425198704,-0.0308819320053,1.21846967915e-07,0.0,0.0,0.0,1.21846967915e-07,0.0,0.0,0.0,1.21846967915e-07,0.0784532,0.38245935,11.38552065,9e-08,0.0,0.0,0.0,9e-08,0.0,0.0,0.0,9e-08
1536703423594147243,1556,1536703423593820719,base_link,-0.0468214059857,-0.0491699095909,-0.709874820355,-0.701047655554,1.0,0.0,0.0,0.0,1.0,0.0,0.0,0.0,1.0,0.0147076398134,0.0638724789023,-0.0199298877269,1.21846967915e-07,0.0,0.0,0.0,1.21846967915e-07,0.0,0.0,0.0,1.21846967915e-07,0.0,0.7256921,10.13026945,9e-08,0.0,0.0,0.0,9e-08,0.0,0.0,0.0,9e-08
1536703423933117429,1557,1536703423923662124,base_link,-0.0394761128569,-0.0619772673889,-0.702305906141,-0.708072643901,1.0,0.0,0.0,0.0,1.0,0.0,0.0,0.0,1.0,0.0476972274482,0.0372494161129,-0.102035902441,1.21846967915e-07,0.0,0.0,0.0,1.21846967915e-07,0.0,0.0,0.0,1.21846967915e-07,-0.0392266,0.50013915,9.2378643,9e-08,0.0,0.0,0.0,9e-08,0.0,0.0,0.0,9e-08
1536703424249863035,1558,1536703424249373089,base_link,-0.0545188636273,-0.0742714556977,-0.69201276068,-0.715981692108,1.0,0.0,0.0,0.0,1.0,0.0,0.0,0.0,1.0,0.154386594892,-0.0553337708116,-0.0568010248244,1.21846967915e-07,0.0,0.0,0.0,1.21846967915e-07,0.0,0.0,0.0,1.21846967915e-07,0.0,0.44129925,9.414384,9e-08,0.0,0.0,0.0,9e-08,0.0,0.0,0.0,9e-08
1536703424534187826,1559,1536703424533779959,base_link,-0.0652046939447,-0.0836637437113,-0.68878513894,-0.717163689998,1.0,0.0,0.0,0.0,1.0,0.0,0.0,0.0,1.0,0.0863957703114,-0.0431162007153,0.00033742049709,1.21846967915e-07,0.0,0.0,0.0,1.21846967915e-07,0.0,0.0,0.0,1.21846967915e-07,0.02941995,0.20593965,9.3555441,9e-08,0.0,0.0,0.0,9e-08,0.0,0.0,0.0,9e-08
1536703424883980206,1560,1536703424883682866,base_link,-0.0670381142706,-0.0877169573912,-0.687483908117,-0.717758666058,1.0,0.0,0.0,0.0,1.0,0.0,0.0,0.0,1.0,-0.0023789294064,0.0272355433553,-0.0731091573834,1.21846967915e-07,0.0,0.0,0.0,1.21846967915e-07,0.0,0.0,0.0,1.21846967915e-07,0.10787315,0.81395195,9.1790244,9e-08,0.0,0.0,0.0,9e-08,0.0,0.0,0.0,9e-08
1536703425294322636,1561,1536703425294034256,base_link,-0.0685424167995,-0.102796424292,-0.657653103305,-0.743119928386,1.0,0.0,0.0,0.0,1.0,0.0,0.0,0.0,1.0,0.169173121452,-0.00298510398716,-0.268936723471,1.21846967915e-07,0.0,0.0,0.0,1.21846967915e-07,0.0,0.0,0.0,1.21846967915e-07,0.02941995,0.0980665,8.5121722,9e-08,0.0,0.0,0.0,9e-08,0.0,0.0,0.0,9e-08
1536703425589782837,1562,1536703425589500409,base_link,-0.100276523539,-0.128899070993,-0.634016057835,-0.755879148232,1.0,0.0,0.0,0.0,1.0,0.0,0.0,0.0,1.0,0.290427535772,-0.0522061400115,-0.069343008101,1.21846967915e-07,0.0,0.0,0.0,1.21846967915e-07,0.0,0.0,0.0,1.21846967915e-07,0.06864655,0.0784532,9.80665,9e-08,0.0,0.0,0.0,9e-08,0.0,0.0,0.0,9e-08
1536703425933682421,1563,1536703425930683580,base_link,-0.13933326025,-0.144863176179,-0.620558790991,-0.757962855092,1.0,0.0,0.0,0.0,1.0,0.0,0.0,0.0,1.0,0.139165252447,-0.0771015807986,-0.0934073254466,1.21846967915e-07,0.0,0.0,0.0,1.21846967915e-07,0.0,0.0,0.0,1.21846967915e-07,0.22555295,0.81395195,9.73800345,9e-08,0.0,0.0,0.0,9e-08,0.0,0.0,0.0,9e-08
1536703426435774246,1564,1536703426434978640,base_link,-0.16332592461,-0.153238310767,-0.568410790096,-0.791676598218,1.0,0.0,0.0,0.0,1.0,0.0,0.0,0.0,1.0,0.15909704566,-0.0743990540504,-0.297768414021,1.21846967915e-07,0.0,0.0,0.0,1.21846967915e-07,0.0,0.0,0.0,1.21846967915e-07,0.4903325,1.08853815,12.34657235,9e-08,0.0,0.0,0.0,9e-08,0.0,0.0,0.0,9e-08
1536703426892904369,1565,1536703426892537654,base_link,-0.207720023847,-0.137487075579,-0.52293104821,-0.815164286852,1.0,0.0,0.0,0.0,1.0,0.0,0.0,0.0,1.0,-0.0577726960182,-0.173477649689,-0.0817514881492,1.21846967915e-07,0.0,0.0,0.0,1.21846967915e-07,0.0,0.0,0.0,1.21846967915e-07,0.8237586,0.77472535,13.72931,9e-08,0.0,0.0,0.0,9e-08,0.0,0.0,0.0,9e-08
1536703427189628086,1566,1536703427189385369,base_link,-0.221162318436,-0.108802762131,-0.501096967111,-0.829548682965,1.0,0.0,0.0,0.0,1.0,0.0,0.0,0.0,1.0,0.136794447899,-0.290539205074,-0.121803484857,1.21846967915e-07,0.0,0.0,0.0,1.21846967915e-07,0.0,0.0,0.0,1.21846967915e-07,1.0198916,0.5491724,15.75928655,9e-08,0.0,0.0,0.0,9e-08,0.0,0.0,0.0,9e-08
1536703427624646574,1567,1536703427624283827,base_link,-0.249822280284,-0.111101962431,-0.458905032611,-0.845370541989,1.0,0.0,0.0,0.0,1.0,0.0,0.0,0.0,1.0,0.0636378973722,-0.0429366752505,-0.360865861177,1.21846967915e-07,0.0,0.0,0.0,1.21846967915e-07,0.0,0.0,0.0,1.21846967915e-07,0.6276256,1.176798,9.6497436,9e-08,0.0,0.0,0.0,9e-08,0.0,0.0,0.0,9e-08
1536703428109392854,1568,1536703428109133274,base_link,-0.264154824739,-0.111542137398,-0.380324438556,-0.879280331629,1.0,0.0,0.0,0.0,1.0,0.0,0.0,0.0,1.0,0.168314516544,-0.149203926325,-0.254409074783,1.21846967915e-07,0.0,0.0,0.0,1.21846967915e-07,0.0,0.0,0.0,1.21846967915e-07,0.61781895,0.20593965,10.6696352,9e-08,0.0,0.0,0.0,9e-08,0.0,0.0,0.0,9e-08
1536703428322516180,1569,1536703428322219064,base_link,-0.293595758376,-0.115214972045,-0.353290337533,-0.880745694447,1.0,0.0,0.0,0.0,1.0,0.0,0.0,0.0,1.0,0.19557903707,-0.241593569517,-0.189317822456,1.21846967915e-07,0.0,0.0,0.0,1.21846967915e-07,0.0,0.0,0.0,1.21846967915e-07,0.588399,0.71588545,9.9831697,9e-08,0.0,0.0,0.0,9e-08,0.0,0.0,0.0,9e-08
1536703428701957940,1570,1536703428700996577,base_link,-0.312221349364,-0.0904680790059,-0.300863831433,-0.896556919898,1.0,0.0,0.0,0.0,1.0,0.0,0.0,0.0,1.0,0.09794767946,-0.153683707118,-0.276801675558,1.21846967915e-07,0.0,0.0,0.0,1.21846967915e-07,0.0,0.0,0.0,1.21846967915e-07,0.91201845,0.71588545,12.944778,9e-08,0.0,0.0,0.0,9e-08,0.0,0.0,0.0,9e-08
1536703429076188624,1571,1536703429075901620,base_link,-0.34263942411,-0.0904073171243,-0.252201785176,-0.900454885938,1.0,0.0,0.0,0.0,1.0,0.0,0.0,0.0,1.0,0.043052457273,-0.190391421318,-0.203681409359,1.21846967915e-07,0.0,0.0,0.0,1.21846967915e-07,0.0,0.0,0.0,1.21846967915e-07,0.5687857,0.89240515,10.8461549,9e-08,0.0,0.0,0.0,9e-08,0.0,0.0,0.0,9e-08
1536703429448141994,1572,1536703429447796174,base_link,-0.347210278773,-0.0710558378477,-0.193363455364,-0.914880683123,1.0,0.0,0.0,0.0,1.0,0.0,0.0,0.0,1.0,-0.0142393428832,-0.166128382087,-0.35328990221,1.21846967915e-07,0.0,0.0,0.0,1.21846967915e-07,0.0,0.0,0.0,1.21846967915e-07,0.5295591,1.1179581,10.7480884,9e-08,0.0,0.0,0.0,9e-08,0.0,0.0,0.0,9e-08
1536703429913256760,1573,1536703429912569857,base_link,-0.357002739711,-0.0450991580381,-0.0941825166042,-0.928248222917,1.0,0.0,0.0,0.0,1.0,0.0,0.0,0.0,1.0,0.0298738535494,-0.222973570228,-0.26811093092,1.21846967915e-07,0.0,0.0,0.0,1.21846967915e-07,0.0,0.0,0.0,1.21846967915e-07,0.69627215,0.588399,12.93497135,9e-08,0.0,0.0,0.0,9e-08,0.0,0.0,0.0,9e-08
1536703430271633831,1574,1536703430271379594,base_link,-0.361299771732,-0.0202670273506,-0.0318725168529,-0.931684423621,1.0,0.0,0.0,0.0,1.0,0.0,0.0,0.0,1.0,-0.0482009090483,-0.352621912956,-0.26631590724,1.21846967915e-07,0.0,0.0,0.0,1.21846967915e-07,0.0,0.0,0.0,1.21846967915e-07,0.6668522,0.9610517,12.44463885,9e-08,0.0,0.0,0.0,9e-08,0.0,0.0,0.0,9e-08
1536703430620421196,1575,1536703430620182639,base_link,-0.345418553203,0.017648805123,0.0403307556412,-0.937415581762,1.0,0.0,0.0,0.0,1.0,0.0,0.0,0.0,1.0,-0.119173146784,-0.382530361414,-0.332210272551,1.21846967915e-07,0.0,0.0,0.0,1.21846967915e-07,0.0,0.0,0.0,1.21846967915e-07,0.7649187,1.01008495,13.3566573,9e-08,0.0,0.0,0.0,9e-08,0.0,0.0,0.0,9e-08
1536703430939237248,1576,1536703430938099823,base_link,-0.329059726695,0.056611020362,0.102206411496,-0.937053220522,1.0,0.0,0.0,0.0,1.0,0.0,0.0,0.0,1.0,-0.147737130523,-0.31814673543,-0.234311297536,1.21846967915e-07,0.0,0.0,0.0,1.21846967915e-07,0.0,0.0,0.0,1.21846967915e-07,0.9022118,0.6472389,15.5729602,9e-08,0.0,0.0,0.0,9e-08,0.0,0.0,0.0,9e-08
1536703431324829082,1577,1536703431321170091,base_link,-0.277822849888,0.0742034214038,0.161308210126,-0.94408049322,1.0,0.0,0.0,0.0,1.0,0.0,0.0,0.0,1.0,-0.337503761053,-0.187411651015,-0.268374919891,1.21846967915e-07,0.0,0.0,0.0,1.21846967915e-07,0.0,0.0,0.0,1.21846967915e-07,0.5491724,1.0002783,12.17005265,9e-08,0.0,0.0,0.0,9e-08,0.0,0.0,0.0,9e-08
1536703431715420747,1578,1536703431715215246,base_link,-0.206024733582,0.0853762553063,0.231805019275,-0.946853281782,1.0,0.0,0.0,0.0,1.0,0.0,0.0,0.0,1.0,-0.384393632412,-0.147299572825,-0.263596683741,1.21846967915e-07,0.0,0.0,0.0,1.21846967915e-07,0.0,0.0,0.0,1.21846967915e-07,0.38245935,0.55897905,13.1605243,9e-08,0.0,0.0,0.0,9e-08,0.0,0.0,0.0,9e-08
1536703432040168970,1579,1536703432039637617,base_link,-0.139143567642,0.0877638838475,0.269905835859,-0.948729365017,1.0,0.0,0.0,0.0,1.0,0.0,0.0,0.0,1.0,-0.462107628584,-0.105731613934,-0.133567899466,1.21846967915e-07,0.0,0.0,0.0,1.21846967915e-07,0.0,0.0,0.0,1.21846967915e-07,0.0784532,0.9022118,12.83690485,9e-08,0.0,0.0,0.0,9e-08,0.0,0.0,0.0,9e-08
1536703432446847321,1580,1536703432446216642,base_link,-0.0571190052223,0.0652557240913,0.308192223386,-0.947363004956,1.0,0.0,0.0,0.0,1.0,0.0,0.0,0.0,1.0,-0.314493268728,-0.0716962963343,-0.135342344642,1.21846967915e-07,0.0,0.0,0.0,1.21846967915e-07,0.0,0.0,0.0,1.21846967915e-07,0.04903325,0.32361945,11.6306869,9e-08,0.0,0.0,0.0,9e-08,0.0,0.0,0.0,9e-08
1536703432927422275,1581,1536703432926086037,base_link,0.00126331669183,0.0324830405804,0.320971013752,-0.946530963274,1.0,0.0,0.0,0.0,1.0,0.0,0.0,0.0,1.0,-0.38371822238,0.0572184473276,0.0501355901361,1.21846967915e-07,0.0,0.0,0.0,1.21846967915e-07,0.0,0.0,0.0,1.21846967915e-07,-0.1176798,0.12748645,8.4925589,9e-08,0.0,0.0,0.0,9e-08,0.0,0.0,0.0,9e-08
1536703433245812832,1582,1536703433245229864,base_link,0.0467518018597,-0.00420093133154,0.311176714991,-0.949192116089,1.0,0.0,0.0,0.0,1.0,0.0,0.0,0.0,1.0,-0.346730083227,0.159468665719,0.0650545433164,1.21846967915e-07,0.0,0.0,0.0,1.21846967915e-07,0.0,0.0,0.0,1.21846967915e-07,-0.2549729,0.24516625,7.4334407,9e-08,0.0,0.0,0.0,9e-08,0.0,0.0,0.0,9e-08
1536703433619329192,1583,1536703433619033420,base_link,0.0881943046738,-0.0318144867476,0.304737854985,-0.947810341152,1.0,0.0,0.0,0.0,1.0,0.0,0.0,0.0,1.0,-0.0683618485928,0.0379437208176,0.0268029030412,1.21846967915e-07,0.0,0.0,0.0,1.21846967915e-07,0.0,0.0,0.0,1.21846967915e-07,-0.20593965,0.0980665,8.44352565,9e-08,0.0,0.0,0.0,9e-08,0.0,0.0,0.0,9e-08
1536703434009847496,1584,1536703434009114290,base_link,0.0796479414702,-0.0342477121123,0.287318994993,-0.953903084569,1.0,0.0,0.0,0.0,1.0,0.0,0.0,0.0,1.0,0.185681939125,0.0227621328086,0.135944023728,1.21846967915e-07,0.0,0.0,0.0,1.21846967915e-07,0.0,0.0,0.0,1.21846967915e-07,-0.12748645,0.08825985,9.5516771,9e-08,0.0,0.0,0.0,9e-08,0.0,0.0,0.0,9e-08
1536703434444362052,1585,1536703434444009193,base_link,0.0527411330802,-0.0421992576446,0.252000090165,-0.965367054592,1.0,0.0,0.0,0.0,1.0,0.0,0.0,0.0,1.0,0.0257957242429,0.0676842406392,0.15110579133,1.21846967915e-07,0.0,0.0,0.0,1.21846967915e-07,0.0,0.0,0.0,1.21846967915e-07,-0.20593965,0.3334261,8.62004535,9e-08,0.0,0.0,0.0,9e-08,0.0,0.0,0.0,9e-08
1536703434769999701,1586,1536703434769196064,base_link,0.0436743618727,-0.0389559859147,0.238754776847,-0.969314777463,1.0,0.0,0.0,0.0,1.0,0.0,0.0,0.0,1.0,0.146354138851,-0.00839346460998,0.0718096792698,1.21846967915e-07,0.0,0.0,0.0,1.21846967915e-07,0.0,0.0,0.0,1.21846967915e-07,-0.1372931,0.42168595,9.83606995,9e-08,0.0,0.0,0.0,9e-08,0.0,0.0,0.0,9e-08
1536703435150952417,1587,1536703435150090669,base_link,0.0068396140935,-0.0462819212789,0.240382200953,-0.96955020546,1.0,0.0,0.0,0.0,1.0,0.0,0.0,0.0,1.0,0.365245044231,0.0205433554947,-0.0418849922717,1.21846967915e-07,0.0,0.0,0.0,1.21846967915e-07,0.0,0.0,0.0,1.21846967915e-07,-0.40207265,0.14709975,8.40429905,9e-08,0.0,0.0,0.0,9e-08,0.0,0.0,0.0,9e-08
1536703435597193134,1588,1536703435591960727,base_link,-0.0378301466922,-0.0310726076635,0.23309204983,-0.971221637609,1.0,0.0,0.0,0.0,1.0,0.0,0.0,0.0,1.0,-0.00635147094727,0.0305075235665,0.0529787354171,1.21846967915e-07,0.0,0.0,0.0,1.21846967915e-07,0.0,0.0,0.0,1.21846967915e-07,-0.28439285,0.42168595,10.18910935,9e-08,0.0,0.0,0.0,9e-08,0.0,0.0,0.0,9e-08
1536703436018270838,1589,1536703436018064249,base_link,-0.0279874434548,-0.046309764439,0.229968161576,-0.971692725808,1.0,0.0,0.0,0.0,1.0,0.0,0.0,0.0,1.0,0.0203013624996,0.0851806476712,-0.0726554393768,1.21846967915e-07,0.0,0.0,0.0,1.21846967915e-07,0.0,0.0,0.0,1.21846967915e-07,-0.392266,0.46091255,7.54131385,9e-08,0.0,0.0,0.0,9e-08,0.0,0.0,0.0,9e-08
1536703436317877550,1590,1536703436317421236,base_link,-0.0559871389543,-0.0452445596769,0.235283001669,-0.969257591777,1.0,0.0,0.0,0.0,1.0,0.0,0.0,0.0,1.0,0.174738943577,-0.00241283467039,0.0370904430747,1.21846967915e-07,0.0,0.0,0.0,1.21846967915e-07,0.0,0.0,0.0,1.21846967915e-07,-0.3726527,0.1372931,9.2378643,9e-08,0.0,0.0,0.0,9e-08,0.0,0.0,0.0,9e-08
1536703436706698701,1591,1536703436703500314,base_link,-0.0714316910412,-0.0344162169422,0.226293962697,-0.970826493238,1.0,0.0,0.0,0.0,1.0,0.0,0.0,0.0,1.0,-0.111803114414,-0.0652514323592,0.0400810651481,1.21846967915e-07,0.0,0.0,0.0,1.21846967915e-07,0.0,0.0,0.0,1.21846967915e-07,-0.1372931,0.48052585,10.1204628,9e-08,0.0,0.0,0.0,9e-08,0.0,0.0,0.0,9e-08
1536703437023063099,1592,1536703437022862173,base_link,-0.0446856640827,-0.0235139450144,0.226230695791,-0.972764081418,1.0,0.0,0.0,0.0,1.0,0.0,0.0,0.0,1.0,-0.218298956752,-0.0661108717322,-0.024530634284,1.21846967915e-07,0.0,0.0,0.0,1.21846967915e-07,0.0,0.0,0.0,1.21846967915e-07,-0.0196133,0.5491724,10.3754357,9e-08,0.0,0.0,0.0,9e-08,0.0,0.0,0.0,9e-08
1536703437424155687,1593,1536703437423969833,base_link,-0.0378006983086,-0.0176744450636,0.227277870835,-0.972935501782,1.0,0.0,0.0,0.0,1.0,0.0,0.0,0.0,1.0,0.032554898411,0.0586952790618,0.00510223722085,1.21846967915e-07,0.0,0.0,0.0,1.21846967915e-07,0.0,0.0,0.0,1.21846967915e-07,0.16671305,0.61781895,11.2776475,9e-08,0.0,0.0,0.0,9e-08,0.0,0.0,0.0,9e-08
1536703437943943092,1594,1536703437943717527,base_link,-0.0511727259604,-0.0170821371935,0.23253662173,-0.971090249287,1.0,0.0,0.0,0.0,1.0,0.0,0.0,0.0,1.0,0.0500516071916,-0.107244051993,-0.0463375523686,1.21846967915e-07,0.0,0.0,0.0,1.21846967915e-07,0.0,0.0,0.0,1.21846967915e-07,0.02941995,0.69627215,11.4149406,9e-08,0.0,0.0,0.0,9e-08,0.0,0.0,0.0,9e-08
1536703438378166218,1595,1536703438377742640,base_link,-0.0459097633158,0.00350851032729,0.244296440248,-0.968606851757,1.0,0.0,0.0,0.0,1.0,0.0,0.0,0.0,1.0,-0.0905110239983,-0.12774476409,-0.0152457188815,1.21846967915e-07,0.0,0.0,0.0,1.21846967915e-07,0.0,0.0,0.0,1.21846967915e-07,0.14709975,0.4118793,11.6503002,9e-08,0.0,0.0,0.0,9e-08,0.0,0.0,0.0,9e-08
1536703438862749300,1596,1536703438862174780,base_link,-0.0162987992927,0.0250770586485,0.241439893249,-0.969954776378,1.0,0.0,0.0,0.0,1.0,0.0,0.0,0.0,1.0,-0.150172576308,-0.0362582989037,0.0353390090168,1.21846967915e-07,0.0,0.0,0.0,1.21846967915e-07,0.0,0.0,0.0,1.21846967915e-07,0.196133,0.5295591,12.54270535,9e-08,0.0,0.0,0.0,9e-08,0.0,0.0,0.0,9e-08
1536703439181669038,1597,1536703439181098742,base_link,0.00329804030913,0.0285872304951,0.236397882441,-0.97123011401,1.0,0.0,0.0,0.0,1.0,0.0,0.0,0.0,1.0,-0.0991345793009,-0.0471071116626,-0.00393722159788,1.21846967915e-07,0.0,0.0,0.0,1.21846967915e-07,0.0,0.0,0.0,1.21846967915e-07,0.0980665,0.2745862,9.50264385,9e-08,0.0,0.0,0.0,9e-08,0.0,0.0,0.0,9e-08
1536703439600498573,1598,1536703439595866511,base_link,0.0101352784999,0.0190092043781,0.229973799973,-0.972958363757,1.0,0.0,0.0,0.0,1.0,0.0,0.0,0.0,1.0,0.0353909172118,-0.00616050325334,0.0775761008263,1.21846967915e-07,0.0,0.0,0.0,1.21846967915e-07,0.0,0.0,0.0,1.21846967915e-07,0.0588399,0.196133,9.81645665,9e-08,0.0,0.0,0.0,9e-08,0.0,0.0,0.0,9e-08
1536703440006653056,1599,1536703440004488735,base_link,0.00696278292625,0.00667082153404,0.208944849027,-0.97787988519,1.0,0.0,0.0,0.0,1.0,0.0,0.0,0.0,1.0,-0.010800153017,0.104110009968,0.0887238830328,1.21846967915e-07,0.0,0.0,0.0,1.21846967915e-07,0.0,0.0,0.0,1.21846967915e-07,0.0980665,0.42168595,8.50236555,9e-08,0.0,0.0,0.0,9e-08,0.0,0.0,0.0,9e-08
1536703440511553320,1600,1536703440511301995,base_link,-0.00578325071517,-0.0121717360371,0.194255647425,-0.980858372191,1.0,0.0,0.0,0.0,1.0,0.0,0.0,0.0,1.0,0.00631028506905,0.076410330832,0.0710566341877,1.21846967915e-07,0.0,0.0,0.0,1.21846967915e-07,0.0,0.0,0.0,1.21846967915e-07,0.10787315,0.42168595,7.8257067,9e-08,0.0,0.0,0.0,9e-08,0.0,0.0,0.0,9e-08
1536703440880661158,1601,1536703440880309803,base_link,-0.0223357146067,-0.0125168867172,0.194227147881,-0.980622383196,1.0,0.0,0.0,0.0,1.0,0.0,0.0,0.0,1.0,0.0964890196919,0.0388512834907,-0.0355857312679,1.21846967915e-07,0.0,0.0,0.0,1.21846967915e-07,0.0,0.0,0.0,1.21846967915e-07,0.1372931,0.4314926,9.44380395,9e-08,0.0,0.0,0.0,9e-08,0.0,0.0,0.0,9e-08
1536703441266807031,1602,1536703441266467900,base_link,-0.0502947622815,-0.00870623513715,0.197150032942,-0.979043667498,1.0,0.0,0.0,0.0,1.0,0.0,0.0,0.0,1.0,0.117215573788,-0.0133799854666,0.00614222045988,1.21846967915e-07,0.0,0.0,0.0,1.21846967915e-07,0.0,0.0,0.0,1.21846967915e-07,0.1569064,0.4903325,10.0812362,9e-08,0.0,0.0,0.0,9e-08,0.0,0.0,0.0,9e-08
1536703441719032356,1603,1536703441718600267,base_link,-0.0672520494535,-0.00756773420819,0.195552530432,-0.97835530309,1.0,0.0,0.0,0.0,1.0,0.0,0.0,0.0,1.0,0.0797941237688,-0.0731029734015,0.0434225015342,1.21846967915e-07,0.0,0.0,0.0,1.21846967915e-07,0.0,0.0,0.0,1.21846967915e-07,0.18632635,0.2745862,9.95374975,9e-08,0.0,0.0,0.0,9e-08,0.0,0.0,0.0,9e-08
1536703442027329641,1604,1536703442026954318,base_link,-0.0734424311996,-0.00551076177782,0.19641350751,-0.977751284771,1.0,0.0,0.0,0.0,1.0,0.0,0.0,0.0,1.0,-0.0487229153514,0.0019945059903,-0.0832222402096,1.21846967915e-07,0.0,0.0,0.0,1.21846967915e-07,0.0,0.0,0.0,1.21846967915e-07,0.18632635,0.9414384,10.2773692,9e-08,0.0,0.0,0.0,9e-08,0.0,0.0,0.0,9e-08
1536703442489650520,1605,1536703442489219198,base_link,-0.0759962991032,0.0086576627768,0.221316073891,-0.972197923694,1.0,0.0,0.0,0.0,1.0,0.0,0.0,0.0,1.0,0.087892472744,-0.116227686405,-0.0607427507639,1.21846967915e-07,0.0,0.0,0.0,1.21846967915e-07,0.0,0.0,0.0,1.21846967915e-07,0.30400615,0.34323275,11.60126695,9e-08,0.0,0.0,0.0,9e-08,0.0,0.0,0.0,9e-08
1536703442961748793,1606,1536703442960986852,base_link,-0.0741797872716,0.029607263467,0.221758357016,-0.971825087248,1.0,0.0,0.0,0.0,1.0,0.0,0.0,0.0,1.0,0.0778651237488,-0.0526426210999,-0.00601992104203,1.21846967915e-07,0.0,0.0,0.0,1.21846967915e-07,0.0,0.0,0.0,1.21846967915e-07,0.392266,0.67665885,11.30706745,9e-08,0.0,0.0,0.0,9e-08,0.0,0.0,0.0,9e-08
1536703443239586085,1607,1536703443239118891,base_link,-0.0608359856604,0.0304953678364,0.226191988973,-0.971702732071,1.0,0.0,0.0,0.0,1.0,0.0,0.0,0.0,1.0,-0.177995249629,-0.0191311948001,-0.0287032052875,1.21846967915e-07,0.0,0.0,0.0,1.21846967915e-07,0.0,0.0,0.0,1.21846967915e-07,0.28439285,0.55897905,10.48330885,9e-08,0.0,0.0,0.0,9e-08,0.0,0.0,0.0,9e-08
1536703443680112005,1608,1536703443679584045,base_link,-0.0301020423746,0.0188042308942,0.241201482658,-0.969825815654,1.0,0.0,0.0,0.0,1.0,0.0,0.0,0.0,1.0,-0.0428501442075,-0.0816603377461,-0.0751085430384,1.21846967915e-07,0.0,0.0,0.0,1.21846967915e-07,0.0,0.0,0.0,1.21846967915e-07,0.26477955,0.32361945,10.14988275,9e-08,0.0,0.0,0.0,9e-08,0.0,0.0,0.0,9e-08
1536703444114407862,1609,1536703444112376756,base_link,-0.015639209415,0.0234406357066,0.23887926577,-0.970640328913,1.0,0.0,0.0,0.0,1.0,0.0,0.0,0.0,1.0,-0.0200881976634,0.0622708052397,0.069006562233,1.21846967915e-07,0.0,0.0,0.0,1.21846967915e-07,0.0,0.0,0.0,1.21846967915e-07,0.40207265,0.3334261,10.395049,9e-08,0.0,0.0,0.0,9e-08,0.0,0.0,0.0,9e-08
1536703444444255494,1610,1536703444443983082,base_link,-0.0105774345328,0.0221295010695,0.225221988205,-0.973998695631,1.0,0.0,0.0,0.0,1.0,0.0,0.0,0.0,1.0,-0.0579890459776,-0.0387949757278,0.0908512994647,1.21846967915e-07,0.0,0.0,0.0,1.21846967915e-07,0.0,0.0,0.0,1.21846967915e-07,0.3138128,0.44129925,9.93413645,9e-08,0.0,0.0,0.0,9e-08,0.0,0.0,0.0,9e-08
1536703444885131703,1611,1536703444884810523,base_link,-0.0101357885123,0.0101360675385,0.217858311438,-0.975875136513,1.0,0.0,0.0,0.0,1.0,0.0,0.0,0.0,1.0,0.0506975948811,-0.00131300929934,0.0162435323,1.21846967915e-07,0.0,0.0,0.0,1.21846967915e-07,0.0,0.0,0.0,1.21846967915e-07,0.20593965,0.30400615,9.0417313,9e-08,0.0,0.0,0.0,9e-08,0.0,0.0,0.0,9e-08
1536703445363356577,1612,1536703445363065093,base_link,-0.0245976731412,0.0215248920944,0.217815157553,-0.975442561424,1.0,0.0,0.0,0.0,1.0,0.0,0.0,0.0,1.0,0.0791988223791,-0.0644927248359,-0.0125565435737,1.21846967915e-07,0.0,0.0,0.0,1.21846967915e-07,0.0,0.0,0.0,1.21846967915e-07,0.34323275,0.44129925,10.3362091,9e-08,0.0,0.0,0.0,9e-08,0.0,0.0,0.0,9e-08
1536703445666948183,1613,1536703445666581148,base_link,-0.0374686011159,0.0268396309599,0.217379953686,-0.97499830455,1.0,0.0,0.0,0.0,1.0,0.0,0.0,0.0,1.0,0.0286851674318,0.0197894312441,0.0360937155783,1.21846967915e-07,0.0,0.0,0.0,1.21846967915e-07,0.0,0.0,0.0,1.21846967915e-07,0.36284605,0.4314926,9.93413645,9e-08,0.0,0.0,0.0,9e-08,0.0,0.0,0.0,9e-08
1536703446125206353,1614,1536703446124269215,base_link,-0.0334604168845,0.00824606180551,0.20891848018,-0.977325673256,1.0,0.0,0.0,0.0,1.0,0.0,0.0,0.0,1.0,-0.103625386953,0.141956120729,0.022308440879,1.21846967915e-07,0.0,0.0,0.0,1.21846967915e-07,0.0,0.0,0.0,1.21846967915e-07,0.3138128,0.7256921,8.73772515,9e-08,0.0,0.0,0.0,9e-08,0.0,0.0,0.0,9e-08
1536703446389604114,1615,1536703446387465489,base_link,-0.0201196037216,-0.00230278217023,0.211279792779,-0.977215814395,1.0,0.0,0.0,0.0,1.0,0.0,0.0,0.0,1.0,-0.0896699503064,0.0137874893844,-0.0375610925257,1.21846967915e-07,0.0,0.0,0.0,1.21846967915e-07,0.0,0.0,0.0,1.21846967915e-07,0.2745862,0.5295591,9.1790244,9e-08,0.0,0.0,0.0,9e-08,0.0,0.0,0.0,9e-08
1536703446722991247,1616,1536703446722439415,base_link,-0.0201186434861,-0.0173584757866,0.223474125381,-0.974347596491,1.0,0.0,0.0,0.0,1.0,0.0,0.0,0.0,1.0,0.0244654081762,0.0274651199579,-0.0729990527034,1.21846967915e-07,0.0,0.0,0.0,1.21846967915e-07,0.0,0.0,0.0,1.21846967915e-07,0.2745862,0.28439285,8.6690786,9e-08,0.0,0.0,0.0,9e-08,0.0,0.0,0.0,9e-08
1536703447043320394,1617,1536703447043048590,base_link,-0.03101616637,-0.0112103628244,0.226736688555,-0.973397554575,1.0,0.0,0.0,0.0,1.0,0.0,0.0,0.0,1.0,0.0770447403193,-0.023886859417,0.0376347266138,1.21846967915e-07,0.0,0.0,0.0,1.21846967915e-07,0.0,0.0,0.0,1.21846967915e-07,0.2745862,0.40207265,10.395049,9e-08,0.0,0.0,0.0,9e-08,0.0,0.0,0.0,9e-08
1536703447560274922,1618,1536703447559994735,base_link,-0.0132285463098,-0.00428217749072,0.213643561679,-0.976812723643,1.0,0.0,0.0,0.0,1.0,0.0,0.0,0.0,1.0,-0.172971472144,-0.0186256282032,0.0396792069077,1.21846967915e-07,0.0,0.0,0.0,1.21846967915e-07,0.0,0.0,0.0,1.21846967915e-07,0.38245935,0.63743225,10.81673495,9e-08,0.0,0.0,0.0,9e-08,0.0,0.0,0.0,9e-08
1536703447926128194,1619,1536703447925760680,base_link,0.039981733318,-0.0117850332556,0.201689723948,-0.978562123345,1.0,0.0,0.0,0.0,1.0,0.0,0.0,0.0,1.0,-0.320322781801,-0.0750218778849,0.063224799931,1.21846967915e-07,0.0,0.0,0.0,1.21846967915e-07,0.0,0.0,0.0,1.21846967915e-07,0.34323275,0.42168595,11.0226746,9e-08,0.0,0.0,0.0,9e-08,0.0,0.0,0.0,9e-08
1536703448335006200,1620,1536703448334432673,base_link,0.100948331149,-0.0163738103078,0.182039035033,-0.97795865071,1.0,0.0,0.0,0.0,1.0,0.0,0.0,0.0,1.0,-0.386963129044,-0.0686888769269,0.135605677962,1.21846967915e-07,0.0,0.0,0.0,1.21846967915e-07,0.0,0.0,0.0,1.21846967915e-07,0.3334261,0.30400615,11.2580342,9e-08,0.0,0.0,0.0,9e-08,0.0,0.0,0.0,9e-08
1536703448670507128,1621,1536703448668453239,base_link,0.151417641314,-0.00608395931053,0.148296017068,-0.977263513419,1.0,0.0,0.0,0.0,1.0,0.0,0.0,0.0,1.0,-0.253699123859,-0.197957754135,0.178857162595,1.21846967915e-07,0.0,0.0,0.0,1.21846967915e-07,0.0,0.0,0.0,1.21846967915e-07,0.40207265,0.196133,12.4152189,9e-08,0.0,0.0,0.0,9e-08,0.0,0.0,0.0,9e-08
1536703448976362967,1622,1536703448976065532,base_link,0.207882468138,0.00017579143579,0.109681794017,-0.971984954924,1.0,0.0,0.0,0.0,1.0,0.0,0.0,0.0,1.0,-0.313483148813,-0.102764539421,0.274688631296,1.21846967915e-07,0.0,0.0,0.0,1.21846967915e-07,0.0,0.0,0.0,1.21846967915e-07,0.3726527,0.18632635,12.1210194,9e-08,0.0,0.0,0.0,9e-08,0.0,0.0,0.0,9e-08
1536703449324652858,1623,1536703449324328415,base_link,0.274320504277,-0.00710359169823,0.0591019762601,-0.959794121841,1.0,0.0,0.0,0.0,1.0,0.0,0.0,0.0,1.0,-0.24904628098,-0.118264481425,0.251819014549,1.21846967915e-07,0.0,0.0,0.0,1.21846967915e-07,0.0,0.0,0.0,1.21846967915e-07,0.28439285,-0.00980665,7.60015375,9e-08,0.0,0.0,0.0,9e-08,0.0,0.0,0.0,9e-08
1536703449721033088,1624,1536703449720667366,base_link,0.294586512498,0.00105374527399,-0.00473758253893,-0.955612490284,1.0,0.0,0.0,0.0,1.0,0.0,0.0,0.0,1.0,-0.0988121926785,-0.132159739733,0.371912181377,1.21846967915e-07,0.0,0.0,0.0,1.21846967915e-07,0.0,0.0,0.0,1.21846967915e-07,0.5687857,0.06864655,11.5522337,9e-08,0.0,0.0,0.0,9e-08,0.0,0.0,0.0,9e-08
1536703450134031871,1625,1536703450133738019,base_link,0.317970963484,0.029947985209,-0.086457128292,-0.943675129232,1.0,0.0,0.0,0.0,1.0,0.0,0.0,0.0,1.0,-0.188321575522,-0.245549738407,0.305625617504,1.21846967915e-07,0.0,0.0,0.0,1.21846967915e-07,0.0,0.0,0.0,1.21846967915e-07,0.63743225,0.10787315,11.87585315,9e-08,0.0,0.0,0.0,9e-08,0.0,0.0,0.0,9e-08
1536703450714454187,1626,1536703450714080912,base_link,0.302673366978,0.0870827508254,-0.209546045035,-0.92568670858,1.0,0.0,0.0,0.0,1.0,0.0,0.0,0.0,1.0,0.151681885123,-0.397152125835,0.38301256299,1.21846967915e-07,0.0,0.0,0.0,1.21846967915e-07,0.0,0.0,0.0,1.21846967915e-07,1.24544455,-0.3334261,15.05320775,9e-08,0.0,0.0,0.0,9e-08,0.0,0.0,0.0,9e-08
1536703451046280962,1627,1536703451045784617,base_link,0.295018113957,0.118952972553,-0.291911359674,-0.901999035948,1.0,0.0,0.0,0.0,1.0,0.0,0.0,0.0,1.0,-0.00349547900259,-0.390379101038,0.419322162867,1.21846967915e-07,0.0,0.0,0.0,1.21846967915e-07,0.0,0.0,0.0,1.21846967915e-07,0.8237586,0.22555295,13.2782041,9e-08,0.0,0.0,0.0,9e-08,0.0,0.0,0.0,9e-08
1536703451455856950,1628,1536703451455518811,base_link,0.260925193879,0.15363991024,-0.380927041107,-0.873617428016,1.0,0.0,0.0,0.0,1.0,0.0,0.0,0.0,1.0,0.187001079321,-0.31404209137,0.293146073818,1.21846967915e-07,0.0,0.0,0.0,1.21846967915e-07,0.0,0.0,0.0,1.21846967915e-07,0.8825985,0.4903325,13.97447625,9e-08,0.0,0.0,0.0,9e-08,0.0,0.0,0.0,9e-08
1536703451855837853,1629,1536703451855603233,base_link,0.219762540811,0.154220279109,-0.442481062431,-0.855646562874,1.0,0.0,0.0,0.0,1.0,0.0,0.0,0.0,1.0,0.272277534008,-0.127198383212,0.294878154993,1.21846967915e-07,0.0,0.0,0.0,1.21846967915e-07,0.0,0.0,0.0,1.21846967915e-07,0.61781895,1.33307476115e-15,10.8853815,9e-08,0.0,0.0,0.0,9e-08,0.0,0.0,0.0,9e-08
1536703452328798344,1630,1536703452328577451,base_link,0.215663136254,0.163321997117,-0.51610709916,-0.812680010284,1.0,0.0,0.0,0.0,1.0,0.0,0.0,0.0,1.0,0.108385510743,-0.11399359256,0.230551660061,1.21846967915e-07,0.0,0.0,0.0,1.21846967915e-07,0.0,0.0,0.0,1.21846967915e-07,0.6276256,0.22555295,10.6304086,9e-08,0.0,0.0,0.0,9e-08,0.0,0.0,0.0,9e-08
1536703452759686030,1631,1536703452759457682,base_link,0.169311878118,0.148022077329,-0.574065916574,-0.787319043323,1.0,0.0,0.0,0.0,1.0,0.0,0.0,0.0,1.0,0.278836905956,-0.0947095006704,0.280593156815,1.21846967915e-07,0.0,0.0,0.0,1.21846967915e-07,0.0,0.0,0.0,1.21846967915e-07,0.51975245,-0.0196133,11.03248125,9e-08,0.0,0.0,0.0,9e-08,0.0,0.0,0.0,9e-08
1536703453163373418,1632,1536703453163141966,base_link,0.122878988522,0.129078957706,-0.629913598835,-0.755941952044,1.0,0.0,0.0,0.0,1.0,0.0,0.0,0.0,1.0,0.406443029642,-0.0250782482326,0.215235292912,1.21846967915e-07,0.0,0.0,0.0,1.21846967915e-07,0.0,0.0,0.0,1.21846967915e-07,0.28439285,0.22555295,10.71866845,9e-08,0.0,0.0,0.0,9e-08,0.0,0.0,0.0,9e-08
1536703453559483718,1633,1536703453558010749,base_link,0.0628810090886,0.0863706039966,-0.673030486003,-0.731857952318,1.0,0.0,0.0,0.0,1.0,0.0,0.0,0.0,1.0,0.399463742971,-0.0932359173894,0.25634098053,1.21846967915e-07,0.0,0.0,0.0,1.21846967915e-07,0.0,0.0,0.0,1.21846967915e-07,0.1569064,0.14709975,10.6304086,9e-08,0.0,0.0,0.0,9e-08,0.0,0.0,0.0,9e-08
1536703453924597123,1634,1536703453924330119,base_link,0.0272737927366,0.0593601197567,-0.705246575852,-0.705946020359,1.0,0.0,0.0,0.0,1.0,0.0,0.0,0.0,1.0,0.157222807407,0.0255593266338,0.103992372751,1.21846967915e-07,0.0,0.0,0.0,1.21846967915e-07,0.0,0.0,0.0,1.21846967915e-07,0.08825985,1.0002783,10.69905515,9e-08,0.0,0.0,0.0,9e-08,0.0,0.0,0.0,9e-08
1536703454269663136,1635,1536703454269182823,base_link,0.0107770631794,0.0287316484282,-0.706309690985,-0.707237561014,1.0,0.0,0.0,0.0,1.0,0.0,0.0,0.0,1.0,0.189261525869,0.0595793835819,-0.00111353164539,1.21846967915e-07,0.0,0.0,0.0,1.21846967915e-07,0.0,0.0,0.0,1.21846967915e-07,0.04903325,0.26477955,9.12999115,9e-08,0.0,0.0,0.0,9e-08,0.0,0.0,0.0,9e-08
1536703454738601384,1636,1536703454737808532,base_link,-0.0101926153004,-0.00359082440905,-0.713787389148,-0.700279072703,1.0,0.0,0.0,0.0,1.0,0.0,0.0,0.0,1.0,0.0883243530989,0.0604353621602,0.0520536564291,1.21846967915e-07,0.0,0.0,0.0,1.21846967915e-07,0.0,0.0,0.0,1.21846967915e-07,-0.0588399,0.4707192,8.4729456,9e-08,0.0,0.0,0.0,9e-08,0.0,0.0,0.0,9e-08
1536703455181182524,1637,1536703455180944160,base_link,-0.0127729469615,-0.0221575431713,-0.716458076477,-0.697161186354,1.0,0.0,0.0,0.0,1.0,0.0,0.0,0.0,1.0,0.155265703797,0.068127758801,-0.0542418323457,1.21846967915e-07,0.0,0.0,0.0,1.21846967915e-07,0.0,0.0,0.0,1.21846967915e-07,0.0,0.57859235,8.2768126,9e-08,0.0,0.0,0.0,9e-08,0.0,0.0,0.0,9e-08
1536703455433982524,1638,1536703455433708448,base_link,-0.0216228545672,-0.0281756948404,-0.711415808992,-0.701873299889,1.0,0.0,0.0,0.0,1.0,0.0,0.0,0.0,1.0,0.0548787042499,-0.063662417233,-0.0538216754794,1.21846967915e-07,0.0,0.0,0.0,1.21846967915e-07,0.0,0.0,0.0,1.21846967915e-07,0.02941995,0.48052585,9.44380395,9e-08,0.0,0.0,0.0,9e-08,0.0,0.0,0.0,9e-08
1536703455785160435,1639,1536703455784334080,base_link,-0.0441286165457,-0.024608141364,-0.709842639755,-0.702545750372,1.0,0.0,0.0,0.0,1.0,0.0,0.0,0.0,1.0,0.00978412013501,-0.113996058702,0.02078897506,1.21846967915e-07,0.0,0.0,0.0,1.21846967915e-07,0.0,0.0,0.0,1.21846967915e-07,0.18632635,0.5295591,12.0425662,9e-08,0.0,0.0,0.0,9e-08,0.0,0.0,0.0,9e-08
1536703456189538520,1640,1536703456189238396,base_link,-0.0523403437373,-0.0283952408163,-0.70962978002,-0.702053968029,1.0,0.0,0.0,0.0,1.0,0.0,0.0,0.0,1.0,-0.0184776093811,0.0824753642082,-0.035941131413,1.21846967915e-07,0.0,0.0,0.0,1.21846967915e-07,0.0,0.0,0.0,1.21846967915e-07,0.0784532,0.55897905,9.6889702,9e-08,0.0,0.0,0.0,9e-08,0.0,0.0,0.0,9e-08
1536703456531562049,1641,1536703456531185383,base_link,-0.0377805771575,-0.0375755339362,-0.701944204257,-0.710235905421,1.0,0.0,0.0,0.0,1.0,0.0,0.0,0.0,1.0,-0.0355485714972,0.0213134363294,-0.0685090571642,1.21846967915e-07,0.0,0.0,0.0,1.21846967915e-07,0.0,0.0,0.0,1.21846967915e-07,0.0588399,0.42168595,7.9826131,9e-08,0.0,0.0,0.0,9e-08,0.0,0.0,0.0,9e-08
1536703456925447352,1642,1536703456925122461,base_link,-0.0263033316112,-0.0325310079387,-0.6950857371,-0.717708636111,1.0,0.0,0.0,0.0,1.0,0.0,0.0,0.0,1.0,-0.0292096529156,-0.0588245801628,-0.0232801772654,1.21846967915e-07,0.0,0.0,0.0,1.21846967915e-07,0.0,0.0,0.0,1.21846967915e-07,-0.00980665,0.392266,9.3751574,9e-08,0.0,0.0,0.0,9e-08,0.0,0.0,0.0,9e-08
1536703457271425644,1643,1536703457271090065,base_link,-0.0174198458078,-0.020229721037,-0.694182362105,-0.719303938194,1.0,0.0,0.0,0.0,1.0,0.0,0.0,0.0,1.0,-0.107744194567,-0.0402048900723,0.00844920426607,1.21846967915e-07,0.0,0.0,0.0,1.21846967915e-07,0.0,0.0,0.0,1.21846967915e-07,0.24516625,0.4118793,10.7088618,9e-08,0.0,0.0,0.0,9e-08,0.0,0.0,0.0,9e-08
1536703457724638579,1644,1536703457724257817,base_link,-0.00804760195874,0.00390338391337,-0.706280873534,-0.707875220203,1.0,0.0,0.0,0.0,1.0,0.0,0.0,0.0,1.0,-0.141479879618,0.056663621217,0.133045360446,1.21846967915e-07,0.0,0.0,0.0,1.21846967915e-07,0.0,0.0,0.0,1.21846967915e-07,0.2745862,0.36284605,11.4345539,9e-08,0.0,0.0,0.0,9e-08,0.0,0.0,0.0,9e-08
1536703458102878520,1645,1536703458102541533,base_link,0.0188105937113,0.0119159476157,-0.718327351074,-0.69534882502,1.0,0.0,0.0,0.0,1.0,0.0,0.0,0.0,1.0,-0.162637501955,0.0176945775747,0.0795638859272,1.21846967915e-07,0.0,0.0,0.0,1.21846967915e-07,0.0,0.0,0.0,1.21846967915e-07,0.0,0.38245935,8.2179727,9e-08,0.0,0.0,0.0,9e-08,0.0,0.0,0.0,9e-08
1536703458588648433,1646,1536703458588306935,base_link,0.048962994638,0.0366753214343,-0.73076921608,-0.679877855783,1.0,0.0,0.0,0.0,1.0,0.0,0.0,0.0,1.0,-0.198928683996,-0.0155355092138,0.0523244254291,1.21846967915e-07,0.0,0.0,0.0,1.21846967915e-07,0.0,0.0,0.0,1.21846967915e-07,0.0,0.53936575,10.09104285,9e-08,0.0,0.0,0.0,9e-08,0.0,0.0,0.0,9e-08
1536703459079127161,1647,1536703459078853853,base_link,0.0716632793123,0.0810644308957,-0.741479216329,-0.662194461011,1.0,0.0,0.0,0.0,1.0,0.0,0.0,0.0,1.0,-0.20541742444,-0.0776717886329,0.147563889623,1.21846967915e-07,0.0,0.0,0.0,1.21846967915e-07,0.0,0.0,0.0,1.21846967915e-07,0.0980665,0.20593965,10.89518815,9e-08,0.0,0.0,0.0,9e-08,0.0,0.0,0.0,9e-08
1536703459424492053,1648,1536703459424221881,base_link,0.0996131835072,0.107558963079,-0.760733461266,-0.632291771291,1.0,0.0,0.0,0.0,1.0,0.0,0.0,0.0,1.0,-0.125883951783,0.0175427217036,0.235658377409,1.21846967915e-07,0.0,0.0,0.0,1.21846967915e-07,0.0,0.0,0.0,1.21846967915e-07,0.08825985,0.14709975,10.7088618,9e-08,0.0,0.0,0.0,9e-08,0.0,0.0,0.0,9e-08
1536703459797433686,1649,1536703459796950782,base_link,0.126808009902,0.136594655425,-0.784758650649,-0.5911137699,1.0,0.0,0.0,0.0,1.0,0.0,0.0,0.0,1.0,-0.325092166662,-0.0788294449449,0.255578041077,1.21846967915e-07,0.0,0.0,0.0,1.21846967915e-07,0.0,0.0,0.0,1.21846967915e-07,0.0392266,0.2745862,10.05181625,9e-08,0.0,0.0,0.0,9e-08,0.0,0.0,0.0,9e-08
1536703460122702507,1650,1536703460122358928,base_link,0.150701781926,0.17503851443,-0.800549477932,-0.552965663287,1.0,0.0,0.0,0.0,1.0,0.0,0.0,0.0,1.0,-0.183635443449,-0.110855996609,0.178371667862,1.21846967915e-07,0.0,0.0,0.0,1.21846967915e-07,0.0,0.0,0.0,1.21846967915e-07,-0.02941995,0.3138128,9.9831697,9e-08,0.0,0.0,0.0,9e-08,0.0,0.0,0.0,9e-08
1536703460628329713,1651,1536703460628027606,base_link,0.153284122992,0.202660349475,-0.828164818623,-0.49957561348,1.0,0.0,0.0,0.0,1.0,0.0,0.0,0.0,1.0,-0.134747773409,-0.140902712941,0.274901598692,1.21846967915e-07,0.0,0.0,0.0,1.21846967915e-07,0.0,0.0,0.0,1.21846967915e-07,0.0196133,1.17814985647e-15,9.62032365,9e-08,0.0,0.0,0.0,9e-08,0.0,0.0,0.0,9e-08
1536703460983131512,1652,1536703460982848989,base_link,0.144533992516,0.236363901808,-0.852948367352,-0.442403790175,1.0,0.0,0.0,0.0,1.0,0.0,0.0,0.0,1.0,-0.229962974787,-0.247591748834,0.303605079651,1.21846967915e-07,0.0,0.0,0.0,1.21846967915e-07,0.0,0.0,0.0,1.21846967915e-07,0.2353596,0.06864655,11.5522337,9e-08,0.0,0.0,0.0,9e-08,0.0,0.0,0.0,9e-08
1536703461385638206,1653,1536703461379132167,base_link,0.142321482034,0.265428105301,-0.876481676049,-0.375596043934,1.0,0.0,0.0,0.0,1.0,0.0,0.0,0.0,1.0,-0.0916502177715,-0.163338825107,0.314720332623,1.21846967915e-07,0.0,0.0,0.0,1.21846967915e-07,0.0,0.0,0.0,1.21846967915e-07,0.34323275,0.30400615,12.0033396,9e-08,0.0,0.0,0.0,9e-08,0.0,0.0,0.0,9e-08
1536703461708462541,1654,1536703461707499453,base_link,0.131096075801,0.274205175831,-0.896044537891,-0.323619416248,1.0,0.0,0.0,0.0,1.0,0.0,0.0,0.0,1.0,0.00516615062952,-0.173263803124,0.285669565201,1.21846967915e-07,0.0,0.0,0.0,1.21846967915e-07,0.0,0.0,0.0,1.21846967915e-07,0.4314926,0.2157463,12.6701918,9e-08,0.0,0.0,0.0,9e-08,0.0,0.0,0.0,9e-08
1536703462143857168,1655,1536703462143515254,base_link,0.0966140550938,0.293517521847,-0.919484385427,-0.24302603499,1.0,0.0,0.0,0.0,1.0,0.0,0.0,0.0,1.0,-0.0340217649937,-0.371854037046,0.335430204868,1.21846967915e-07,0.0,0.0,0.0,1.21846967915e-07,0.0,0.0,0.0,1.21846967915e-07,0.7649187,-0.10787315,14.513842,9e-08,0.0,0.0,0.0,9e-08,0.0,0.0,0.0,9e-08
1536703462625697094,1656,1536703462623333325,base_link,0.0395158595694,0.321514573557,-0.936540325647,-0.134011545285,1.0,0.0,0.0,0.0,1.0,0.0,0.0,0.0,1.0,0.0419868901372,-0.392917573452,0.325621902943,1.21846967915e-07,0.0,0.0,0.0,1.21846967915e-07,0.0,0.0,0.0,1.21846967915e-07,0.81395195,1.87831434814e-15,15.3376006,9e-08,0.0,0.0,0.0,9e-08,0.0,0.0,0.0,9e-08
1536703463017870224,1657,1536703463017343096,base_link,-0.00391615150841,0.331692109346,-0.942328783801,-0.0445137234506,1.0,0.0,0.0,0.0,1.0,0.0,0.0,0.0,1.0,-0.0485678389668,-0.294481396675,0.335855484009,1.21846967915e-07,0.0,0.0,0.0,1.21846967915e-07,0.0,0.0,0.0,1.21846967915e-07,0.95124505,0.3530394,15.77889985,9e-08,0.0,0.0,0.0,9e-08,0.0,0.0,0.0,9e-08
1536703463344912101,1658,1536703463344651401,base_link,-0.0381868528357,0.324387985591,-0.94503134324,0.0151644112622,1.0,0.0,0.0,0.0,1.0,0.0,0.0,0.0,1.0,0.167163848877,-0.307288408279,0.233251586556,1.21846967915e-07,0.0,0.0,0.0,1.21846967915e-07,0.0,0.0,0.0,1.21846967915e-07,0.91201845,0.1765197,13.5135637,9e-08,0.0,0.0,0.0,9e-08,0.0,0.0,0.0,9e-08
1536703463791929997,1659,1536703463790472037,base_link,-0.0901761449136,0.284025044929,-0.948556888035,0.106947963533,1.0,0.0,0.0,0.0,1.0,0.0,0.0,0.0,1.0,0.368990659714,-0.284720867872,0.352599948645,1.21846967915e-07,0.0,0.0,0.0,1.21846967915e-07,0.0,0.0,0.0,1.21846967915e-07,1.0198916,-0.06864655,15.6121868,9e-08,0.0,0.0,0.0,9e-08,0.0,0.0,0.0,9e-08
1536703464112117802,1660,1536703464109941197,base_link,-0.109749519082,0.225774964808,-0.951866794493,0.175870161962,1.0,0.0,0.0,0.0,1.0,0.0,0.0,0.0,1.0,0.402950972319,-0.186006590724,0.257149070501,1.21846967915e-07,0.0,0.0,0.0,1.21846967915e-07,0.0,0.0,0.0,1.21846967915e-07,0.7453054,0.32361945,13.9842829,9e-08,0.0,0.0,0.0,9e-08,0.0,0.0,0.0,9e-08
1536703464601677266,1661,1536703464593299420,base_link,-0.0943202053654,0.105807326029,-0.961031497002,0.237333036865,1.0,0.0,0.0,0.0,1.0,0.0,0.0,0.0,1.0,0.558752894402,-0.0584130585194,0.159257799387,1.21846967915e-07,0.0,0.0,0.0,1.21846967915e-07,0.0,0.0,0.0,1.21846967915e-07,0.20593965,0.2353596,10.002783,9e-08,0.0,0.0,0.0,9e-08,0.0,0.0,0.0,9e-08
1536703464971263792,1662,1536703464970967637,base_link,-0.0750944372845,0.0118513044019,-0.961061511176,0.265671119636,1.0,0.0,0.0,0.0,1.0,0.0,0.0,0.0,1.0,0.432655572891,0.0284583605826,0.0591433979571,1.21846967915e-07,0.0,0.0,0.0,1.21846967915e-07,0.0,0.0,0.0,1.21846967915e-07,0.18632635,0.3138128,10.83634825,9e-08,0.0,0.0,0.0,9e-08,0.0,0.0,0.0,9e-08
1536703465434017454,1663,1536703465433748498,base_link,-0.0394829674541,-0.0676143490991,-0.957133545314,0.278863356346,1.0,0.0,0.0,0.0,1.0,0.0,0.0,0.0,1.0,0.303888142109,0.0945010483265,-0.0229392871261,1.21846967915e-07,0.0,0.0,0.0,1.21846967915e-07,0.0,0.0,0.0,1.21846967915e-07,0.0392266,0.4903325,9.2378643,9e-08,0.0,0.0,0.0,9e-08,0.0,0.0,0.0,9e-08
1536703465724282606,1664,1536703465722165073,base_link,-0.0195097014919,-0.0946945055727,-0.957035952721,0.273376128002,1.0,0.0,0.0,0.0,1.0,0.0,0.0,0.0,1.0,0.161167532206,0.032883208245,-0.079979300499,1.21846967915e-07,0.0,0.0,0.0,1.21846967915e-07,0.0,0.0,0.0,1.21846967915e-07,0.0,0.392266,8.237586,9e-08,0.0,0.0,0.0,9e-08,0.0,0.0,0.0,9e-08
1536703466105543845,1665,1536703466105235626,base_link,0.000189697681939,-0.103335017365,-0.959003324738,0.263883423773,1.0,0.0,0.0,0.0,1.0,0.0,0.0,0.0,1.0,0.0133070284501,0.167454123497,-0.0402648076415,1.21846967915e-07,0.0,0.0,0.0,1.21846967915e-07,0.0,0.0,0.0,1.21846967915e-07,0.0,0.38245935,8.4141057,9e-08,0.0,0.0,0.0,9e-08,0.0,0.0,0.0,9e-08
1536703466438674085,1666,1536703466438448297,base_link,0.0204704610098,-0.0956639820733,-0.961665694086,0.256180513657,1.0,0.0,0.0,0.0,1.0,0.0,0.0,0.0,1.0,-0.0623690262437,0.0926410257816,-0.0844675004482,1.21846967915e-07,0.0,0.0,0.0,1.21846967915e-07,0.0,0.0,0.0,1.21846967915e-07,-0.0784532,0.4707192,7.71783355,9e-08,0.0,0.0,0.0,9e-08,0.0,0.0,0.0,9e-08
1536703466833095691,1667,1536703466832822160,base_link,0.0340672814015,-0.0798939929294,-0.966581382348,0.241198676466,1.0,0.0,0.0,0.0,1.0,0.0,0.0,0.0,1.0,-0.0539298839867,0.0979369133711,-0.0882979631424,1.21846967915e-07,0.0,0.0,0.0,1.21846967915e-07,0.0,0.0,0.0,1.21846967915e-07,-0.1176798,0.2941995,8.58081875,9e-08,0.0,0.0,0.0,9e-08,0.0,0.0,0.0,9e-08
1536703467156840795,1668,1536703467156039496,base_link,0.0372451441939,-0.0716313303697,-0.968641885129,0.234977977942,1.0,0.0,0.0,0.0,1.0,0.0,0.0,0.0,1.0,-0.102648124099,-0.0513207986951,-0.0228742416948,1.21846967915e-07,0.0,0.0,0.0,1.21846967915e-07,0.0,0.0,0.0,1.21846967915e-07,-0.12748645,0.4903325,8.8063717,9e-08,0.0,0.0,0.0,9e-08,0.0,0.0,0.0,9e-08
1536703467465867987,1669,1536703467465630199,base_link,0.0345283595621,-0.0515541751593,-0.971364560498,0.229348751942,1.0,0.0,0.0,0.0,1.0,0.0,0.0,0.0,1.0,-0.129232406616,0.0404250025749,-0.039999216795,1.21846967915e-07,0.0,0.0,0.0,1.21846967915e-07,0.0,0.0,0.0,1.21846967915e-07,0.02941995,0.59820565,9.8458766,9e-08,0.0,0.0,0.0,9e-08,0.0,0.0,0.0,9e-08
1536703467884703234,1670,1536703467884376967,base_link,0.0376099229801,-0.0166063120039,-0.973437007992,0.225233469021,1.0,0.0,0.0,0.0,1.0,0.0,0.0,0.0,1.0,-0.0511913821101,-0.0133026540279,-0.0172242503613,1.21846967915e-07,0.0,0.0,0.0,1.21846967915e-07,0.0,0.0,0.0,1.21846967915e-07,-0.10787315,0.4118793,8.5513988,9e-08,0.0,0.0,0.0,9e-08,0.0,0.0,0.0,9e-08
1536703468225958030,1671,1536703468225287737,base_link,0.0291383539105,-0.0117506708223,-0.973937509867,0.224629928862,1.0,0.0,0.0,0.0,1.0,0.0,0.0,0.0,1.0,-0.0263082608581,-0.00448118429631,0.0235788356513,1.21846967915e-07,0.0,0.0,0.0,1.21846967915e-07,0.0,0.0,0.0,1.21846967915e-07,-0.0588399,0.40207265,10.4342756,9e-08,0.0,0.0,0.0,9e-08,0.0,0.0,0.0,9e-08
1536703468678379817,1672,1536703468677930032,base_link,0.0298297491926,0.000793801626835,-0.970899357771,0.237621533162,1.0,0.0,0.0,0.0,1.0,0.0,0.0,0.0,1.0,-0.0490628406405,-0.01515535824,0.047881193459,1.21846967915e-07,0.0,0.0,0.0,1.21846967915e-07,0.0,0.0,0.0,1.21846967915e-07,0.0,0.5491724,10.24794925,9e-08,0.0,0.0,0.0,9e-08,0.0,0.0,0.0,9e-08
1536703469047462645,1673,1536703469047155514,base_link,0.0277714555384,0.00399602517895,-0.968891341382,0.245890924262,1.0,0.0,0.0,0.0,1.0,0.0,0.0,0.0,1.0,0.0313666649163,-0.0467751957476,0.0391947105527,1.21846967915e-07,0.0,0.0,0.0,1.21846967915e-07,0.0,0.0,0.0,1.21846967915e-07,-0.1176798,0.392266,10.1596894,9e-08,0.0,0.0,0.0,9e-08,0.0,0.0,0.0,9e-08
1536703469285276141,1674,1536703469284807669,base_link,0.0227774731334,-0.00318482924635,-0.968002548841,0.249884191212,1.0,0.0,0.0,0.0,1.0,0.0,0.0,0.0,1.0,0.0866091996431,-0.116711162031,0.0397937372327,1.21846967915e-07,0.0,0.0,0.0,1.21846967915e-07,0.0,0.0,0.0,1.21846967915e-07,0.0,0.38245935,11.30706745,9e-08,0.0,0.0,0.0,9e-08,0.0,0.0,0.0,9e-08
1536703469723955307,1675,1536703469723644817,base_link,0.0113079452556,0.0012311811904,-0.966270363206,0.257278447906,1.0,0.0,0.0,0.0,1.0,0.0,0.0,0.0,1.0,-0.0256215278059,-0.0386666804552,0.0358653478324,1.21846967915e-07,0.0,0.0,0.0,1.21846967915e-07,0.0,0.0,0.0,1.21846967915e-07,-0.00980665,0.392266,10.4735022,9e-08,0.0,0.0,0.0,9e-08,0.0,0.0,0.0,9e-08
1536703470187187517,1676,1536703470186917218,base_link,-0.00197735631324,0.0140231583922,-0.963639999945,0.266828393536,1.0,0.0,0.0,0.0,1.0,0.0,0.0,0.0,1.0,-0.0412661582232,-0.00662796897814,0.0358633846045,1.21846967915e-07,0.0,0.0,0.0,1.21846967915e-07,0.0,0.0,0.0,1.21846967915e-07,0.0,0.51975245,10.05181625,9e-08,0.0,0.0,0.0,9e-08,0.0,0.0,0.0,9e-08
1536703470588833676,1677,1536703470588550449,base_link,-0.00344545087966,0.00305913621658,-0.963374945731,0.268118415053,1.0,0.0,0.0,0.0,1.0,0.0,0.0,0.0,1.0,0.108660705388,0.0153688117862,-0.00591658148915,1.21846967915e-07,0.0,0.0,0.0,1.21846967915e-07,0.0,0.0,0.0,1.21846967915e-07,0.00980665,0.2353596,10.1008495,9e-08,0.0,0.0,0.0,9e-08,0.0,0.0,0.0,9e-08
1536703470965250791,1678,1536703470965047466,base_link,0.00538013766822,-0.0183651912996,-0.961812183193,0.273040469763,1.0,0.0,0.0,0.0,1.0,0.0,0.0,0.0,1.0,0.118300065398,0.0334640853107,0.0493368953466,1.21846967915e-07,0.0,0.0,0.0,1.21846967915e-07,0.0,0.0,0.0,1.21846967915e-07,-0.00980665,0.1765197,9.4928372,9e-08,0.0,0.0,0.0,9e-08,0.0,0.0,0.0,9e-08
1536703471304708539,1679,1536703471304123653,base_link,0.0200956914307,-0.0368532293385,-0.959216570776,0.279538142338,1.0,0.0,0.0,0.0,1.0,0.0,0.0,0.0,1.0,0.147017404437,0.0656396150589,0.00178317166865,1.21846967915e-07,0.0,0.0,0.0,1.21846967915e-07,0.0,0.0,0.0,1.21846967915e-07,-0.00980665,0.4314926,8.7867584,9e-08,0.0,0.0,0.0,9e-08,0.0,0.0,0.0,9e-08
1536703471699093255,1680,1536703471698710765,base_link,0.0235517179806,-0.0575847589071,-0.960038361386,0.27286563871,1.0,0.0,0.0,0.0,1.0,0.0,0.0,0.0,1.0,0.115658417344,-0.046692289412,-0.0801229253411,1.21846967915e-07,0.0,0.0,0.0,1.21846967915e-07,0.0,0.0,0.0,1.21846967915e-07,0.0784532,0.392266,10.52253545,9e-08,0.0,0.0,0.0,9e-08,0.0,0.0,0.0,9e-08
1536703472213437194,1681,1536703472212833012,base_link,0.0372237557645,-0.084995115178,-0.95789810283,0.27170102502,1.0,0.0,0.0,0.0,1.0,0.0,0.0,0.0,1.0,0.0512626990676,0.0591452717781,0.0239551905543,1.21846967915e-07,0.0,0.0,0.0,1.21846967915e-07,0.0,0.0,0.0,1.21846967915e-07,0.04903325,0.6668522,9.6301303,9e-08,0.0,0.0,0.0,9e-08,0.0,0.0,0.0,9e-08
1536703472637885718,1682,1536703472636248434,base_link,0.0544344016756,-0.0837584620199,-0.959728834367,0.262568049159,1.0,0.0,0.0,0.0,1.0,0.0,0.0,0.0,1.0,-0.0295298285782,0.0590141192079,-0.12852473557,1.21846967915e-07,0.0,0.0,0.0,1.21846967915e-07,0.0,0.0,0.0,1.21846967915e-07,0.0,0.57859235,8.6102387,9e-08,0.0,0.0,0.0,9e-08,0.0,0.0,0.0,9e-08
1536703473080540868,1683,1536703473080073676,base_link,0.0391486513576,-0.0935871379694,-0.967794469559,0.230396821581,1.0,0.0,0.0,0.0,1.0,0.0,0.0,0.0,1.0,0.0200392324477,-0.175196900964,-0.105074733496,1.21846967915e-07,0.0,0.0,0.0,1.21846967915e-07,0.0,0.0,0.0,1.21846967915e-07,0.24516625,0.2941995,12.54270535,9e-08,0.0,0.0,0.0,9e-08,0.0,0.0,0.0,9e-08
1536703473577164665,1684,1536703473576912285,base_link,0.0073111568791,-0.0786577599729,-0.968499253252,0.236153975682,1.0,0.0,0.0,0.0,1.0,0.0,0.0,0.0,1.0,-0.0909976810217,0.0421656034887,-0.0170540902764,1.21846967915e-07,0.0,0.0,0.0,1.21846967915e-07,0.0,0.0,0.0,1.21846967915e-07,0.1569064,1.0198916,10.52253545,9e-08,0.0,0.0,0.0,9e-08,0.0,0.0,0.0,9e-08
1536703473900622569,1685,1536703473900223728,base_link,0.00341395496262,-0.0610078066888,-0.973000548037,0.222567576151,1.0,0.0,0.0,0.0,1.0,0.0,0.0,0.0,1.0,-0.105700045824,0.0106467548758,-0.089503839612,1.21846967915e-07,0.0,0.0,0.0,1.21846967915e-07,0.0,0.0,0.0,1.21846967915e-07,0.1176798,0.40207265,9.2574776,9e-08,0.0,0.0,0.0,9e-08,0.0,0.0,0.0,9e-08
1536703474323394073,1686,1536703474323129022,base_link,0.00372110938265,-0.0351349837574,-0.977614084024,0.207418391131,1.0,0.0,0.0,0.0,1.0,0.0,0.0,0.0,1.0,0.00136511400342,-0.0167133528739,-0.0442779883742,1.21846967915e-07,0.0,0.0,0.0,1.21846967915e-07,0.0,0.0,0.0,1.21846967915e-07,0.1176798,0.26477955,9.3751574,9e-08,0.0,0.0,0.0,9e-08,0.0,0.0,0.0,9e-08
1536703474766578466,1687,1536703474766344390,base_link,0.0101444434702,-0.0646465152424,-0.974556802898,0.214375736173,1.0,0.0,0.0,0.0,1.0,0.0,0.0,0.0,1.0,0.112405695021,0.0188437066972,0.04553347826,1.21846967915e-07,0.0,0.0,0.0,1.21846967915e-07,0.0,0.0,0.0,1.21846967915e-07,0.22555295,0.40207265,10.0420096,9e-08,0.0,0.0,0.0,9e-08,0.0,0.0,0.0,9e-08
1536703475108168538,1688,1536703475107797088,base_link,0.00175774416316,-0.0602405238702,-0.97499260353,0.213909823715,1.0,0.0,0.0,0.0,1.0,0.0,0.0,0.0,1.0,-0.0782027989626,-0.0676914155483,-0.00387399317697,1.21846967915e-07,0.0,0.0,0.0,1.21846967915e-07,0.0,0.0,0.0,1.21846967915e-07,0.2941995,0.3530394,10.6500219,9e-08,0.0,0.0,0.0,9e-08,0.0,0.0,0.0,9e-08
1536703475522850222,1689,1536703475522655602,base_link,-0.00705654821479,-0.0397285488005,-0.97447284661,0.220849538729,1.0,0.0,0.0,0.0,1.0,0.0,0.0,0.0,1.0,-0.136544272304,0.00100978091359,0.00970389321446,1.21846967915e-07,0.0,0.0,0.0,1.21846967915e-07,0.0,0.0,0.0,1.21846967915e-07,0.2353596,0.784532,9.12999115,9e-08,0.0,0.0,0.0,9e-08,0.0,0.0,0.0,9e-08
1536703476021985323,1690,1536703476021800878,base_link,-0.0090233998301,-0.0083425901812,-0.974885579175,0.222367009606,1.0,0.0,0.0,0.0,1.0,0.0,0.0,0.0,1.0,-0.0650794804096,0.0529457069933,0.03400124982,1.21846967915e-07,0.0,0.0,0.0,1.21846967915e-07,0.0,0.0,0.0,1.21846967915e-07,0.2941995,0.59820565,10.3754357,9e-08,0.0,0.0,0.0,9e-08,0.0,0.0,0.0,9e-08
1536703476416366018,1691,1536703476413184569,base_link,0.0032303246201,-0.00791465065155,-0.97485876808,0.222659618262,1.0,0.0,0.0,0.0,1.0,0.0,0.0,0.0,1.0,0.0474135912955,0.103174127638,-0.0319414027035,1.21846967915e-07,0.0,0.0,0.0,1.21846967915e-07,0.0,0.0,0.0,1.21846967915e-07,0.1765197,0.1569064,8.8455983,9e-08,0.0,0.0,0.0,9e-08,0.0,0.0,0.0,9e-08
1536703476700410295,1692,1536703476699899680,base_link,-0.00403008467055,-0.00224829013516,-0.973300961649,0.229486255933,1.0,0.0,0.0,0.0,1.0,0.0,0.0,0.0,1.0,-0.0783144459128,-0.0657422691584,0.0741619467735,1.21846967915e-07,0.0,0.0,0.0,1.21846967915e-07,0.0,0.0,0.0,1.21846967915e-07,0.38245935,0.46091255,11.6699135,9e-08,0.0,0.0,0.0,9e-08,0.0,0.0,0.0,9e-08
1536703477004482640,1693,1536703477004011960,base_link,-0.000601271648527,-0.00315354049198,-0.970170404188,0.242402723773,1.0,0.0,0.0,0.0,1.0,0.0,0.0,0.0,1.0,-0.00228386372328,0.0137724969536,0.120521605015,1.21846967915e-07,0.0,0.0,0.0,1.21846967915e-07,0.0,0.0,0.0,1.21846967915e-07,0.1372931,0.06864655,9.16921775,9e-08,0.0,0.0,0.0,9e-08,0.0,0.0,0.0,9e-08
1536703477422829255,1694,1536703477422506509,base_link,0.00438164021483,0.00292807681956,-0.965475867809,0.260439198804,1.0,0.0,0.0,0.0,1.0,0.0,0.0,0.0,1.0,-0.0650455206633,0.0836795568466,0.0449580065906,1.21846967915e-07,0.0,0.0,0.0,1.21846967915e-07,0.0,0.0,0.0,1.21846967915e-07,0.06864655,0.588399,8.65927195,9e-08,0.0,0.0,0.0,9e-08,0.0,0.0,0.0,9e-08
1536703477898766417,1695,1536703477898400439,base_link,0.0197764638011,0.000545399524366,-0.966710371957,0.255107135866,1.0,0.0,0.0,0.0,1.0,0.0,0.0,0.0,1.0,0.015496917069,0.0346519835293,-0.0159388389438,1.21846967915e-07,0.0,0.0,0.0,1.21846967915e-07,0.0,0.0,0.0,1.21846967915e-07,0.04903325,0.51975245,9.05153795,9e-08,0.0,0.0,0.0,9e-08,0.0,0.0,0.0,9e-08
1536703478304275986,1696,1536703478303943288,base_link,0.0225782773192,-0.0151297216048,-0.967650878191,0.250824821048,1.0,0.0,0.0,0.0,1.0,0.0,0.0,0.0,1.0,0.171214997768,0.0837344750762,0.0119142197073,1.21846967915e-07,0.0,0.0,0.0,1.21846967915e-07,0.0,0.0,0.0,1.21846967915e-07,0.1372931,0.28439285,10.5323421,9e-08,0.0,0.0,0.0,9e-08,0.0,0.0,0.0,9e-08
1536703478603226008,1697,1536703478602928541,base_link,0.0184402197913,-0.0368589009084,-0.965489727505,0.257159417093,1.0,0.0,0.0,0.0,1.0,0.0,0.0,0.0,1.0,0.0706581547856,-0.129426583648,0.0608698688447,1.21846967915e-07,0.0,0.0,0.0,1.21846967915e-07,0.0,0.0,0.0,1.21846967915e-07,0.1765197,0.50013915,10.48330885,9e-08,0.0,0.0,0.0,9e-08,0.0,0.0,0.0,9e-08
1536703478942110978,1698,1536703478941871142,base_link,0.00357005157699,-0.0458705877287,-0.965288978849,0.257099846803,1.0,0.0,0.0,0.0,1.0,0.0,0.0,0.0,1.0,0.033732522279,-0.0621247626841,-0.0643277540803,1.21846967915e-07,0.0,0.0,0.0,1.21846967915e-07,0.0,0.0,0.0,1.21846967915e-07,0.3530394,0.9022118,12.5132854,9e-08,0.0,0.0,0.0,9e-08,0.0,0.0,0.0,9e-08
1536703479449483649,1699,1536703479449152775,base_link,0.00618591669084,-0.0693551595221,-0.968282913564,0.239957903773,1.0,0.0,0.0,0.0,1.0,0.0,0.0,0.0,1.0,0.123318292201,-0.112506873906,-0.0377396829426,1.21846967915e-07,0.0,0.0,0.0,1.21846967915e-07,0.0,0.0,0.0,1.21846967915e-07,0.2549729,0.2157463,10.3362091,9e-08,0.0,0.0,0.0,9e-08,0.0,0.0,0.0,9e-08
1536703479781541162,1700,1536703479781249456,base_link,0.00261609598301,-0.0987524536925,-0.965211351869,0.24209121247,1.0,0.0,0.0,0.0,1.0,0.0,0.0,0.0,1.0,0.169742941856,-0.0297428071499,0.0235832519829,1.21846967915e-07,0.0,0.0,0.0,1.21846967915e-07,0.0,0.0,0.0,1.21846967915e-07,0.2157463,0.57859235,9.99297635,9e-08,0.0,0.0,0.0,9e-08,0.0,0.0,0.0,9e-08
1536703480103615357,1701,1536703480103344513,base_link,0.0238361761064,-0.122770683352,-0.964540913621,0.232422077196,1.0,0.0,0.0,0.0,1.0,0.0,0.0,0.0,1.0,0.212251380086,0.043670758605,-0.113549567759,1.21846967915e-07,0.0,0.0,0.0,1.21846967915e-07,0.0,0.0,0.0,1.21846967915e-07,0.1765197,0.36284605,8.7279185,9e-08,0.0,0.0,0.0,9e-08,0.0,0.0,0.0,9e-08
1536703480523865239,1702,1536703480522844937,base_link,0.0475546253588,-0.176422217445,-0.961933218667,0.203219688082,1.0,0.0,0.0,0.0,1.0,0.0,0.0,0.0,1.0,0.297429561615,-0.0108330100775,-0.151943609118,1.21846967915e-07,0.0,0.0,0.0,1.21846967915e-07,0.0,0.0,0.0,1.21846967915e-07,0.0980665,0.36284605,8.22777935,9e-08,0.0,0.0,0.0,9e-08,0.0,0.0,0.0,9e-08
1536703480881649474,1703,1536703480881380710,base_link,0.0584069734546,-0.21203725909,-0.960244589892,0.171927757484,1.0,0.0,0.0,0.0,1.0,0.0,0.0,0.0,1.0,0.149545073509,-0.0575276426971,-0.177131652832,1.21846967915e-07,0.0,0.0,0.0,1.21846967915e-07,0.0,0.0,0.0,1.21846967915e-07,0.26477955,0.44129925,9.44380395,9e-08,0.0,0.0,0.0,9e-08,0.0,0.0,0.0,9e-08
1536703481333028510,1704,1536703481329882294,base_link,0.0483102306385,-0.260468407842,-0.956800845015,0.119810154457,1.0,0.0,0.0,0.0,1.0,0.0,0.0,0.0,1.0,0.205424845219,-0.203291416168,-0.223681092262,1.21846967915e-07,0.0,0.0,0.0,1.21846967915e-07,0.0,0.0,0.0,1.21846967915e-07,0.34323275,0.59820565,10.6892485,9e-08,0.0,0.0,0.0,9e-08,0.0,0.0,0.0,9e-08
1536703481643335674,1705,1536703481643030879,base_link,0.0303054291832,-0.297421667476,-0.951558326778,0.0718239752275,1.0,0.0,0.0,0.0,1.0,0.0,0.0,0.0,1.0,0.190673172474,-0.163239330053,-0.226295813918,1.21846967915e-07,0.0,0.0,0.0,1.21846967915e-07,0.0,0.0,0.0,1.21846967915e-07,0.53936575,0.75511205,12.2583125,9e-08,0.0,0.0,0.0,9e-08,0.0,0.0,0.0,9e-08
1536703482032883349,1706,1536703482032591834,base_link,0.00384199022619,-0.324300139538,-0.94586396939,0.0124903969562,1.0,0.0,0.0,0.0,1.0,0.0,0.0,0.0,1.0,0.119871549308,-0.231983497739,-0.270296663046,1.21846967915e-07,0.0,0.0,0.0,1.21846967915e-07,0.0,0.0,0.0,1.21846967915e-07,0.73549875,1.01008495,12.60154525,9e-08,0.0,0.0,0.0,9e-08,0.0,0.0,0.0,9e-08
1536703482468106601,1707,1536703482467802766,base_link,-0.0293278646956,-0.338747400677,-0.937573281599,-0.0731191939124,1.0,0.0,0.0,0.0,1.0,0.0,0.0,0.0,1.0,0.102580621839,-0.154725790024,-0.336784720421,1.21846967915e-07,0.0,0.0,0.0,1.21846967915e-07,0.0,0.0,0.0,1.21846967915e-07,0.8433719,0.83356525,11.34629405,9e-08,0.0,0.0,0.0,9e-08,0.0,0.0,0.0,9e-08
1536703482950060444,1708,1536703482949577156,base_link,-0.0652938142295,-0.344711055638,-0.920604287913,-0.17146063986,1.0,0.0,0.0,0.0,1.0,0.0,0.0,0.0,1.0,-0.0117404777557,-0.402255117893,-0.271431744099,1.21846967915e-07,0.0,0.0,0.0,1.21846967915e-07,0.0,0.0,0.0,1.21846967915e-07,0.81395195,0.8433719,12.5132854,9e-08,0.0,0.0,0.0,9e-08,0.0,0.0,0.0,9e-08
1536703483283021690,1709,1536703483282654977,base_link,-0.111571369869,-0.337692403631,-0.904209015767,-0.236477748978,1.0,0.0,0.0,0.0,1.0,0.0,0.0,0.0,1.0,-0.0535950437188,-0.313190966845,-0.276540726423,1.21846967915e-07,0.0,0.0,0.0,1.21846967915e-07,0.0,0.0,0.0,1.21846967915e-07,1.1375714,1.0787315,13.99408955,9e-08,0.0,0.0,0.0,9e-08,0.0,0.0,0.0,9e-08
1536703483786480842,1710,1536703483783601406,base_link,-0.143461913237,-0.310672572677,-0.877919261654,-0.334901481117,1.0,0.0,0.0,0.0,1.0,0.0,0.0,0.0,1.0,-0.114075541496,-0.338901221752,-0.329259991646,1.21846967915e-07,0.0,0.0,0.0,1.21846967915e-07,0.0,0.0,0.0,1.21846967915e-07,0.87279185,0.8433719,12.24850585,9e-08,0.0,0.0,0.0,9e-08,0.0,0.0,0.0,9e-08
1536703484231866074,1711,1536703484225111283,base_link,-0.160594428542,-0.27977591061,-0.854171046532,-0.40783169645,1.0,0.0,0.0,0.0,1.0,0.0,0.0,0.0,1.0,-0.159006536007,-0.165687188506,-0.256895840168,1.21846967915e-07,0.0,0.0,0.0,1.21846967915e-07,0.0,0.0,0.0,1.21846967915e-07,0.8825985,0.9610517,11.76798,9e-08,0.0,0.0,0.0,9e-08,0.0,0.0,0.0,9e-08
1536703484608705961,1712,1536703484608437710,base_link,-0.157352169032,-0.252864639613,-0.833619279305,-0.465165203025,1.0,0.0,0.0,0.0,1.0,0.0,0.0,0.0,1.0,-0.0991855934262,-0.0604134239256,-0.266270190477,1.21846967915e-07,0.0,0.0,0.0,1.21846967915e-07,0.0,0.0,0.0,1.21846967915e-07,0.6472389,0.8433719,10.03220295,9e-08,0.0,0.0,0.0,9e-08,0.0,0.0,0.0,9e-08
1536703484981537504,1713,1536703484981241766,base_link,-0.160325215596,-0.229747350383,-0.807804751472,-0.518616875675,1.0,0.0,0.0,0.0,1.0,0.0,0.0,0.0,1.0,-0.0653293132782,-0.243360072374,-0.271658033133,1.21846967915e-07,0.0,0.0,0.0,1.21846967915e-07,0.0,0.0,0.0,1.21846967915e-07,0.6080123,0.8433719,10.85596155,9e-08,0.0,0.0,0.0,9e-08,0.0,0.0,0.0,9e-08
1536703485423022473,1714,1536703485419453002,base_link,-0.181832099322,-0.211676184899,-0.770217720047,-0.573493630417,1.0,0.0,0.0,0.0,1.0,0.0,0.0,0.0,1.0,-0.143179446459,-0.290084958076,-0.220312565565,1.21846967915e-07,0.0,0.0,0.0,1.21846967915e-07,0.0,0.0,0.0,1.21846967915e-07,0.93163175,0.8041453,13.533177,9e-08,0.0,0.0,0.0,9e-08,0.0,0.0,0.0,9e-08
1536703485718617624,1715,1536703485718294813,base_link,-0.187603332773,-0.182569435676,-0.746690208507,-0.611495808007,1.0,0.0,0.0,0.0,1.0,0.0,0.0,0.0,1.0,-0.192958950996,-0.113529533148,-0.194213971496,1.21846967915e-07,0.0,0.0,0.0,1.21846967915e-07,0.0,0.0,0.0,1.21846967915e-07,0.99047165,0.73549875,13.07226445,9e-08,0.0,0.0,0.0,9e-08,0.0,0.0,0.0,9e-08
1536703486043221016,1716,1536703486042570756,base_link,-0.184744810497,-0.154679663739,-0.733999532501,-0.634971056749,1.0,0.0,0.0,0.0,1.0,0.0,0.0,0.0,1.0,-0.244768604636,-0.111267305911,-0.113308988512,1.21846967915e-07,0.0,0.0,0.0,1.21846967915e-07,0.0,0.0,0.0,1.21846967915e-07,0.50013915,0.8825985,11.4933938,9e-08,0.0,0.0,0.0,9e-08,0.0,0.0,0.0,9e-08
1536703486443681896,1717,1536703486443246448,base_link,-0.15470161774,-0.108835228567,-0.715038452791,-0.673009891102,1.0,0.0,0.0,0.0,1.0,0.0,0.0,0.0,1.0,-0.316790789366,4.66490164399e-05,-0.223065927625,1.21846967915e-07,0.0,0.0,0.0,1.21846967915e-07,0.0,0.0,0.0,1.21846967915e-07,0.3726527,1.0198916,10.3165958,9e-08,0.0,0.0,0.0,9e-08,0.0,0.0,0.0,9e-08
1536703486821681358,1718,1536703486820268424,base_link,-0.130362651569,-0.0924075891166,-0.689627075451,-0.70631502416,1.0,0.0,0.0,0.0,1.0,0.0,0.0,0.0,1.0,-0.0385340750217,-0.015393121168,-0.200872913003,1.21846967915e-07,0.0,0.0,0.0,1.21846967915e-07,0.0,0.0,0.0,1.21846967915e-07,0.16671305,0.67665885,9.56148375,9e-08,0.0,0.0,0.0,9e-08,0.0,0.0,0.0,9e-08
1536703487211790379,1719,1536703487211407282,base_link,-0.0992764929823,-0.0621717700027,-0.675327434939,-0.72815637371,1.0,0.0,0.0,0.0,1.0,0.0,0.0,0.0,1.0,-0.318539559841,0.0631991401315,-0.088328152895,1.21846967915e-07,0.0,0.0,0.0,1.21846967915e-07,0.0,0.0,0.0,1.21846967915e-07,0.0980665,0.7256921,9.3751574,9e-08,0.0,0.0,0.0,9e-08,0.0,0.0,0.0,9e-08
1536703487639988232,1720,1536703487639665582,base_link,-0.0308292196308,-0.035261587078,-0.667996152308,-0.742689248741,1.0,0.0,0.0,0.0,1.0,0.0,0.0,0.0,1.0,-0.329132527113,0.139595106244,-0.0565707981586,1.21846967915e-07,0.0,0.0,0.0,1.21846967915e-07,0.0,0.0,0.0,1.21846967915e-07,-0.06864655,0.4903325,7.77667345,9e-08,0.0,0.0,0.0,9e-08,0.0,0.0,0.0,9e-08
1536703488176758532,1721,1536703488176327564,base_link,0.0393189746122,-0.00716113927209,-0.664379408269,-0.746326160729,1.0,0.0,0.0,0.0,1.0,0.0,0.0,0.0,1.0,-0.0852733999491,-0.0250099189579,-0.0556089729071,1.21846967915e-07,0.0,0.0,0.0,1.21846967915e-07,0.0,0.0,0.0,1.21846967915e-07,-0.16671305,0.57859235,8.1983594,9e-08,0.0,0.0,0.0,9e-08,0.0,0.0,0.0,9e-08
