%time,field.header.seq,field.header.stamp,field.header.frame_id,field.orientation.x,field.orientation.y,field.orientation.z,field.orientation.w,field.orientation_covariance0,field.orientation_covariance1,field.orientation_covariance2,field.orientation_covariance3,field.orientation_covariance4,field.orientation_covariance5,field.orientation_covariance6,field.orientation_covariance7,field.orientation_covariance8,field.angular_velocity.x,field.angular_velocity.y,field.angular_velocity.z,field.angular_velocity_covariance0,field.angular_velocity_covariance1,field.angular_velocity_covariance2,field.angular_velocity_covariance3,field.angular_velocity_covariance4,field.angular_velocity_covariance5,field.angular_velocity_covariance6,field.angular_velocity_covariance7,field.angular_velocity_covariance8,field.linear_acceleration.x,field.linear_acceleration.y,field.linear_acceleration.z,field.linear_acceleration_covariance0,field.linear_acceleration_covariance1,field.linear_acceleration_covariance2,field.linear_acceleration_covariance3,field.linear_acceleration_covariance4,field.linear_acceleration_covariance5,field.linear_acceleration_covariance6,field.linear_acceleration_covariance7,field.linear_acceleration_covariance8
1538768398784307975,2406,1538768398784042919,base_link,0.173618418776,0.159259598863,-0.420178686993,-0.876323510941,1.0,0.0,0.0,0.0,1.0,0.0,0.0,0.0,1.0,0.419214725494,-0.207577809691,0.196497350931,1.21846967915e-07,0.0,0.0,0.0,1.21846967915e-07,0.0,0.0,0.0,1.21846967915e-07,0.02941995,-0.392266,13.69989005,9e-08,0.0,0.0,0.0,9e-08,0.0,0.0,0.0,9e-08
1538768399190657927,2407,1538768399186657319,base_link,0.122817841123,0.137769862887,-0.483832069952,-0.85547751044,1.0,0.0,0.0,0.0,1.0,0.0,0.0,0.0,1.0,-0.33007594943,0.0226849913597,0.2931253016,1.21846967915e-07,0.0,0.0,0.0,1.21846967915e-07,0.0,0.0,0.0,1.21846967915e-07,-1.2356379,0.2745862,11.5130071,9e-08,0.0,0.0,0.0,9e-08,0.0,0.0,0.0,9e-08
1538768399569071751,2408,1538768399568552775,base_link,0.209417463444,0.159811958588,-0.520058414085,-0.81249228294,1.0,0.0,0.0,0.0,1.0,0.0,0.0,0.0,1.0,-0.44864398241,0.119293063879,0.364814281464,1.21846967915e-07,0.0,0.0,0.0,1.21846967915e-07,0.0,0.0,0.0,1.21846967915e-07,-1.59848395,0.61781895,6.7273619,9e-08,0.0,0.0,0.0,9e-08,0.0,0.0,0.0,9e-08
1538768400018334823,2409,1538768400018106151,base_link,0.287040918766,0.162091751735,-0.549278368295,-0.76787176605,1.0,0.0,0.0,0.0,1.0,0.0,0.0,0.0,1.0,-0.264762431383,0.0568669289351,0.119741111994,1.21846967915e-07,0.0,0.0,0.0,1.21846967915e-07,0.0,0.0,0.0,1.21846967915e-07,-1.71616375,0.8237586,5.3936575,9e-08,0.0,0.0,0.0,9e-08,0.0,0.0,0.0,9e-08
1538768400485529511,2410,1538768400485292871,base_link,0.301397402021,0.158507979099,-0.563452317877,-0.752699350402,1.0,0.0,0.0,0.0,1.0,0.0,0.0,0.0,1.0,0.0802405998111,0.0285589061677,0.204086229205,1.21846967915e-07,0.0,0.0,0.0,1.21846967915e-07,0.0,0.0,0.0,1.21846967915e-07,-1.89268345,-0.48052585,6.9823348,9e-08,0.0,0.0,0.0,9e-08,0.0,0.0,0.0,9e-08
1538768400909659303,2411,1538768400909406759,base_link,0.305175973305,0.119258227534,-0.625728061378,-0.707890876963,1.0,0.0,0.0,0.0,1.0,0.0,0.0,0.0,1.0,-0.0340198203921,-0.00461019296199,0.414560079575,1.21846967915e-07,0.0,0.0,0.0,1.21846967915e-07,0.0,0.0,0.0,1.21846967915e-07,-1.8240369,0.20593965,7.56092715,9e-08,0.0,0.0,0.0,9e-08,0.0,0.0,0.0,9e-08
1538768401257672775,2412,1538768401257466599,base_link,0.326326229942,0.126843152798,-0.66121681672,-0.663486493854,1.0,0.0,0.0,0.0,1.0,0.0,0.0,0.0,1.0,-0.181876942515,-0.0828847438097,0.192135319114,1.21846967915e-07,0.0,0.0,0.0,1.21846967915e-07,0.0,0.0,0.0,1.21846967915e-07,-1.9024901,0.2549729,8.1002929,9e-08,0.0,0.0,0.0,9e-08,0.0,0.0,0.0,9e-08
1538768401656380647,2413,1538768401655356455,base_link,0.324059800111,0.133031830983,-0.692041686672,-0.631162484473,1.0,0.0,0.0,0.0,1.0,0.0,0.0,0.0,1.0,-0.0096836425364,-0.101791791618,0.243842557073,1.21846967915e-07,0.0,0.0,0.0,1.21846967915e-07,0.0,0.0,0.0,1.21846967915e-07,-1.8044236,-0.22555295,10.16949605,9e-08,0.0,0.0,0.0,9e-08,0.0,0.0,0.0,9e-08
1538768401971409383,2414,1538768401971014823,base_link,0.311173015187,0.133087045631,-0.729155230242,-0.594804037575,1.0,0.0,0.0,0.0,1.0,0.0,0.0,0.0,1.0,-0.0122972466052,-0.215808495879,0.307110071182,1.21846967915e-07,0.0,0.0,0.0,1.21846967915e-07,0.0,0.0,0.0,1.21846967915e-07,-1.71616375,0.0392266,11.6306869,9e-08,0.0,0.0,0.0,9e-08,0.0,0.0,0.0,9e-08
1538768402426979079,2415,1538768402426416647,base_link,0.285096098424,0.174281576799,-0.783144260122,-0.524434185089,1.0,0.0,0.0,0.0,1.0,0.0,0.0,0.0,1.0,-0.148820444942,-0.383639127016,0.276017099619,1.21846967915e-07,0.0,0.0,0.0,1.21846967915e-07,0.0,0.0,0.0,1.21846967915e-07,-1.2160246,0.1765197,15.8083198,9e-08,0.0,0.0,0.0,9e-08,0.0,0.0,0.0,9e-08
1538768402842964359,2416,1538768402842483079,base_link,0.239967549422,0.232172307718,-0.825627723785,-0.454808153479,1.0,0.0,0.0,0.0,1.0,0.0,0.0,0.0,1.0,-0.101929664612,-0.480368822813,0.226262480021,1.21846967915e-07,0.0,0.0,0.0,1.21846967915e-07,0.0,0.0,0.0,1.21846967915e-07,-0.77472535,0.08825985,17.1224109,9e-08,0.0,0.0,0.0,9e-08,0.0,0.0,0.0,9e-08
1538768403232643015,2417,1538768403231681319,base_link,0.173356979019,0.266742069382,-0.86696226997,-0.383630614908,1.0,0.0,0.0,0.0,1.0,0.0,0.0,0.0,1.0,0.148936569691,-0.496867507696,0.303274810314,1.21846967915e-07,0.0,0.0,0.0,1.21846967915e-07,0.0,0.0,0.0,1.21846967915e-07,-0.0784532,-0.14709975,19.2014207,9e-08,0.0,0.0,0.0,9e-08,0.0,0.0,0.0,9e-08
1538768403534432711,2418,1538768403534002471,base_link,0.105644789803,0.25381675645,-0.902617640181,-0.331206322655,1.0,0.0,0.0,0.0,1.0,0.0,0.0,0.0,1.0,0.376207262278,-0.456108778715,0.23108163476,1.21846967915e-07,0.0,0.0,0.0,1.21846967915e-07,0.0,0.0,0.0,1.21846967915e-07,0.196133,0.38245935,19.97614605,9e-08,0.0,0.0,0.0,9e-08,0.0,0.0,0.0,9e-08
1538768404088928263,2419,1538768404088580935,base_link,-0.0181071741319,0.128629447503,-0.953720792242,-0.271188580006,1.0,0.0,0.0,0.0,1.0,0.0,0.0,0.0,1.0,0.688224136829,-0.25132983923,0.100857242942,1.21846967915e-07,0.0,0.0,0.0,1.21846967915e-07,0.0,0.0,0.0,1.21846967915e-07,-0.02941995,0.4314926,16.73995155,9e-08,0.0,0.0,0.0,9e-08,0.0,0.0,0.0,9e-08
1538768404395519687,2420,1538768404395152039,base_link,-0.0692418740297,0.0412185547804,-0.963419425468,-0.255596565419,1.0,0.0,0.0,0.0,1.0,0.0,0.0,0.0,1.0,0.596599459648,-0.13981410861,0.0183846540749,1.21846967915e-07,0.0,0.0,0.0,1.21846967915e-07,0.0,0.0,0.0,1.21846967915e-07,-0.06864655,0.2745862,14.317709,9e-08,0.0,0.0,0.0,9e-08,0.0,0.0,0.0,9e-08
1538768404710620359,2421,1538768404710316167,base_link,-0.106524454167,-0.0434141699123,-0.96360162554,-0.241328941015,1.0,0.0,0.0,0.0,1.0,0.0,0.0,0.0,1.0,0.395497173071,-0.0607294403017,0.0215133577585,1.21846967915e-07,0.0,0.0,0.0,1.21846967915e-07,0.0,0.0,0.0,1.21846967915e-07,-0.2353596,0.44129925,12.2779258,9e-08,0.0,0.0,0.0,9e-08,0.0,0.0,0.0,9e-08
1538768405145979943,2422,1538768405145732007,base_link,-0.116390217019,-0.0900436459696,-0.958757363941,-0.243166149559,1.0,0.0,0.0,0.0,1.0,0.0,0.0,0.0,1.0,0.0431947335601,0.0749083608389,-0.0930709987879,1.21846967915e-07,0.0,0.0,0.0,1.21846967915e-07,0.0,0.0,0.0,1.21846967915e-07,-0.18632635,0.51975245,9.1005712,9e-08,0.0,0.0,0.0,9e-08,0.0,0.0,0.0,9e-08
1538768405584216263,2423,1538768405583292199,base_link,-0.0937434891358,-0.0896939828046,-0.954945838241,-0.266918702455,1.0,0.0,0.0,0.0,1.0,0.0,0.0,0.0,1.0,-0.094958782196,0.0860245600343,-0.10733909905,1.21846967915e-07,0.0,0.0,0.0,1.21846967915e-07,0.0,0.0,0.0,1.21846967915e-07,-0.36284605,0.46091255,7.7864801,9e-08,0.0,0.0,0.0,9e-08,0.0,0.0,0.0,9e-08
1538768405925835143,2424,1538768405925620199,base_link,-0.0723909972947,-0.0786152856894,-0.953167056819,-0.282934165774,1.0,0.0,0.0,0.0,1.0,0.0,0.0,0.0,1.0,0.188739538193,0.0709058269858,-0.107592791319,1.21846967915e-07,0.0,0.0,0.0,1.21846967915e-07,0.0,0.0,0.0,1.21846967915e-07,-0.40207265,0.44129925,8.0610663,9e-08,0.0,0.0,0.0,9e-08,0.0,0.0,0.0,9e-08
1538768406320770983,2425,1538768406320421287,base_link,-0.0577910768737,-0.0886805541775,-0.95041217486,-0.292425458231,1.0,0.0,0.0,0.0,1.0,0.0,0.0,0.0,1.0,-0.128295242786,0.065504014492,0.023917445913,1.21846967915e-07,0.0,0.0,0.0,1.21846967915e-07,0.0,0.0,0.0,1.21846967915e-07,-0.30400615,0.392266,9.1005712,9e-08,0.0,0.0,0.0,9e-08,0.0,0.0,0.0,9e-08
1538768406706692999,2426,1538768406706267591,base_link,-0.0310868348854,-0.0803718361617,-0.949724066334,-0.3009953064,1.0,0.0,0.0,0.0,1.0,0.0,0.0,0.0,1.0,-0.0277382805943,0.0967584401369,-0.167882636189,1.21846967915e-07,0.0,0.0,0.0,1.21846967915e-07,0.0,0.0,0.0,1.21846967915e-07,-0.26477955,0.7256921,8.11009955,9e-08,0.0,0.0,0.0,9e-08,0.0,0.0,0.0,9e-08
1538768407240287431,2427,1538768407233684615,base_link,-0.0148849880175,-0.103190645817,-0.93579529554,-0.336774839609,1.0,0.0,0.0,0.0,1.0,0.0,0.0,0.0,1.0,0.307001233101,0.0661272183061,-0.146102130413,1.21846967915e-07,0.0,0.0,0.0,1.21846967915e-07,0.0,0.0,0.0,1.21846967915e-07,-0.2353596,0.55897905,8.69849855,9e-08,0.0,0.0,0.0,9e-08,0.0,0.0,0.0,9e-08
1538768407666227847,2428,1538768407665216839,base_link,-0.0403033876217,-0.17352907472,-0.91355575913,-0.365621624269,1.0,0.0,0.0,0.0,1.0,0.0,0.0,0.0,1.0,-0.0534220933914,-0.0554789640009,-0.0801320895553,1.21846967915e-07,0.0,0.0,0.0,1.21846967915e-07,0.0,0.0,0.0,1.21846967915e-07,-0.2549729,0.26477955,12.66038515,9e-08,0.0,0.0,0.0,9e-08,0.0,0.0,0.0,9e-08
1538768407966379271,2429,1538768407966118631,base_link,-0.0401843533672,-0.145024484486,-0.914235779377,-0.376199490099,1.0,0.0,0.0,0.0,1.0,0.0,0.0,0.0,1.0,-0.191642791033,-0.121912896633,-0.0219419728965,1.21846967915e-07,0.0,0.0,0.0,1.21846967915e-07,0.0,0.0,0.0,1.21846967915e-07,0.00980665,0.48052585,13.2193642,9e-08,0.0,0.0,0.0,9e-08,0.0,0.0,0.0,9e-08
1538768408319587751,2430,1538768408316794087,base_link,-0.0169260866852,-0.0761420685774,-0.916973120269,-0.391249523561,1.0,0.0,0.0,0.0,1.0,0.0,0.0,0.0,1.0,-0.533401429653,-0.00329046696424,-0.138913094997,1.21846967915e-07,0.0,0.0,0.0,1.21846967915e-07,0.0,0.0,0.0,1.21846967915e-07,-0.24516625,0.61781895,11.1207411,9e-08,0.0,0.0,0.0,9e-08,0.0,0.0,0.0,9e-08
1538768408604533159,2431,1538768408603301351,base_link,0.0096047706217,-0.0271675016494,-0.914429971904,-0.403717106053,1.0,0.0,0.0,0.0,1.0,0.0,0.0,0.0,1.0,-0.317755818367,0.0349884741008,-0.0663358420134,1.21846967915e-07,0.0,0.0,0.0,1.21846967915e-07,0.0,0.0,0.0,1.21846967915e-07,-0.1569064,0.588399,9.7478101,9e-08,0.0,0.0,0.0,9e-08,0.0,0.0,0.0,9e-08
1538768409065796551,2432,1538768409065599143,base_link,0.044443165285,0.0256196392136,-0.907631794192,-0.416620889199,1.0,0.0,0.0,0.0,1.0,0.0,0.0,0.0,1.0,-0.0901585370302,0.0588654689491,-0.0183370485902,1.21846967915e-07,0.0,0.0,0.0,1.21846967915e-07,0.0,0.0,0.0,1.21846967915e-07,-0.3138128,-0.1569064,7.85512665,9e-08,0.0,0.0,0.0,9e-08,0.0,0.0,0.0,9e-08
1538768409372528839,2433,1538768409366867815,base_link,0.0655142552284,0.0651369783851,-0.914871528939,-0.393033258065,1.0,0.0,0.0,0.0,1.0,0.0,0.0,0.0,1.0,-0.427763789892,-0.0493182204664,0.239601165056,1.21846967915e-07,0.0,0.0,0.0,1.21846967915e-07,0.0,0.0,0.0,1.21846967915e-07,-0.5295591,0.02941995,8.4729456,9e-08,0.0,0.0,0.0,9e-08,0.0,0.0,0.0,9e-08
1538768409659703975,2434,1538768409659450151,base_link,0.0865689390859,0.123185689118,-0.921059289806,-0.359139094842,1.0,0.0,0.0,0.0,1.0,0.0,0.0,0.0,1.0,-0.399345368147,-0.0734971016645,0.152533367276,1.21846967915e-07,0.0,0.0,0.0,1.21846967915e-07,0.0,0.0,0.0,1.21846967915e-07,-0.40207265,0.42168595,10.5323421,9e-08,0.0,0.0,0.0,9e-08,0.0,0.0,0.0,9e-08
1538768409965328967,2435,1538768409964986631,base_link,0.0965461302185,0.163368515765,-0.924536348671,-0.330487689306,1.0,0.0,0.0,0.0,1.0,0.0,0.0,0.0,1.0,-0.226933181286,-0.105583168566,0.181743636727,1.21846967915e-07,0.0,0.0,0.0,1.21846967915e-07,0.0,0.0,0.0,1.21846967915e-07,-0.32361945,0.0980665,9.09076455,9e-08,0.0,0.0,0.0,9e-08,0.0,0.0,0.0,9e-08
1538768410316056071,2436,1538768410315199815,base_link,0.0984233591857,0.203142968152,-0.930142509162,-0.289621631628,1.0,0.0,0.0,0.0,1.0,0.0,0.0,0.0,1.0,-0.164223954082,-0.129858851433,0.214703902602,1.21846967915e-07,0.0,0.0,0.0,1.21846967915e-07,0.0,0.0,0.0,1.21846967915e-07,-0.24516625,0.53936575,11.6503002,9e-08,0.0,0.0,0.0,9e-08,0.0,0.0,0.0,9e-08
1538768410554406375,2437,1538768410554013287,base_link,0.102577361198,0.248782495115,-0.927600628176,-0.259118177098,1.0,0.0,0.0,0.0,1.0,0.0,0.0,0.0,1.0,-0.249656841159,-0.129169583321,0.159679695964,1.21846967915e-07,0.0,0.0,0.0,1.21846967915e-07,0.0,0.0,0.0,1.21846967915e-07,-0.1569064,0.40207265,11.0226746,9e-08,0.0,0.0,0.0,9e-08,0.0,0.0,0.0,9e-08
1538768410895139207,2438,1538768410894896231,base_link,0.0848107354674,0.249304363105,-0.93824419358,-0.22439319709,1.0,0.0,0.0,0.0,1.0,0.0,0.0,0.0,1.0,0.233548492193,-0.148071035743,0.294335991144,1.21846967915e-07,0.0,0.0,0.0,1.21846967915e-07,0.0,0.0,0.0,1.21846967915e-07,-0.0980665,-0.22555295,11.1991943,9e-08,0.0,0.0,0.0,9e-08,0.0,0.0,0.0,9e-08
1538768411419904391,2439,1538768411419582823,base_link,0.0619647024059,0.257984439503,-0.955315726519,-0.130293005547,1.0,0.0,0.0,0.0,1.0,0.0,0.0,0.0,1.0,-0.280227780342,-0.230867922306,0.3616784513,1.21846967915e-07,0.0,0.0,0.0,1.21846967915e-07,0.0,0.0,0.0,1.21846967915e-07,0.0588399,0.1176798,13.3762706,9e-08,0.0,0.0,0.0,9e-08,0.0,0.0,0.0,9e-08
1538768411784169511,2440,1538768411783814183,base_link,0.0400076417655,0.294493217345,-0.952626509309,-0.0646209509343,1.0,0.0,0.0,0.0,1.0,0.0,0.0,0.0,1.0,-0.0746084824204,-0.256135702133,0.235392466187,1.21846967915e-07,0.0,0.0,0.0,1.21846967915e-07,0.0,0.0,0.0,1.21846967915e-07,0.28439285,0.55897905,13.5724036,9e-08,0.0,0.0,0.0,9e-08,0.0,0.0,0.0,9e-08
1538768412102548455,2441,1538768412102335783,base_link,0.0126440761976,0.286427791665,-0.957815721284,-0.0197051150932,1.0,0.0,0.0,0.0,1.0,0.0,0.0,0.0,1.0,0.211507692933,-0.202353581786,0.233583688736,1.21846967915e-07,0.0,0.0,0.0,1.21846967915e-07,0.0,0.0,0.0,1.21846967915e-07,0.34323275,-0.04903325,11.50320045,9e-08,0.0,0.0,0.0,9e-08,0.0,0.0,0.0,9e-08
1538768412416499399,2442,1538768412416234823,base_link,-0.0131721619941,0.273665585492,-0.961072608158,0.0356802930768,1.0,0.0,0.0,0.0,1.0,0.0,0.0,0.0,1.0,0.0369153693318,-0.270375996828,0.335624247789,1.21846967915e-07,0.0,0.0,0.0,1.21846967915e-07,0.0,0.0,0.0,1.21846967915e-07,0.4118793,0.02941995,13.64105015,9e-08,0.0,0.0,0.0,9e-08,0.0,0.0,0.0,9e-08
1538768412809969191,2443,1538768412809738759,base_link,-0.0518686426471,0.307505963006,-0.944698558824,0.101461123498,1.0,0.0,0.0,0.0,1.0,0.0,0.0,0.0,1.0,-0.0813634693623,-0.253351837397,0.176163196564,1.21846967915e-07,0.0,0.0,0.0,1.21846967915e-07,0.0,0.0,0.0,1.21846967915e-07,0.4118793,0.0196133,12.44463885,9e-08,0.0,0.0,0.0,9e-08,0.0,0.0,0.0,9e-08
1538768413240825831,2444,1538768413240620711,base_link,-0.0815974703924,0.265750977037,-0.945505162289,0.169523624057,1.0,0.0,0.0,0.0,1.0,0.0,0.0,0.0,1.0,0.213924184442,-0.222055569291,0.296254724264,1.21846967915e-07,0.0,0.0,0.0,1.21846967915e-07,0.0,0.0,0.0,1.21846967915e-07,0.44129925,1.58527809434e-15,12.944778,9e-08,0.0,0.0,0.0,9e-08,0.0,0.0,0.0,9e-08
1538768413711044583,2445,1538768413710674343,base_link,-0.0924851831892,0.194449564625,-0.942646563973,0.255055509913,1.0,0.0,0.0,0.0,1.0,0.0,0.0,0.0,1.0,0.2813398242,-0.188648417592,0.296455591917,1.21846967915e-07,0.0,0.0,0.0,1.21846967915e-07,0.0,0.0,0.0,1.21846967915e-07,0.4511059,0.16671305,12.54270535,9e-08,0.0,0.0,0.0,9e-08,0.0,0.0,0.0,9e-08
1538768414041856327,2446,1538768414041334823,base_link,-0.0968754015775,0.146501675635,-0.937156366794,0.301480280918,1.0,0.0,0.0,0.0,1.0,0.0,0.0,0.0,1.0,0.413873642683,-0.130579650402,0.1758762151,1.21846967915e-07,0.0,0.0,0.0,1.21846967915e-07,0.0,0.0,0.0,1.21846967915e-07,0.26477955,0.2941995,12.77806495,9e-08,0.0,0.0,0.0,9e-08,0.0,0.0,0.0,9e-08
1538768414418627879,2447,1538768414418339463,base_link,-0.0841019645405,0.0774393259882,-0.932525293534,0.342529688158,1.0,0.0,0.0,0.0,1.0,0.0,0.0,0.0,1.0,0.371266335249,-0.0498187243938,0.182831689715,1.21846967915e-07,0.0,0.0,0.0,1.21846967915e-07,0.0,0.0,0.0,1.21846967915e-07,0.16671305,0.392266,12.1994726,9e-08,0.0,0.0,0.0,9e-08,0.0,0.0,0.0,9e-08
1538768414813144519,2448,1538768414811742951,base_link,-0.0612586801792,0.0143139238114,-0.92943798558,0.363576012203,1.0,0.0,0.0,0.0,1.0,0.0,0.0,0.0,1.0,0.289786159992,0.00685169827193,0.00708751147613,1.21846967915e-07,0.0,0.0,0.0,1.21846967915e-07,0.0,0.0,0.0,1.21846967915e-07,0.0196133,0.67665885,10.56176205,9e-08,0.0,0.0,0.0,9e-08,0.0,0.0,0.0,9e-08
1538768415184933767,2449,1538768415184338791,base_link,-0.0356628827922,-0.0451734849935,-0.930491408086,0.361764086834,1.0,0.0,0.0,0.0,1.0,0.0,0.0,0.0,1.0,0.314703404903,0.016795931384,-0.00174984196201,1.21846967915e-07,0.0,0.0,0.0,1.21846967915e-07,0.0,0.0,0.0,1.21846967915e-07,0.20593965,0.196133,11.1991943,9e-08,0.0,0.0,0.0,9e-08,0.0,0.0,0.0,9e-08
1538768415559526759,2450,1538768415559279719,base_link,-0.0201805951822,-0.0600840106455,-0.923610539958,0.378055850002,1.0,0.0,0.0,0.0,1.0,0.0,0.0,0.0,1.0,0.10736297816,0.0487268418074,0.111546881497,1.21846967915e-07,0.0,0.0,0.0,1.21846967915e-07,0.0,0.0,0.0,1.21846967915e-07,0.16671305,0.0588399,8.69849855,9e-08,0.0,0.0,0.0,9e-08,0.0,0.0,0.0,9e-08
1538768416042562471,2451,1538768416041915719,base_link,0.00661354936342,-0.0702804723124,-0.91857872043,0.388883080821,1.0,0.0,0.0,0.0,1.0,0.0,0.0,0.0,1.0,-0.001374643296,0.0680807232857,-0.0798708572984,1.21846967915e-07,0.0,0.0,0.0,1.21846967915e-07,0.0,0.0,0.0,1.21846967915e-07,0.0,0.85317855,9.38496405,9e-08,0.0,0.0,0.0,9e-08,0.0,0.0,0.0,9e-08
1538768416337906855,2452,1538768416331680551,base_link,0.0167723221363,-0.0612212127256,-0.926520376597,0.370851242512,1.0,0.0,0.0,0.0,1.0,0.0,0.0,0.0,1.0,0.0717999711633,0.0692719817162,-0.186005994678,1.21846967915e-07,0.0,0.0,0.0,1.21846967915e-07,0.0,0.0,0.0,1.21846967915e-07,-0.0196133,0.4314926,7.16866115,9e-08,0.0,0.0,0.0,9e-08,0.0,0.0,0.0,9e-08
1538768416772776743,2453,1538768416772298887,base_link,0.025789473656,-0.0880046722043,-0.930570086499,0.354442371666,1.0,0.0,0.0,0.0,1.0,0.0,0.0,0.0,1.0,0.129525288939,-0.0492892712355,0.0562778450549,1.21846967915e-07,0.0,0.0,0.0,1.21846967915e-07,0.0,0.0,0.0,1.21846967915e-07,0.20593965,0.2353596,11.42474725,9e-08,0.0,0.0,0.0,9e-08,0.0,0.0,0.0,9e-08
1538768417228521735,2454,1538768417228261511,base_link,0.0163866201857,-0.0831871767012,-0.930954872771,0.355154047106,1.0,0.0,0.0,0.0,1.0,0.0,0.0,0.0,1.0,-0.189226910472,-0.0153904668987,-0.0591608658433,1.21846967915e-07,0.0,0.0,0.0,1.21846967915e-07,0.0,0.0,0.0,1.21846967915e-07,0.2745862,0.89240515,9.9439431,9e-08,0.0,0.0,0.0,9e-08,0.0,0.0,0.0,9e-08
1538768417579114023,2455,1538768417578854087,base_link,0.0116182710478,-0.0753129116235,-0.937645317348,0.339137494206,1.0,0.0,0.0,0.0,1.0,0.0,0.0,0.0,1.0,-0.0344666317105,-0.0169547870755,-0.0688155516982,1.21846967915e-07,0.0,0.0,0.0,1.21846967915e-07,0.0,0.0,0.0,1.21846967915e-07,0.48052585,0.6276256,10.983448,9e-08,0.0,0.0,0.0,9e-08,0.0,0.0,0.0,9e-08
1538768417971301927,2456,1538768417971005959,base_link,0.00487604175902,-0.054096738362,-0.944955344416,0.322659517409,1.0,0.0,0.0,0.0,1.0,0.0,0.0,0.0,1.0,-0.0641390755773,0.00405873218551,-0.107412412763,1.21846967915e-07,0.0,0.0,0.0,1.21846967915e-07,0.0,0.0,0.0,1.21846967915e-07,0.32361945,0.44129925,10.1204628,9e-08,0.0,0.0,0.0,9e-08,0.0,0.0,0.0,9e-08
1538768418419388583,2457,1538768418418977255,base_link,-0.00988162974924,-0.0230635229855,-0.947778661694,0.317940302163,1.0,0.0,0.0,0.0,1.0,0.0,0.0,0.0,1.0,-0.129511147738,-0.031216269359,0.0697532221675,1.21846967915e-07,0.0,0.0,0.0,1.21846967915e-07,0.0,0.0,0.0,1.21846967915e-07,0.51975245,0.18632635,10.1008495,9e-08,0.0,0.0,0.0,9e-08,0.0,0.0,0.0,9e-08
1538768418720535335,2458,1538768418713270727,base_link,-0.017407139896,-0.00989065153819,-0.943857960605,0.329744320186,1.0,0.0,0.0,0.0,1.0,0.0,0.0,0.0,1.0,0.00228152424097,-0.0170999392867,0.0960631743073,1.21846967915e-07,0.0,0.0,0.0,1.21846967915e-07,0.0,0.0,0.0,1.21846967915e-07,0.50013915,0.44129925,9.73800345,9e-08,0.0,0.0,0.0,9e-08,0.0,0.0,0.0,9e-08
1538768419018458215,2459,1538768419018156935,base_link,-0.020616415637,-0.0139028088426,-0.940053944916,0.340118002993,1.0,0.0,0.0,0.0,1.0,0.0,0.0,0.0,1.0,0.0192984901369,-0.0273950789124,0.0430097281933,1.21846967915e-07,0.0,0.0,0.0,1.21846967915e-07,0.0,0.0,0.0,1.21846967915e-07,0.5099458,0.5099458,12.3759923,9e-08,0.0,0.0,0.0,9e-08,0.0,0.0,0.0,9e-08
1538768419429488647,2460,1538768419428724135,base_link,-0.0249674781808,-0.0272647434088,-0.935255202307,0.35203830098,1.0,0.0,0.0,0.0,1.0,0.0,0.0,0.0,1.0,0.033416621387,-0.0332774892449,0.0953897461295,1.21846967915e-07,0.0,0.0,0.0,1.21846967915e-07,0.0,0.0,0.0,1.21846967915e-07,0.5295591,0.61781895,10.79712165,9e-08,0.0,0.0,0.0,9e-08,0.0,0.0,0.0,9e-08
1538768419917204615,2461,1538768419917010055,base_link,-0.0259127470322,-0.0244400346139,-0.933840884231,0.355910687095,1.0,0.0,0.0,0.0,1.0,0.0,0.0,0.0,1.0,0.163109511137,0.0148445032537,-0.0386888571084,1.21846967915e-07,0.0,0.0,0.0,1.21846967915e-07,0.0,0.0,0.0,1.21846967915e-07,0.38245935,0.32361945,9.34573745,9e-08,0.0,0.0,0.0,9e-08,0.0,0.0,0.0,9e-08
1538768420303831623,2462,1538768420303373735,base_link,-0.011671664102,-0.0499993717848,-0.931614622499,0.359802765727,1.0,0.0,0.0,0.0,1.0,0.0,0.0,0.0,1.0,0.0042139403522,0.0223405528814,0.0474175512791,1.21846967915e-07,0.0,0.0,0.0,1.21846967915e-07,0.0,0.0,0.0,1.21846967915e-07,0.3726527,0.4314926,8.95347145,9e-08,0.0,0.0,0.0,9e-08,0.0,0.0,0.0,9e-08
1538768420719210343,2463,1538768420718939559,base_link,-0.00860290666742,-0.0437048367312,-0.935739920377,0.349866658394,1.0,0.0,0.0,0.0,1.0,0.0,0.0,0.0,1.0,-0.00954623706639,0.0332923196256,-0.0933177322149,1.21846967915e-07,0.0,0.0,0.0,1.21846967915e-07,0.0,0.0,0.0,1.21846967915e-07,0.3334261,0.5687857,10.0420096,9e-08,0.0,0.0,0.0,9e-08,0.0,0.0,0.0,9e-08
1538768421181454887,2464,1538768421180934471,base_link,0.000550909961037,-0.0483714432642,-0.942201351204,0.331536594909,1.0,0.0,0.0,0.0,1.0,0.0,0.0,0.0,1.0,0.0993666499853,0.03976880759,-0.0553707070649,1.21846967915e-07,0.0,0.0,0.0,1.21846967915e-07,0.0,0.0,0.0,1.21846967915e-07,0.30400615,0.5491724,9.5516771,9e-08,0.0,0.0,0.0,9e-08,0.0,0.0,0.0,9e-08
1538768421611809415,2465,1538768421611339943,base_link,0.00969880393823,-0.0617234663539,-0.946783985139,0.315747101948,1.0,0.0,0.0,0.0,1.0,0.0,0.0,0.0,1.0,0.0538039878011,0.0083677591756,-0.0481113828719,1.21846967915e-07,0.0,0.0,0.0,1.21846967915e-07,0.0,0.0,0.0,1.21846967915e-07,0.34323275,0.4903325,8.1395195,9e-08,0.0,0.0,0.0,9e-08,0.0,0.0,0.0,9e-08
1538768421906915303,2466,1538768421906685351,base_link,0.00642126548833,-0.0599015682927,-0.949497336897,0.307937293441,1.0,0.0,0.0,0.0,1.0,0.0,0.0,0.0,1.0,-0.0269921254367,-0.0314262770116,-0.0527307838202,1.21846967915e-07,0.0,0.0,0.0,1.21846967915e-07,0.0,0.0,0.0,1.21846967915e-07,0.61781895,0.38245935,11.44436055,9e-08,0.0,0.0,0.0,9e-08,0.0,0.0,0.0,9e-08
1538768422304383239,2467,1538768422304069735,base_link,0.000652413759396,-0.0894083892841,-0.946943386184,0.308713358383,1.0,0.0,0.0,0.0,1.0,0.0,0.0,0.0,1.0,0.12380836159,-0.0349278524518,0.090439543128,1.21846967915e-07,0.0,0.0,0.0,1.21846967915e-07,0.0,0.0,0.0,1.21846967915e-07,0.63743225,0.42168595,12.05237285,9e-08,0.0,0.0,0.0,9e-08,0.0,0.0,0.0,9e-08
1538768422762781415,2468,1538768422762379527,base_link,-0.0208770861287,-0.0290024449801,-0.945983342636,0.322239849979,1.0,0.0,0.0,0.0,1.0,0.0,0.0,0.0,1.0,-0.421575456858,0.0776487663388,0.04793876037,1.21846967915e-07,0.0,0.0,0.0,1.21846967915e-07,0.0,0.0,0.0,1.21846967915e-07,0.3530394,0.4707192,7.50208725,9e-08,0.0,0.0,0.0,9e-08,0.0,0.0,0.0,9e-08
1538768423054851751,2469,1538768423054593895,base_link,-0.0170461074327,0.000811076009462,-0.946537728675,0.322141429457,1.0,0.0,0.0,0.0,1.0,0.0,0.0,0.0,1.0,-0.176984325051,0.107312977314,-0.0198015999049,1.21846967915e-07,0.0,0.0,0.0,1.21846967915e-07,0.0,0.0,0.0,1.21846967915e-07,0.44129925,0.5491724,8.4533323,9e-08,0.0,0.0,0.0,9e-08,0.0,0.0,0.0,9e-08
1538768423461131399,2470,1538768423460079911,base_link,0.00981425352435,-0.0442413606907,-0.939070908646,0.340723070788,1.0,0.0,0.0,0.0,1.0,0.0,0.0,0.0,1.0,0.296666175127,0.057148758322,0.183035209775,1.21846967915e-07,0.0,0.0,0.0,1.21846967915e-07,0.0,0.0,0.0,1.21846967915e-07,0.4511059,0.1569064,9.0809579,9e-08,0.0,0.0,0.0,9e-08,0.0,0.0,0.0,9e-08
1538768423868286471,2471,1538768423867614919,base_link,0.0145123540375,-0.0335543478409,-0.931787347195,0.361159018895,1.0,0.0,0.0,0.0,1.0,0.0,0.0,0.0,1.0,-0.274973839521,0.0941954478621,-0.0804360434413,1.21846967915e-07,0.0,0.0,0.0,1.21846967915e-07,0.0,0.0,0.0,1.21846967915e-07,0.44129925,1.2944778,8.7475318,9e-08,0.0,0.0,0.0,9e-08,0.0,0.0,0.0,9e-08
1538768424217258375,2472,1538768424216960135,base_link,0.0132605240697,-0.00538933424432,-0.941056878989,0.337945356655,1.0,0.0,0.0,0.0,1.0,0.0,0.0,0.0,1.0,0.000108167529106,-0.00159411272034,-0.146856024861,1.21846967915e-07,0.0,0.0,0.0,1.21846967915e-07,0.0,0.0,0.0,1.21846967915e-07,0.3726527,0.32361945,9.34573745,9e-08,0.0,0.0,0.0,9e-08,0.0,0.0,0.0,9e-08
1538768424629351719,2473,1538768424628809927,base_link,0.00789801800385,-0.0173573570274,-0.943814759204,0.32992430007,1.0,0.0,0.0,0.0,1.0,0.0,0.0,0.0,1.0,-0.0274207610637,-0.0674015134573,0.0581367053092,1.21846967915e-07,0.0,0.0,0.0,1.21846967915e-07,0.0,0.0,0.0,1.21846967915e-07,0.5099458,0.18632635,9.87529655,9e-08,0.0,0.0,0.0,9e-08,0.0,0.0,0.0,9e-08
1538768425038498951,2474,1538768425038083271,base_link,-0.0122297697793,-0.0224312591222,-0.935361274017,0.352769837733,1.0,0.0,0.0,0.0,1.0,0.0,0.0,0.0,1.0,-0.073181964457,-0.0466017685831,0.123768046498,1.21846967915e-07,0.0,0.0,0.0,1.21846967915e-07,0.0,0.0,0.0,1.21846967915e-07,0.8237586,0.6276256,13.4743371,9e-08,0.0,0.0,0.0,9e-08,0.0,0.0,0.0,9e-08
1538768425560942119,2475,1538768425560627815,base_link,-0.0162772348107,-0.0229192766201,-0.92842978727,0.370442827567,1.0,0.0,0.0,0.0,1.0,0.0,0.0,0.0,1.0,-0.0130924563855,0.0302734468132,-0.00602217996493,1.21846967915e-07,0.0,0.0,0.0,1.21846967915e-07,0.0,0.0,0.0,1.21846967915e-07,0.2549729,0.5687857,9.16921775,9e-08,0.0,0.0,0.0,9e-08,0.0,0.0,0.0,9e-08
1538768425865334983,2476,1538768425861420775,base_link,-0.0113067428485,-0.0125722620111,-0.932873802564,0.359806287165,1.0,0.0,0.0,0.0,1.0,0.0,0.0,0.0,1.0,-0.129531636834,0.0614775791764,-0.142747849226,1.21846967915e-07,0.0,0.0,0.0,1.21846967915e-07,0.0,0.0,0.0,1.21846967915e-07,0.34323275,1.0198916,9.44380395,9e-08,0.0,0.0,0.0,9e-08,0.0,0.0,0.0,9e-08
1538768426177812583,2477,1538768426169697863,base_link,0.00370100946022,-0.0268454737838,-0.942871738676,0.332051965017,1.0,0.0,0.0,0.0,1.0,0.0,0.0,0.0,1.0,0.317414969206,0.0241650491953,-0.172504886985,1.21846967915e-07,0.0,0.0,0.0,1.21846967915e-07,0.0,0.0,0.0,1.21846967915e-07,0.32361945,0.0588399,9.62032365,9e-08,0.0,0.0,0.0,9e-08,0.0,0.0,0.0,9e-08
1538768426364318855,2478,1538768426363981959,base_link,0.0128966507464,-0.0509339210561,-0.944391927014,0.324597135348,1.0,0.0,0.0,0.0,1.0,0.0,0.0,0.0,1.0,0.171182483435,-0.0191945098341,0.0261093620211,1.21846967915e-07,0.0,0.0,0.0,1.21846967915e-07,0.0,0.0,0.0,1.21846967915e-07,0.3726527,-0.00980665,10.16949605,9e-08,0.0,0.0,0.0,9e-08,0.0,0.0,0.0,9e-08
1538768426604493095,2479,1538768426604300007,base_link,0.0108586424953,-0.0602472234114,-0.9414494417,0.331549861525,1.0,0.0,0.0,0.0,1.0,0.0,0.0,0.0,1.0,-0.0223932266235,-0.048755466938,0.0754227265716,1.21846967915e-07,0.0,0.0,0.0,1.21846967915e-07,0.0,0.0,0.0,1.21846967915e-07,0.392266,0.48052585,10.34601575,9e-08,0.0,0.0,0.0,9e-08,0.0,0.0,0.0,9e-08
1538768427056251815,2480,1538768427055852967,base_link,-0.000549851837736,-0.0347148326153,-0.942953310138,0.331109699283,1.0,0.0,0.0,0.0,1.0,0.0,0.0,0.0,1.0,-0.136356055737,0.021715015173,-0.0598046928644,1.21846967915e-07,0.0,0.0,0.0,1.21846967915e-07,0.0,0.0,0.0,1.21846967915e-07,0.4118793,0.7256921,10.0812362,9e-08,0.0,0.0,0.0,9e-08,0.0,0.0,0.0,9e-08
1538768427464609767,2481,1538768427464325095,base_link,0.00455419891001,-0.0372763194433,-0.945471483244,0.323532702604,1.0,0.0,0.0,0.0,1.0,0.0,0.0,0.0,1.0,0.0343287065625,0.00829324219376,0.0166753903031,1.21846967915e-07,0.0,0.0,0.0,1.21846967915e-07,0.0,0.0,0.0,1.21846967915e-07,0.40207265,0.28439285,10.0616229,9e-08,0.0,0.0,0.0,9e-08,0.0,0.0,0.0,9e-08
1538768427847977703,2482,1538768427845668199,base_link,0.000147752079016,-0.029628516854,-0.941699058623,0.335149238618,1.0,0.0,0.0,0.0,1.0,0.0,0.0,0.0,1.0,0.00848134234548,-0.00781022943556,0.120312057436,1.21846967915e-07,0.0,0.0,0.0,1.21846967915e-07,0.0,0.0,0.0,1.21846967915e-07,0.3138128,0.2157463,10.26756255,9e-08,0.0,0.0,0.0,9e-08,0.0,0.0,0.0,9e-08
1538768428258318215,2483,1538768428258027303,base_link,0.00146279940009,-0.0280762631792,-0.935665828967,0.351765604014,1.0,0.0,0.0,0.0,1.0,0.0,0.0,0.0,1.0,-0.0691413730383,0.0272594578564,-0.000460051000118,1.21846967915e-07,0.0,0.0,0.0,1.21846967915e-07,0.0,0.0,0.0,1.21846967915e-07,0.26477955,0.87279185,8.69849855,9e-08,0.0,0.0,0.0,9e-08,0.0,0.0,0.0,9e-08
1538768428753627719,2484,1538768428753366311,base_link,0.0159731384431,-0.0454257819207,-0.941922659446,0.332359836332,1.0,0.0,0.0,0.0,1.0,0.0,0.0,0.0,1.0,0.0388908945024,0.00709606893361,-0.0604753494263,1.21846967915e-07,0.0,0.0,0.0,1.21846967915e-07,0.0,0.0,0.0,1.21846967915e-07,0.22555295,0.59820565,8.60043205,9e-08,0.0,0.0,0.0,9e-08,0.0,0.0,0.0,9e-08
1538768429111615239,2485,1538768429111341255,base_link,0.0172284445011,-0.0428806798871,-0.946447432992,0.319533542177,1.0,0.0,0.0,0.0,1.0,0.0,0.0,0.0,1.0,0.00133441202343,0.00231739971787,-0.0754619315267,1.21846967915e-07,0.0,0.0,0.0,1.21846967915e-07,0.0,0.0,0.0,1.21846967915e-07,0.28439285,0.65704555,11.34629405,9e-08,0.0,0.0,0.0,9e-08,0.0,0.0,0.0,9e-08
1538768429495264807,2486,1538768429494899975,base_link,0.017268415195,-0.0454402757327,-0.947600121214,0.315738805744,1.0,0.0,0.0,0.0,1.0,0.0,0.0,0.0,1.0,-0.018104063347,-0.0194529294968,0.0381036438048,1.21846967915e-07,0.0,0.0,0.0,1.21846967915e-07,0.0,0.0,0.0,1.21846967915e-07,0.3138128,0.44129925,11.03248125,9e-08,0.0,0.0,0.0,9e-08,0.0,0.0,0.0,9e-08
1538768429864955751,2487,1538768429864712327,base_link,0.0155643066216,-0.0481182803568,-0.944885002412,0.323472897893,1.0,0.0,0.0,0.0,1.0,0.0,0.0,0.0,1.0,-0.0259723719209,0.00580571219325,0.0411813296378,1.21846967915e-07,0.0,0.0,0.0,1.21846967915e-07,0.0,0.0,0.0,1.21846967915e-07,0.22555295,0.46091255,10.93441475,9e-08,0.0,0.0,0.0,9e-08,0.0,0.0,0.0,9e-08
1538768430174221351,2488,1538768430173744647,base_link,0.0115679342428,-0.0305023871886,-0.943968071308,0.328420565166,1.0,0.0,0.0,0.0,1.0,0.0,0.0,0.0,1.0,-0.0506592914462,0.022044017911,0.00369624514133,1.21846967915e-07,0.0,0.0,0.0,1.21846967915e-07,0.0,0.0,0.0,1.21846967915e-07,0.02941995,0.6080123,9.28689755,9e-08,0.0,0.0,0.0,9e-08,0.0,0.0,0.0,9e-08
1538768430587245767,2489,1538768430586890215,base_link,0.0108487870268,-0.000902595104399,-0.946408232173,0.322789323271,1.0,0.0,0.0,0.0,1.0,0.0,0.0,0.0,1.0,0.027067059651,0.0724953860044,-0.0347090028226,1.21846967915e-07,0.0,0.0,0.0,1.21846967915e-07,0.0,0.0,0.0,1.21846967915e-07,0.0196133,0.36284605,9.91452315,9e-08,0.0,0.0,0.0,9e-08,0.0,0.0,0.0,9e-08
1538768431109018567,2490,1538768431104624551,base_link,0.0199621380906,-0.019376456939,-0.943709017672,0.32960484815,1.0,0.0,0.0,0.0,1.0,0.0,0.0,0.0,1.0,0.0499375909567,-0.0473866760731,0.0637989491224,1.21846967915e-07,0.0,0.0,0.0,1.21846967915e-07,0.0,0.0,0.0,1.21846967915e-07,-0.1569064,0.2549729,9.5516771,9e-08,0.0,0.0,0.0,9e-08,0.0,0.0,0.0,9e-08
1538768431395228007,2491,1538768431394540775,base_link,0.0204309914581,-0.041832628782,-0.941532453345,0.333690343066,1.0,0.0,0.0,0.0,1.0,0.0,0.0,0.0,1.0,0.202215701342,-0.0396427772939,0.0524391084909,1.21846967915e-07,0.0,0.0,0.0,1.21846967915e-07,0.0,0.0,0.0,1.21846967915e-07,-0.0392266,0.24516625,10.8461549,9e-08,0.0,0.0,0.0,9e-08,0.0,0.0,0.0,9e-08
1538768431846839335,2492,1538768431846522631,base_link,0.0150229633666,-0.0362825447203,-0.940933793006,0.33630564179,1.0,0.0,0.0,0.0,1.0,0.0,0.0,0.0,1.0,-0.0376317203045,0.00883644260466,-0.0395344421268,1.21846967915e-07,0.0,0.0,0.0,1.21846967915e-07,0.0,0.0,0.0,1.21846967915e-07,-0.0392266,0.6864655,10.0616229,9e-08,0.0,0.0,0.0,9e-08,0.0,0.0,0.0,9e-08
1538768432176525543,2493,1538768432175462887,base_link,0.0138717458057,-0.0236224845063,-0.944796217786,0.32651134705,1.0,0.0,0.0,0.0,1.0,0.0,0.0,0.0,1.0,-0.0688087642193,0.0112092830241,-0.0638556405902,1.21846967915e-07,0.0,0.0,0.0,1.21846967915e-07,0.0,0.0,0.0,1.21846967915e-07,-0.00980665,0.38245935,9.6693569,9e-08,0.0,0.0,0.0,9e-08,0.0,0.0,0.0,9e-08
1538768432546793863,2494,1538768432546363975,base_link,0.0162441373461,-0.0243666353142,-0.946476648792,0.321441049615,1.0,0.0,0.0,0.0,1.0,0.0,0.0,0.0,1.0,-0.00352322310209,-0.00597111973912,0.011806323193,1.21846967915e-07,0.0,0.0,0.0,1.21846967915e-07,0.0,0.0,0.0,1.21846967915e-07,0.0588399,0.2353596,9.4928372,9e-08,0.0,0.0,0.0,9e-08,0.0,0.0,0.0,9e-08
1538768432941075847,2495,1538768432940610311,base_link,0.0126973928383,-0.0194993026235,-0.943496842183,0.330563552441,1.0,0.0,0.0,0.0,1.0,0.0,0.0,0.0,1.0,0.016371442005,-0.00981123000383,0.0493915304542,1.21846967915e-07,0.0,0.0,0.0,1.21846967915e-07,0.0,0.0,0.0,1.21846967915e-07,0.1176798,0.36284605,10.34601575,9e-08,0.0,0.0,0.0,9e-08,0.0,0.0,0.0,9e-08
1538768433236104231,2496,1538768433235746343,base_link,0.0166931075421,-0.0294416352338,-0.94150783672,0.335287225631,1.0,0.0,0.0,0.0,1.0,0.0,0.0,0.0,1.0,0.0838975310326,0.0161118507385,0.0187388900667,1.21846967915e-07,0.0,0.0,0.0,1.21846967915e-07,0.0,0.0,0.0,1.21846967915e-07,0.1765197,0.55897905,10.0223963,9e-08,0.0,0.0,0.0,9e-08,0.0,0.0,0.0,9e-08
1538768433593770663,2497,1538768433591339559,base_link,0.0224626276674,-0.0451639824388,-0.941625245138,0.3328626485,1.0,0.0,0.0,0.0,1.0,0.0,0.0,0.0,1.0,0.134986206889,-0.0190548859537,-0.032670725137,1.21846967915e-07,0.0,0.0,0.0,1.21846967915e-07,0.0,0.0,0.0,1.21846967915e-07,0.20593965,0.48052585,10.03220295,9e-08,0.0,0.0,0.0,9e-08,0.0,0.0,0.0,9e-08
1538768434053496103,2498,1538768434051732871,base_link,0.0348025798145,-0.0940817830136,-0.942540721471,0.318675990487,1.0,0.0,0.0,0.0,1.0,0.0,0.0,0.0,1.0,0.289648979902,-0.026550732553,-0.0506848804653,1.21846967915e-07,0.0,0.0,0.0,1.21846967915e-07,0.0,0.0,0.0,1.21846967915e-07,0.2549729,0.392266,9.9439431,9e-08,0.0,0.0,0.0,9e-08,0.0,0.0,0.0,9e-08
1538768434364208647,2499,1538768434363859719,base_link,0.0408109959327,-0.127703088617,-0.941696635839,0.308599789078,1.0,0.0,0.0,0.0,1.0,0.0,0.0,0.0,1.0,0.156117781997,-0.0469703227282,-0.0658259689808,1.21846967915e-07,0.0,0.0,0.0,1.21846967915e-07,0.0,0.0,0.0,1.21846967915e-07,0.26477955,0.5491724,10.48330885,9e-08,0.0,0.0,0.0,9e-08,0.0,0.0,0.0,9e-08
1538768434725424167,2500,1538768434724877767,base_link,0.0430314188266,-0.156400013359,-0.942895987139,0.290920075369,1.0,0.0,0.0,0.0,1.0,0.0,0.0,0.0,1.0,0.128477856517,-0.0505358017981,-0.104320757091,1.21846967915e-07,0.0,0.0,0.0,1.21846967915e-07,0.0,0.0,0.0,1.21846967915e-07,0.36284605,0.784532,10.28717585,9e-08,0.0,0.0,0.0,9e-08,0.0,0.0,0.0,9e-08
1538768435087038727,2501,1538768435086454503,base_link,0.041640514588,-0.179456363914,-0.947297808297,0.262084611129,1.0,0.0,0.0,0.0,1.0,0.0,0.0,0.0,1.0,0.133220911026,-0.0872156098485,-0.160616785288,1.21846967915e-07,0.0,0.0,0.0,1.21846967915e-07,0.0,0.0,0.0,1.21846967915e-07,0.42168595,0.61781895,10.5519554,9e-08,0.0,0.0,0.0,9e-08,0.0,0.0,0.0,9e-08
1538768435370525447,2502,1538768435370248391,base_link,0.036486500987,-0.198111380455,-0.950541959046,0.23641192921,1.0,0.0,0.0,0.0,1.0,0.0,0.0,0.0,1.0,0.062778249383,-0.0962594971061,-0.153626680374,1.21846967915e-07,0.0,0.0,0.0,1.21846967915e-07,0.0,0.0,0.0,1.21846967915e-07,0.392266,0.7256921,11.0619012,9e-08,0.0,0.0,0.0,9e-08,0.0,0.0,0.0,9e-08
1538768435805907239,2503,1538768435805584679,base_link,0.0287344598905,-0.221273920649,-0.955784147205,0.191543328797,1.0,0.0,0.0,0.0,1.0,0.0,0.0,0.0,1.0,0.109307579696,-0.119362168014,-0.191911384463,1.21846967915e-07,0.0,0.0,0.0,1.21846967915e-07,0.0,0.0,0.0,1.21846967915e-07,0.4511059,0.67665885,11.16977435,9e-08,0.0,0.0,0.0,9e-08,0.0,0.0,0.0,9e-08
1538768436148293735,2504,1538768436148051559,base_link,0.0191136111496,-0.243845988028,-0.957231488832,0.154536988389,1.0,0.0,0.0,0.0,1.0,0.0,0.0,0.0,1.0,0.0699585527182,-0.131304964423,-0.215208351612,1.21846967915e-07,0.0,0.0,0.0,1.21846967915e-07,0.0,0.0,0.0,1.21846967915e-07,0.51975245,0.6864655,10.44408225,9e-08,0.0,0.0,0.0,9e-08,0.0,0.0,0.0,9e-08
1538768436546175207,2505,1538768436545880103,base_link,0.00236418801638,-0.259639711228,-0.959879231056,0.105893780534,1.0,0.0,0.0,0.0,1.0,0.0,0.0,0.0,1.0,0.00807868223637,-0.146544128656,-0.201180756092,1.21846967915e-07,0.0,0.0,0.0,1.21846967915e-07,0.0,0.0,0.0,1.21846967915e-07,0.67665885,0.8237586,11.77778665,9e-08,0.0,0.0,0.0,9e-08,0.0,0.0,0.0,9e-08
1538768436987026535,2506,1538768436986634887,base_link,-0.0129461419759,-0.264565644592,-0.963179692106,0.0460684037554,1.0,0.0,0.0,0.0,1.0,0.0,0.0,0.0,1.0,0.0455260276794,-0.102693133056,-0.28611266613,1.21846967915e-07,0.0,0.0,0.0,1.21846967915e-07,0.0,0.0,0.0,1.21846967915e-07,0.8041453,0.784532,11.11093445,9e-08,0.0,0.0,0.0,9e-08,0.0,0.0,0.0,9e-08
1538768437347800103,2507,1538768437346825223,base_link,-0.0228624432201,-0.297589383607,-0.954388638421,-0.0077584990779,1.0,0.0,0.0,0.0,1.0,0.0,0.0,0.0,1.0,0.0721895694733,-0.151370942593,-0.255484521389,1.21846967915e-07,0.0,0.0,0.0,1.21846967915e-07,0.0,0.0,0.0,1.21846967915e-07,0.67665885,0.7060788,10.36562905,9e-08,0.0,0.0,0.0,9e-08,0.0,0.0,0.0,9e-08
1538768437704143847,2508,1538768437703900615,base_link,-0.0382108258528,-0.313422868816,-0.946599721286,-0.0652304051259,1.0,0.0,0.0,0.0,1.0,0.0,0.0,0.0,1.0,0.107471317053,-0.174842268229,-0.275034427643,1.21846967915e-07,0.0,0.0,0.0,1.21846967915e-07,0.0,0.0,0.0,1.21846967915e-07,0.7060788,0.67665885,10.395049,9e-08,0.0,0.0,0.0,9e-08,0.0,0.0,0.0,9e-08
1538768438024689543,2509,1538768438024120583,base_link,-0.0565736130599,-0.327645275362,-0.935657083514,-0.118295485582,1.0,0.0,0.0,0.0,1.0,0.0,0.0,0.0,1.0,0.0141008207574,-0.208353936672,-0.274842083454,1.21846967915e-07,0.0,0.0,0.0,1.21846967915e-07,0.0,0.0,0.0,1.21846967915e-07,0.81395195,0.9022118,11.2972608,9e-08,0.0,0.0,0.0,9e-08,0.0,0.0,0.0,9e-08
1538768438365418343,2510,1538768438364935399,base_link,-0.0752079816811,-0.321458174019,-0.926336141566,-0.181410459117,1.0,0.0,0.0,0.0,1.0,0.0,0.0,0.0,1.0,0.0392347127199,-0.268388718367,-0.37623372674,1.21846967915e-07,0.0,0.0,0.0,1.21846967915e-07,0.0,0.0,0.0,1.21846967915e-07,0.95124505,1.24544455,11.6306869,9e-08,0.0,0.0,0.0,9e-08,0.0,0.0,0.0,9e-08
1538768438785850919,2511,1538768438785489511,base_link,-0.105267246306,-0.333024016741,-0.897391858285,-0.269632460607,1.0,0.0,0.0,0.0,1.0,0.0,0.0,0.0,1.0,0.0399853102863,-0.298667371273,-0.34329649806,1.21846967915e-07,0.0,0.0,0.0,1.21846967915e-07,0.0,0.0,0.0,1.21846967915e-07,1.0002783,1.0002783,12.60154525,9e-08,0.0,0.0,0.0,9e-08,0.0,0.0,0.0,9e-08
1538768439118111815,2512,1538768439117714983,base_link,-0.130197029133,-0.327121679403,-0.871844815799,-0.340480186843,1.0,0.0,0.0,0.0,1.0,0.0,0.0,0.0,1.0,-0.0528502762318,-0.284251451492,-0.375865757465,1.21846967915e-07,0.0,0.0,0.0,1.21846967915e-07,0.0,0.0,0.0,1.21846967915e-07,1.1964113,1.4121576,13.2782041,9e-08,0.0,0.0,0.0,9e-08,0.0,0.0,0.0,9e-08
1538768439463816647,2513,1538768439461875335,base_link,-0.157394483222,-0.327628044064,-0.831014671655,-0.421071795409,1.0,0.0,0.0,0.0,1.0,0.0,0.0,0.0,1.0,0.0831822156906,-0.311083823442,-0.409740000963,1.21846967915e-07,0.0,0.0,0.0,1.21846967915e-07,0.0,0.0,0.0,1.21846967915e-07,1.0591182,1.0198916,12.50347875,9e-08,0.0,0.0,0.0,9e-08,0.0,0.0,0.0,9e-08
1538768439707465031,2514,1538768439707156423,base_link,-0.175215621016,-0.303014179028,-0.80718600923,-0.475323721229,1.0,0.0,0.0,0.0,1.0,0.0,0.0,0.0,1.0,-0.100753419101,-0.347506463528,-0.361667752266,1.21846967915e-07,0.0,0.0,0.0,1.21846967915e-07,0.0,0.0,0.0,1.21846967915e-07,0.95124505,0.50013915,12.7094184,9e-08,0.0,0.0,0.0,9e-08,0.0,0.0,0.0,9e-08
1538768440093582823,2515,1538768440092569703,base_link,-0.232533091343,-0.284137277211,-0.759948089837,-0.5363518154,1.0,0.0,0.0,0.0,1.0,0.0,0.0,0.0,1.0,0.0525835230947,-0.436072826385,-0.174067571759,1.21846967915e-07,0.0,0.0,0.0,1.21846967915e-07,0.0,0.0,0.0,1.21846967915e-07,1.0198916,0.8433719,15.7102533,9e-08,0.0,0.0,0.0,9e-08,0.0,0.0,0.0,9e-08
1538768440366432199,2516,1538768440359013863,base_link,-0.256691843406,-0.253810146407,-0.738066027222,-0.570042319982,1.0,0.0,0.0,0.0,1.0,0.0,0.0,0.0,1.0,-0.176671549678,-0.37066206336,-0.227579250932,1.21846967915e-07,0.0,0.0,0.0,1.21846967915e-07,0.0,0.0,0.0,1.21846967915e-07,1.2160246,1.01008495,15.0434011,9e-08,0.0,0.0,0.0,9e-08,0.0,0.0,0.0,9e-08
1538768440715184615,2517,1538768440714891271,base_link,-0.244674743898,-0.196882884185,-0.703219238815,-0.637851159577,1.0,0.0,0.0,0.0,1.0,0.0,0.0,0.0,1.0,-0.405011802912,-0.201730743051,-0.357113420963,1.21846967915e-07,0.0,0.0,0.0,1.21846967915e-07,0.0,0.0,0.0,1.21846967915e-07,0.79433865,0.9218251,12.01314625,9e-08,0.0,0.0,0.0,9e-08,0.0,0.0,0.0,9e-08
1538768441073362791,2518,1538768441068209927,base_link,-0.212749214463,-0.139164425394,-0.673181340705,-0.69440472131,1.0,0.0,0.0,0.0,1.0,0.0,0.0,0.0,1.0,-0.463012546301,-0.16654612124,-0.22935077548,1.21846967915e-07,0.0,0.0,0.0,1.21846967915e-07,0.0,0.0,0.0,1.21846967915e-07,0.4511059,0.6472389,11.8268199,9e-08,0.0,0.0,0.0,9e-08,0.0,0.0,0.0,9e-08
1538768441476657415,2519,1538768441476327751,base_link,-0.154619772913,-0.0618965604485,-0.649570878177,-0.741835032776,1.0,0.0,0.0,0.0,1.0,0.0,0.0,0.0,1.0,-0.409242779016,-0.0745828226209,-0.19632782042,1.21846967915e-07,0.0,0.0,0.0,1.21846967915e-07,0.0,0.0,0.0,1.21846967915e-07,0.2941995,0.4903325,11.46397385,9e-08,0.0,0.0,0.0,9e-08,0.0,0.0,0.0,9e-08
1538768441875374695,2520,1538768441874873543,base_link,-0.0821382327679,0.00430402993545,-0.632451104356,-0.770220998573,1.0,0.0,0.0,0.0,1.0,0.0,0.0,0.0,1.0,-0.532925307751,0.00442878529429,-0.0608546882868,1.21846967915e-07,0.0,0.0,0.0,1.21846967915e-07,0.0,0.0,0.0,1.21846967915e-07,0.2549729,0.59820565,11.4149406,9e-08,0.0,0.0,0.0,9e-08,0.0,0.0,0.0,9e-08
1538768442314055271,2521,1538768442313589031,base_link,0.0161888739504,0.0654467954871,-0.611146107409,-0.788641282662,1.0,0.0,0.0,0.0,1.0,0.0,0.0,0.0,1.0,-0.239570587873,0.069559507072,-0.122293882072,1.21846967915e-07,0.0,0.0,0.0,1.21846967915e-07,0.0,0.0,0.0,1.21846967915e-07,-0.12748645,0.46091255,10.1008495,9e-08,0.0,0.0,0.0,9e-08,0.0,0.0,0.0,9e-08
1538768442654575111,2522,1538768442651900807,base_link,0.0289076621351,0.0688964583549,-0.605302931366,-0.792480906001,1.0,0.0,0.0,0.0,1.0,0.0,0.0,0.0,1.0,-0.00195075944066,0.0394498296082,0.0797250419855,1.21846967915e-07,0.0,0.0,0.0,1.21846967915e-07,0.0,0.0,0.0,1.21846967915e-07,-0.16671305,0.04903325,10.05181625,9e-08,0.0,0.0,0.0,9e-08,0.0,0.0,0.0,9e-08
1538768443101978663,2523,1538768443101531303,base_link,0.042782264584,0.0657281677777,-0.638341570212,-0.76574769052,1.0,0.0,0.0,0.0,1.0,0.0,0.0,0.0,1.0,-0.221612632275,0.0136631205678,0.202182561159,1.21846967915e-07,0.0,0.0,0.0,1.21846967915e-07,0.0,0.0,0.0,1.21846967915e-07,-0.12748645,0.73549875,11.5522337,9e-08,0.0,0.0,0.0,9e-08,0.0,0.0,0.0,9e-08
1538768443524133351,2524,1538768443523701671,base_link,0.0511334589629,0.045562631659,-0.651035617166,-0.755951083835,1.0,0.0,0.0,0.0,1.0,0.0,0.0,0.0,1.0,0.304842919111,0.148586630821,0.0311464127153,1.21846967915e-07,0.0,0.0,0.0,1.21846967915e-07,0.0,0.0,0.0,1.21846967915e-07,-0.3726527,-0.196133,6.07031635,9e-08,0.0,0.0,0.0,9e-08,0.0,0.0,0.0,9e-08
1538768443866814119,2525,1538768443865012295,base_link,0.0265821243218,-0.00390297799354,-0.669963357449,-0.74190784947,1.0,0.0,0.0,0.0,1.0,0.0,0.0,0.0,1.0,0.0826455801725,0.0995855331421,0.142162650824,1.21846967915e-07,0.0,0.0,0.0,1.21846967915e-07,0.0,0.0,0.0,1.21846967915e-07,-0.2157463,0.40207265,9.16921775,9e-08,0.0,0.0,0.0,9e-08,0.0,0.0,0.0,9e-08
1538768444257056519,2526,1538768444256568615,base_link,0.0468657914623,-0.0171044376335,-0.680523836207,-0.731025542754,1.0,0.0,0.0,0.0,1.0,0.0,0.0,0.0,1.0,-0.112666346133,0.104805469513,-0.0102218687534,1.21846967915e-07,0.0,0.0,0.0,1.21846967915e-07,0.0,0.0,0.0,1.21846967915e-07,-0.34323275,0.59820565,9.09076455,9e-08,0.0,0.0,0.0,9e-08,0.0,0.0,0.0,9e-08
1538768444721019655,2527,1538768444720647719,base_link,0.0218717040317,-0.0690884328391,-0.666615043885,-0.741871148028,1.0,0.0,0.0,0.0,1.0,0.0,0.0,0.0,1.0,0.202781379223,0.0342134125531,-0.13965369761,1.21846967915e-07,0.0,0.0,0.0,1.21846967915e-07,0.0,0.0,0.0,1.21846967915e-07,-0.5099458,0.42168595,9.16921775,9e-08,0.0,0.0,0.0,9e-08,0.0,0.0,0.0,9e-08
1538768445031273383,2528,1538768445030494247,base_link,-0.0260489723441,-0.113519299797,-0.650321840849,-0.750677242847,1.0,0.0,0.0,0.0,1.0,0.0,0.0,0.0,1.0,0.384366393089,0.0125892348588,-0.0447782315314,1.21846967915e-07,0.0,0.0,0.0,1.21846967915e-07,0.0,0.0,0.0,1.21846967915e-07,-0.36284605,0.3726527,10.2773692,9e-08,0.0,0.0,0.0,9e-08,0.0,0.0,0.0,9e-08
1538768445379769831,2529,1538768445379134311,base_link,-0.0739240543363,-0.151846200415,-0.637478931922,-0.75173038848,1.0,0.0,0.0,0.0,1.0,0.0,0.0,0.0,1.0,0.33898383379,-0.0261337403208,-0.0585101693869,1.21846967915e-07,0.0,0.0,0.0,1.21846967915e-07,0.0,0.0,0.0,1.21846967915e-07,-0.3138128,0.6080123,11.48358715,9e-08,0.0,0.0,0.0,9e-08,0.0,0.0,0.0,9e-08
1538768445811941319,2530,1538768445811630439,base_link,-0.121067709331,-0.184687366226,-0.609666936751,-0.761274860183,1.0,0.0,0.0,0.0,1.0,0.0,0.0,0.0,1.0,0.157222658396,-0.0855658203363,-0.167946696281,1.21846967915e-07,0.0,0.0,0.0,1.21846967915e-07,0.0,0.0,0.0,1.21846967915e-07,-0.4903325,0.79433865,11.0226746,9e-08,0.0,0.0,0.0,9e-08,0.0,0.0,0.0,9e-08
1538768446223404775,2531,1538768446223183271,base_link,-0.161264605911,-0.203228087757,-0.558333652868,-0.788007362467,1.0,0.0,0.0,0.0,1.0,0.0,0.0,0.0,1.0,0.231267288327,-0.130643293262,-0.266870290041,1.21846967915e-07,0.0,0.0,0.0,1.21846967915e-07,0.0,0.0,0.0,1.21846967915e-07,-0.32361945,0.61781895,9.73800345,9e-08,0.0,0.0,0.0,9e-08,0.0,0.0,0.0,9e-08
1538768446580051431,2532,1538768446571739623,base_link,-0.20648017744,-0.213496713252,-0.508091295407,-0.808472835218,1.0,0.0,0.0,0.0,1.0,0.0,0.0,0.0,1.0,0.196988016367,-0.185737788677,-0.240992724895,1.21846967915e-07,0.0,0.0,0.0,1.21846967915e-07,0.0,0.0,0.0,1.21846967915e-07,-0.24516625,0.5491724,11.2776475,9e-08,0.0,0.0,0.0,9e-08,0.0,0.0,0.0,9e-08
1538768447016906151,2533,1538768447016315943,base_link,-0.254108413756,-0.209665716188,-0.436502652729,-0.837218391863,1.0,0.0,0.0,0.0,1.0,0.0,0.0,0.0,1.0,0.173496052623,-0.259447783232,-0.350743532181,1.21846967915e-07,0.0,0.0,0.0,1.21846967915e-07,0.0,0.0,0.0,1.21846967915e-07,-0.08825985,0.8237586,11.6895268,9e-08,0.0,0.0,0.0,9e-08,0.0,0.0,0.0,9e-08
1538768447359093991,2534,1538768447353212775,base_link,-0.285588666831,-0.192382779666,-0.37097098223,-0.862443337158,1.0,0.0,0.0,0.0,1.0,0.0,0.0,0.0,1.0,0.115538239479,-0.352267444134,-0.315529644489,1.21846967915e-07,0.0,0.0,0.0,1.21846967915e-07,0.0,0.0,0.0,1.21846967915e-07,0.0588399,0.65704555,14.4157755,9e-08,0.0,0.0,0.0,9e-08,0.0,0.0,0.0,9e-08
1538768447859275879,2535,1538768447858884263,base_link,-0.344248842626,-0.140748509517,-0.281269323968,-0.884629955865,1.0,0.0,0.0,0.0,1.0,0.0,0.0,0.0,1.0,0.111222803593,-0.36711448431,-0.233800649643,1.21846967915e-07,0.0,0.0,0.0,1.21846967915e-07,0.0,0.0,0.0,1.21846967915e-07,0.2157463,1.1571847,14.11176935,9e-08,0.0,0.0,0.0,9e-08,0.0,0.0,0.0,9e-08
1538768448382712647,2536,1538768448374424999,base_link,-0.346111797139,-0.079025470777,-0.177914576813,-0.917773393713,1.0,0.0,0.0,0.0,1.0,0.0,0.0,0.0,1.0,0.00742863770574,-0.332650333643,-0.295053035021,1.21846967915e-07,0.0,0.0,0.0,1.21846967915e-07,0.0,0.0,0.0,1.21846967915e-07,0.6668522,0.9022118,17.48525695,9e-08,0.0,0.0,0.0,9e-08,0.0,0.0,0.0,9e-08
1538768448762264871,2537,1538768448761895047,base_link,-0.334507508156,-0.0447719256707,-0.115133751361,-0.934261430733,1.0,0.0,0.0,0.0,1.0,0.0,0.0,0.0,1.0,-0.0801979228854,-0.247914865613,-0.288220107555,1.21846967915e-07,0.0,0.0,0.0,1.21846967915e-07,0.0,0.0,0.0,1.21846967915e-07,0.06864655,0.81395195,11.3561007,9e-08,0.0,0.0,0.0,9e-08,0.0,0.0,0.0,9e-08
1538768449211092455,2538,1538768449210802631,base_link,-0.319445326291,-0.0141783243401,-0.0247315176,-0.947175807687,1.0,0.0,0.0,0.0,1.0,0.0,0.0,0.0,1.0,-0.0388894230127,-0.184396728873,-0.389732420444,1.21846967915e-07,0.0,0.0,0.0,1.21846967915e-07,0.0,0.0,0.0,1.21846967915e-07,-0.28439285,0.69627215,9.610517,9e-08,0.0,0.0,0.0,9e-08,0.0,0.0,0.0,9e-08
1538768449630828935,2539,1538768449630147943,base_link,-0.345287311236,0.0148673902489,0.05188578915,-0.936943700705,1.0,0.0,0.0,0.0,1.0,0.0,0.0,0.0,1.0,0.243567317724,-0.268973499537,-0.185278281569,1.21846967915e-07,0.0,0.0,0.0,1.21846967915e-07,0.0,0.0,0.0,1.21846967915e-07,-0.0392266,0.46091255,12.4152189,9e-08,0.0,0.0,0.0,9e-08,0.0,0.0,0.0,9e-08
1538768450095112935,2540,1538768450092939303,base_link,-0.330546099622,0.0501612452651,0.121004712751,-0.934655543497,1.0,0.0,0.0,0.0,1.0,0.0,0.0,0.0,1.0,0.0797543525696,-0.225292503834,-0.317437469959,1.21846967915e-07,0.0,0.0,0.0,1.21846967915e-07,0.0,0.0,0.0,1.21846967915e-07,0.02941995,0.9610517,12.1014061,9e-08,0.0,0.0,0.0,9e-08,0.0,0.0,0.0,9e-08
1538768450505725831,2541,1538768450505056135,base_link,-0.308513754663,0.069514086768,0.195793414313,-0.928252117604,1.0,0.0,0.0,0.0,1.0,0.0,0.0,0.0,1.0,-0.308676749468,-0.218452304602,-0.276233971119,1.21846967915e-07,0.0,0.0,0.0,1.21846967915e-07,0.0,0.0,0.0,1.21846967915e-07,0.22555295,0.8237586,12.5917386,9e-08,0.0,0.0,0.0,9e-08,0.0,0.0,0.0,9e-08
1538768450916377863,2542,1538768450916129479,base_link,-0.253719958605,0.0663348660573,0.267618740374,-0.927149436688,1.0,0.0,0.0,0.0,1.0,0.0,0.0,0.0,1.0,-0.197603106499,-0.120957151055,-0.30182364583,1.21846967915e-07,0.0,0.0,0.0,1.21846967915e-07,0.0,0.0,0.0,1.21846967915e-07,0.10787315,0.5099458,9.77723005,9e-08,0.0,0.0,0.0,9e-08,0.0,0.0,0.0,9e-08
1538768451302436807,2543,1538768451302147847,base_link,-0.204346444147,0.0593312890855,0.321913859547,-0.922547449149,1.0,0.0,0.0,0.0,1.0,0.0,0.0,0.0,1.0,-0.280266940594,-0.109222598374,-0.24786131084,1.21846967915e-07,0.0,0.0,0.0,1.21846967915e-07,0.0,0.0,0.0,1.21846967915e-07,-0.00980665,0.73549875,10.4735022,9e-08,0.0,0.0,0.0,9e-08,0.0,0.0,0.0,9e-08
1538768451641157959,2544,1538768451639436199,base_link,-0.146656375131,0.0469795925007,0.363003067539,-0.91897420991,1.0,0.0,0.0,0.0,1.0,0.0,0.0,0.0,1.0,-0.281882435083,-0.0891744866967,-0.22285553813,1.21846967915e-07,0.0,0.0,0.0,1.21846967915e-07,0.0,0.0,0.0,1.21846967915e-07,0.02941995,0.53936575,11.89546645,9e-08,0.0,0.0,0.0,9e-08,0.0,0.0,0.0,9e-08
1538768452069092615,2545,1538768452068795975,base_link,-0.106372227875,0.0392363672399,0.400110880175,-0.90942659967,1.0,0.0,0.0,0.0,1.0,0.0,0.0,0.0,1.0,-0.274795591831,-0.0353804081678,-0.135576456785,1.21846967915e-07,0.0,0.0,0.0,1.21846967915e-07,0.0,0.0,0.0,1.21846967915e-07,-0.2157463,0.4707192,9.18883105,9e-08,0.0,0.0,0.0,9e-08,0.0,0.0,0.0,9e-08
1538768452460712039,2546,1538768452458356647,base_link,-0.0388553963366,0.0139781396369,0.421463473352,-0.905904746879,1.0,0.0,0.0,0.0,1.0,0.0,0.0,0.0,1.0,-0.513429701328,-0.0596541129053,-0.118152365088,1.21846967915e-07,0.0,0.0,0.0,1.21846967915e-07,0.0,0.0,0.0,1.21846967915e-07,-0.04903325,0.79433865,11.6503002,9e-08,0.0,0.0,0.0,9e-08,0.0,0.0,0.0,9e-08
1538768452823471495,2547,1538768452823144647,base_link,-0.00430060579088,-0.00286588278961,0.429223700959,-0.90318342879,1.0,0.0,0.0,0.0,1.0,0.0,0.0,0.0,1.0,-0.233167037368,0.0161937121302,0.024983221665,1.21846967915e-07,0.0,0.0,0.0,1.21846967915e-07,0.0,0.0,0.0,1.21846967915e-07,-0.1569064,0.196133,9.83606995,9e-08,0.0,0.0,0.0,9e-08,0.0,0.0,0.0,9e-08
1538768453240613575,2548,1538768453240285703,base_link,0.0367944509974,-0.0251307652891,0.413660960714,-0.909339992848,1.0,0.0,0.0,0.0,1.0,0.0,0.0,0.0,1.0,-0.365234136581,0.0121755125001,0.0714493691921,1.21846967915e-07,0.0,0.0,0.0,1.21846967915e-07,0.0,0.0,0.0,1.21846967915e-07,-0.30400615,0.67665885,9.50264385,9e-08,0.0,0.0,0.0,9e-08,0.0,0.0,0.0,9e-08
1538768453591682567,2549,1538768453590579655,base_link,0.0553619446928,-0.0358282336362,0.410086734744,-0.90965942129,1.0,0.0,0.0,0.0,1.0,0.0,0.0,0.0,1.0,0.0118845049292,0.0374422110617,0.0166778042912,1.21846967915e-07,0.0,0.0,0.0,1.21846967915e-07,0.0,0.0,0.0,1.21846967915e-07,-0.4314926,0.2353596,9.9635564,9e-08,0.0,0.0,0.0,9e-08,0.0,0.0,0.0,9e-08
1538768454010933415,2550,1538768454010565287,base_link,0.0445093889484,-0.0337027927843,0.40258073661,-0.913680352511,1.0,0.0,0.0,0.0,1.0,0.0,0.0,0.0,1.0,0.0709578245878,0.0056135575287,0.0423764996231,1.21846967915e-07,0.0,0.0,0.0,1.21846967915e-07,0.0,0.0,0.0,1.21846967915e-07,-0.44129925,0.3334261,10.2773692,9e-08,0.0,0.0,0.0,9e-08,0.0,0.0,0.0,9e-08
1538768454431133959,2551,1538768454430764007,base_link,0.0385007691518,-0.0362777683039,0.389882801327,-0.919343796156,1.0,0.0,0.0,0.0,1.0,0.0,0.0,0.0,1.0,-0.0756743848324,0.038203202188,0.0123940361664,1.21846967915e-07,0.0,0.0,0.0,1.21846967915e-07,0.0,0.0,0.0,1.21846967915e-07,-0.3726527,0.75511205,11.2776475,9e-08,0.0,0.0,0.0,9e-08,0.0,0.0,0.0,9e-08
1538768454904444967,2552,1538768454903384199,base_link,0.019450946743,-0.0392673771487,0.399295739324,-0.915774342467,1.0,0.0,0.0,0.0,1.0,0.0,0.0,0.0,1.0,0.100331917405,0.0310252550989,0.00273540080525,1.21846967915e-07,0.0,0.0,0.0,1.21846967915e-07,0.0,0.0,0.0,1.21846967915e-07,-0.5295591,0.20593965,10.14988275,9e-08,0.0,0.0,0.0,9e-08,0.0,0.0,0.0,9e-08
1538768455221766215,2553,1538768455221391175,base_link,0.00543024781579,-0.0406120093288,0.396132214756,-0.917278826497,1.0,0.0,0.0,0.0,1.0,0.0,0.0,0.0,1.0,0.229140952229,0.032391063869,-0.00895959883928,1.21846967915e-07,0.0,0.0,0.0,1.21846967915e-07,0.0,0.0,0.0,1.21846967915e-07,-0.48052585,0.18632635,7.91396655,9e-08,0.0,0.0,0.0,9e-08,0.0,0.0,0.0,9e-08
1538768455656462023,2554,1538768455655682887,base_link,-0.0233154990132,-0.0383287047323,0.386268256312,-0.921294812785,1.0,0.0,0.0,0.0,1.0,0.0,0.0,0.0,1.0,0.0231970287859,0.0475420169532,0.0738544166088,1.21846967915e-07,0.0,0.0,0.0,1.21846967915e-07,0.0,0.0,0.0,1.21846967915e-07,-0.32361945,0.6472389,9.8458766,9e-08,0.0,0.0,0.0,9e-08,0.0,0.0,0.0,9e-08
1538768455964207079,2555,1538768455963203783,base_link,-0.0151496988571,-0.0485346382013,0.381589232745,-0.922932572278,1.0,0.0,0.0,0.0,1.0,0.0,0.0,0.0,1.0,-0.0626418367028,0.00656068930402,-0.00631056819111,1.21846967915e-07,0.0,0.0,0.0,1.21846967915e-07,0.0,0.0,0.0,1.21846967915e-07,-0.30400615,0.44129925,9.91452315,9e-08,0.0,0.0,0.0,9e-08,0.0,0.0,0.0,9e-08
1538768456336775879,2556,1538768456336374727,base_link,-0.0247814648478,-0.0449543264198,0.381108862553,-0.923104014952,1.0,0.0,0.0,0.0,1.0,0.0,0.0,0.0,1.0,0.122537076473,-0.00189085491002,-0.00522460555658,1.21846967915e-07,0.0,0.0,0.0,1.21846967915e-07,0.0,0.0,0.0,1.21846967915e-07,-0.3138128,0.4707192,9.0809579,9e-08,0.0,0.0,0.0,9e-08,0.0,0.0,0.0,9e-08
1538768456720123559,2557,1538768456713416647,base_link,-0.054033269024,-0.0283621523562,0.38415947349,-0.921247791357,1.0,0.0,0.0,0.0,1.0,0.0,0.0,0.0,1.0,0.20615772903,-0.0158197861165,-0.011582955718,1.21846967915e-07,0.0,0.0,0.0,1.21846967915e-07,0.0,0.0,0.0,1.21846967915e-07,-0.2157463,0.2549729,10.198916,9e-08,0.0,0.0,0.0,9e-08,0.0,0.0,0.0,9e-08
1538768457222455591,2558,1538768457220434183,base_link,-0.0566411714355,-0.0072688771711,0.376590168137,-0.924618184109,1.0,0.0,0.0,0.0,1.0,0.0,0.0,0.0,1.0,0.148558959365,-0.0990996435285,0.0846040174365,1.21846967915e-07,0.0,0.0,0.0,1.21846967915e-07,0.0,0.0,0.0,1.21846967915e-07,0.2353596,0.16671305,13.2978174,9e-08,0.0,0.0,0.0,9e-08,0.0,0.0,0.0,9e-08
1538768457619229575,2559,1538768457618977159,base_link,-0.0598491419676,-0.00184855367061,0.3619891017,-0.930257251144,1.0,0.0,0.0,0.0,1.0,0.0,0.0,0.0,1.0,-0.0155589319766,0.0327694006264,-0.0742218568921,1.21846967915e-07,0.0,0.0,0.0,1.21846967915e-07,0.0,0.0,0.0,1.21846967915e-07,-0.0196133,1.0787315,9.32612415,9e-08,0.0,0.0,0.0,9e-08,0.0,0.0,0.0,9e-08
1538768457908253095,2560,1538768457905969479,base_link,-0.0613975312729,-0.00875213691052,0.380464670307,-0.922713594731,1.0,0.0,0.0,0.0,1.0,0.0,0.0,0.0,1.0,0.0467711873353,0.0214113220572,-0.170414790511,1.21846967915e-07,0.0,0.0,0.0,1.21846967915e-07,0.0,0.0,0.0,1.21846967915e-07,0.0392266,0.3726527,9.4928372,9e-08,0.0,0.0,0.0,9e-08,0.0,0.0,0.0,9e-08
1538768458255779847,2561,1538768458255092007,base_link,-0.0489011457228,-0.00977196432028,0.394762694518,-0.917428799241,1.0,0.0,0.0,0.0,1.0,0.0,0.0,0.0,1.0,-0.197315365076,-0.0958294570446,-0.019250433892,1.21846967915e-07,0.0,0.0,0.0,1.21846967915e-07,0.0,0.0,0.0,1.21846967915e-07,0.196133,0.3138128,10.7480884,9e-08,0.0,0.0,0.0,9e-08,0.0,0.0,0.0,9e-08
1538768458765414535,2562,1538768458765034023,base_link,-0.0146973223833,-0.0117371709341,0.379660160812,-0.924934803014,1.0,0.0,0.0,0.0,1.0,0.0,0.0,0.0,1.0,-0.113648638129,0.00318151270039,0.0820344164968,1.21846967915e-07,0.0,0.0,0.0,1.21846967915e-07,0.0,0.0,0.0,1.21846967915e-07,0.08825985,0.5099458,10.5519554,9e-08,0.0,0.0,0.0,9e-08,0.0,0.0,0.0,9e-08
1538768459112433159,2563,1538768459112096039,base_link,-0.0149688782164,-0.0082304269724,0.378947364387,-0.925260551294,1.0,0.0,0.0,0.0,1.0,0.0,0.0,0.0,1.0,0.00170882418752,-0.0394578762352,-0.0164047461003,1.21846967915e-07,0.0,0.0,0.0,1.21846967915e-07,0.0,0.0,0.0,1.21846967915e-07,0.0392266,0.4707192,9.77723005,9e-08,0.0,0.0,0.0,9e-08,0.0,0.0,0.0,9e-08
1538768459552295143,2564,1538768459551964871,base_link,0.00905443686367,-0.00478094649183,0.370655596646,-0.928713943256,1.0,0.0,0.0,0.0,1.0,0.0,0.0,0.0,1.0,-0.0789621323347,-0.0601438842714,0.116592302918,1.21846967915e-07,0.0,0.0,0.0,1.21846967915e-07,0.0,0.0,0.0,1.21846967915e-07,0.24516625,0.2941995,11.16977435,9e-08,0.0,0.0,0.0,9e-08,0.0,0.0,0.0,9e-08
1538768459855368871,2565,1538768459854976103,base_link,0.00551624995192,0.00348097051469,0.357535696997,-0.93387669379,1.0,0.0,0.0,0.0,1.0,0.0,0.0,0.0,1.0,0.0277274772525,-0.0243606343865,0.0468501523137,1.21846967915e-07,0.0,0.0,0.0,1.21846967915e-07,0.0,0.0,0.0,1.21846967915e-07,0.14709975,0.59820565,10.8069283,9e-08,0.0,0.0,0.0,9e-08,0.0,0.0,0.0,9e-08
1538768460159583751,2566,1538768460159149287,base_link,-0.0175892485023,0.0165481467545,0.355489265056,-0.93436832117,1.0,0.0,0.0,0.0,1.0,0.0,0.0,0.0,1.0,0.220490530133,-0.0307411048561,-0.00589365465567,1.21846967915e-07,0.0,0.0,0.0,1.21846967915e-07,0.0,0.0,0.0,1.21846967915e-07,0.1176798,0.48052585,9.6693569,9e-08,0.0,0.0,0.0,9e-08,0.0,0.0,0.0,9e-08
1538768460431062599,2567,1538768460430180231,base_link,-0.0453204804515,0.0307820651602,0.354961327524,-0.933274329701,1.0,0.0,0.0,0.0,1.0,0.0,0.0,0.0,1.0,0.326018601656,-0.0242350827903,0.00296218786389,1.21846967915e-07,0.0,0.0,0.0,1.21846967915e-07,0.0,0.0,0.0,1.21846967915e-07,0.26477955,0.34323275,11.03248125,9e-08,0.0,0.0,0.0,9e-08,0.0,0.0,0.0,9e-08
1538768460815386183,2568,1538768460811431111,base_link,-0.0700837324965,0.0413571545927,0.3486440388,-0.933715797453,1.0,0.0,0.0,0.0,1.0,0.0,0.0,0.0,1.0,-0.0137549489737,-0.00684625236318,0.0547294355929,1.21846967915e-07,0.0,0.0,0.0,1.21846967915e-07,0.0,0.0,0.0,1.21846967915e-07,0.1765197,0.3334261,9.8851032,9e-08,0.0,0.0,0.0,9e-08,0.0,0.0,0.0,9e-08
1538768461261435015,2569,1538768461261033575,base_link,-0.0632379821088,0.0404731413906,0.338073001672,-0.938120209774,1.0,0.0,0.0,0.0,1.0,0.0,0.0,0.0,1.0,-0.100256845355,0.00811867415905,0.067494250834,1.21846967915e-07,0.0,0.0,0.0,1.21846967915e-07,0.0,0.0,0.0,1.21846967915e-07,-0.0392266,0.24516625,10.7677017,9e-08,0.0,0.0,0.0,9e-08,0.0,0.0,0.0,9e-08
1538768461790521735,2570,1538768461790178215,base_link,-0.0191905248541,0.0212657055358,0.340634027123,-0.939759518755,1.0,0.0,0.0,0.0,1.0,0.0,0.0,0.0,1.0,-0.143657669425,0.0256332848221,-0.021050427109,1.21846967915e-07,0.0,0.0,0.0,1.21846967915e-07,0.0,0.0,0.0,1.21846967915e-07,0.0196133,0.3334261,10.28717585,9e-08,0.0,0.0,0.0,9e-08,0.0,0.0,0.0,9e-08
1538768462157149703,2571,1538768462156131399,base_link,-0.0461387676169,0.0244401897946,0.334242974858,-0.941039598,1.0,0.0,0.0,0.0,1.0,0.0,0.0,0.0,1.0,0.162603288889,0.0213997606188,0.0576351247728,1.21846967915e-07,0.0,0.0,0.0,1.21846967915e-07,0.0,0.0,0.0,1.21846967915e-07,-0.0784532,0.3334261,8.1787461,9e-08,0.0,0.0,0.0,9e-08,0.0,0.0,0.0,9e-08
1538768462555099655,2572,1538768462554504007,base_link,-0.0259284318084,0.0088630329018,0.332740849456,-0.942620119759,1.0,0.0,0.0,0.0,1.0,0.0,0.0,0.0,1.0,-0.0793295204639,0.0679775252938,-0.017133962363,1.21846967915e-07,0.0,0.0,0.0,1.21846967915e-07,0.0,0.0,0.0,1.21846967915e-07,0.0,0.20593965,9.0613446,9e-08,0.0,0.0,0.0,9e-08,0.0,0.0,0.0,9e-08
1538768462886576039,2573,1538768462886238439,base_link,-0.0242890046537,0.00142262849772,0.328266346899,-0.944271796611,1.0,0.0,0.0,0.0,1.0,0.0,0.0,0.0,1.0,0.0394118055701,0.0371042080224,0.0528142414987,1.21846967915e-07,0.0,0.0,0.0,1.21846967915e-07,0.0,0.0,0.0,1.21846967915e-07,0.02941995,0.32361945,8.71811185,9e-08,0.0,0.0,0.0,9e-08,0.0,0.0,0.0,9e-08
1538768463372809415,2574,1538768463369975367,base_link,-0.0212788343911,0.000680843126092,0.313495720801,-0.949350926001,1.0,0.0,0.0,0.0,1.0,0.0,0.0,0.0,1.0,0.0622911006212,-0.039119809866,0.0549276843667,1.21846967915e-07,0.0,0.0,0.0,1.21846967915e-07,0.0,0.0,0.0,1.21846967915e-07,0.0,0.48052585,10.0420096,9e-08,0.0,0.0,0.0,9e-08,0.0,0.0,0.0,9e-08
1538768463747284967,2575,1538768463746977383,base_link,-0.0382662990407,0.013328281216,0.301241215084,-0.952686610388,1.0,0.0,0.0,0.0,1.0,0.0,0.0,0.0,1.0,0.0134397167712,0.0094326660037,0.0427617840469,1.21846967915e-07,0.0,0.0,0.0,1.21846967915e-07,0.0,0.0,0.0,1.21846967915e-07,0.16671305,0.7649187,9.218251,9e-08,0.0,0.0,0.0,9e-08,0.0,0.0,0.0,9e-08
1538768464118872007,2576,1538768464116343239,base_link,-0.0207979041308,0.00784607797677,0.314235902742,-0.949084655693,1.0,0.0,0.0,0.0,1.0,0.0,0.0,0.0,1.0,-0.0727637633681,0.00397606566548,-0.147531479597,1.21846967915e-07,0.0,0.0,0.0,1.21846967915e-07,0.0,0.0,0.0,1.21846967915e-07,0.22555295,0.6472389,12.26811915,9e-08,0.0,0.0,0.0,9e-08,0.0,0.0,0.0,9e-08
1538768464459831079,2577,1538768464459587207,base_link,-0.0241013693896,0.0124882015169,0.332661060474,-0.942655710035,1.0,0.0,0.0,0.0,1.0,0.0,0.0,0.0,1.0,0.0470820143819,-0.0331236086786,-0.0536859594285,1.21846967915e-07,0.0,0.0,0.0,1.21846967915e-07,0.0,0.0,0.0,1.21846967915e-07,0.0588399,0.2941995,10.0223963,9e-08,0.0,0.0,0.0,9e-08,0.0,0.0,0.0,9e-08
1538768464750782599,2578,1538768464749691783,base_link,-0.0315428272181,0.0183286076626,0.32918128424,-0.943561759663,1.0,0.0,0.0,0.0,1.0,0.0,0.0,0.0,1.0,0.0484109669924,-0.00613404065371,0.0688960701227,1.21846967915e-07,0.0,0.0,0.0,1.21846967915e-07,0.0,0.0,0.0,1.21846967915e-07,0.0,0.3530394,9.69877685,9e-08,0.0,0.0,0.0,9e-08,0.0,0.0,0.0,9e-08
1538768465154237767,2579,1538768465153062119,base_link,-0.0327760050197,0.0202877876581,0.321374664698,-0.946167249516,1.0,0.0,0.0,0.0,1.0,0.0,0.0,0.0,1.0,-0.0352744348347,-0.000228358432651,-0.020345820114,1.21846967915e-07,0.0,0.0,0.0,1.21846967915e-07,0.0,0.0,0.0,1.21846967915e-07,0.04903325,0.75511205,10.2381426,9e-08,0.0,0.0,0.0,9e-08,0.0,0.0,0.0,9e-08
1538768465552634759,2580,1538768465550448871,base_link,-0.0130190987113,0.0116863285648,0.328561144465,-0.944320659067,1.0,0.0,0.0,0.0,1.0,0.0,0.0,0.0,1.0,-0.0278094019741,0.0122502446175,-0.0253112465143,1.21846967915e-07,0.0,0.0,0.0,1.21846967915e-07,0.0,0.0,0.0,1.21846967915e-07,0.0,0.1176798,10.07142955,9e-08,0.0,0.0,0.0,9e-08,0.0,0.0,0.0,9e-08
1538768466011752839,2581,1538768466011226119,base_link,-0.0143278533426,0.0129637284424,0.315072525653,-0.948870885812,1.0,0.0,0.0,0.0,1.0,0.0,0.0,0.0,1.0,0.0501626208425,0.0116063728929,0.0797200948,1.21846967915e-07,0.0,0.0,0.0,1.21846967915e-07,0.0,0.0,0.0,1.21846967915e-07,0.18632635,0.392266,11.1207411,9e-08,0.0,0.0,0.0,9e-08,0.0,0.0,0.0,9e-08
1538768466378594087,2582,1538768466378161799,base_link,-0.0440153056193,0.011095929485,0.310929957269,-0.949348247427,1.0,0.0,0.0,0.0,1.0,0.0,0.0,0.0,1.0,0.0848606675863,0.0924594923854,-0.0310907941312,1.21846967915e-07,0.0,0.0,0.0,1.21846967915e-07,0.0,0.0,0.0,1.21846967915e-07,0.02941995,0.51975245,8.28661925,9e-08,0.0,0.0,0.0,9e-08,0.0,0.0,0.0,9e-08
1538768466776879975,2583,1538768466776220583,base_link,-0.0482699555646,-0.000518632825755,0.320109898681,-0.946149774178,1.0,0.0,0.0,0.0,1.0,0.0,0.0,0.0,1.0,-0.00319886393845,0.0704620182514,-0.0948473513126,1.21846967915e-07,0.0,0.0,0.0,1.21846967915e-07,0.0,0.0,0.0,1.21846967915e-07,0.0196133,0.65704555,9.50264385,9e-08,0.0,0.0,0.0,9e-08,0.0,0.0,0.0,9e-08
1538768467267809191,2584,1538768467267310535,base_link,-0.0859510349857,0.00274256718321,0.333797228535,-0.938714178082,1.0,0.0,0.0,0.0,1.0,0.0,0.0,0.0,1.0,0.246423840523,0.0257654562593,0.0028118849732,1.21846967915e-07,0.0,0.0,0.0,1.21846967915e-07,0.0,0.0,0.0,1.21846967915e-07,-0.0392266,0.14709975,8.5906254,9e-08,0.0,0.0,0.0,9e-08,0.0,0.0,0.0,9e-08
1538768467613185383,2585,1538768467611525319,base_link,-0.090714585935,0.00682354029238,0.332938976856,-0.938549913902,1.0,0.0,0.0,0.0,1.0,0.0,0.0,0.0,1.0,-0.0663606226444,-0.0324889309704,-0.0203377977014,1.21846967915e-07,0.0,0.0,0.0,1.21846967915e-07,0.0,0.0,0.0,1.21846967915e-07,0.0392266,0.61781895,9.71839015,9e-08,0.0,0.0,0.0,9e-08,0.0,0.0,0.0,9e-08
1538768468028584807,2586,1538768468028235431,base_link,-0.0822524518455,0.00863011265112,0.341397329874,-0.936273420789,1.0,0.0,0.0,0.0,1.0,0.0,0.0,0.0,1.0,0.0463757440448,-0.0133579792455,-0.0497193410993,1.21846967915e-07,0.0,0.0,0.0,1.21846967915e-07,0.0,0.0,0.0,1.21846967915e-07,0.12748645,0.67665885,10.11065615,9e-08,0.0,0.0,0.0,9e-08,0.0,0.0,0.0,9e-08
1538768468374128839,2587,1538768468372174631,base_link,-0.0603045832985,0.000954379253156,0.353070951225,-0.93365055015,1.0,0.0,0.0,0.0,1.0,0.0,0.0,0.0,1.0,-0.135365873575,0.00631162337959,-0.0945951789618,1.21846967915e-07,0.0,0.0,0.0,1.21846967915e-07,0.0,0.0,0.0,1.21846967915e-07,0.16671305,0.6668522,10.1793027,9e-08,0.0,0.0,0.0,9e-08,0.0,0.0,0.0,9e-08
1538768468698993799,2588,1538768468698814215,base_link,-0.0460040164047,-0.002596249421,0.366092015311,-0.929437209439,1.0,0.0,0.0,0.0,1.0,0.0,0.0,0.0,1.0,-0.0265547558665,-0.0255879759789,-0.0273148883134,1.21846967915e-07,0.0,0.0,0.0,1.21846967915e-07,0.0,0.0,0.0,1.21846967915e-07,0.1569064,0.4314926,9.022118,9e-08,0.0,0.0,0.0,9e-08,0.0,0.0,0.0,9e-08
1538768469017134791,2589,1538768469016607911,base_link,-0.0393350870406,0.00100711056651,0.370034453783,-0.928184378057,1.0,0.0,0.0,0.0,1.0,0.0,0.0,0.0,1.0,-0.091588832438,-0.0639143139124,0.00594105105847,1.21846967915e-07,0.0,0.0,0.0,1.21846967915e-07,0.0,0.0,0.0,1.21846967915e-07,0.2941995,0.3530394,10.7088618,9e-08,0.0,0.0,0.0,9e-08,0.0,0.0,0.0,9e-08
1538768469448620903,2590,1538768469448320231,base_link,-0.00238598271647,0.00101287719597,0.361195390533,-0.932486552731,1.0,0.0,0.0,0.0,1.0,0.0,0.0,0.0,1.0,-0.227321773767,-0.0597585663199,0.0273921638727,1.21846967915e-07,0.0,0.0,0.0,1.21846967915e-07,0.0,0.0,0.0,1.21846967915e-07,0.36284605,0.57859235,11.15016105,9e-08,0.0,0.0,0.0,9e-08,0.0,0.0,0.0,9e-08
1538768469858302407,2591,1538768469854974151,base_link,0.0465162572685,-0.00597636880727,0.354119669945,-0.934023436635,1.0,0.0,0.0,0.0,1.0,0.0,0.0,0.0,1.0,-0.21428848803,-0.0724796429276,0.0571166351438,1.21846967915e-07,0.0,0.0,0.0,1.21846967915e-07,0.0,0.0,0.0,1.21846967915e-07,0.3726527,0.32361945,11.4345539,9e-08,0.0,0.0,0.0,9e-08,0.0,0.0,0.0,9e-08
1538768470158168775,2592,1538768470157678983,base_link,0.0865749252413,-0.0127889521683,0.336726478328,-0.937526801651,1.0,0.0,0.0,0.0,1.0,0.0,0.0,0.0,1.0,-0.218040108681,-0.0278251692653,0.103428557515,1.21846967915e-07,0.0,0.0,0.0,1.21846967915e-07,0.0,0.0,0.0,1.21846967915e-07,0.30400615,0.4903325,8.42391235,9e-08,0.0,0.0,0.0,9e-08,0.0,0.0,0.0,9e-08
1538768470523176039,2593,1538768470522787015,base_link,0.131661089866,-0.0225076030904,0.317007417856,-0.938970213714,1.0,0.0,0.0,0.0,1.0,0.0,0.0,0.0,1.0,-0.400236725807,-0.0581235289574,0.119610905647,1.21846967915e-07,0.0,0.0,0.0,1.21846967915e-07,0.0,0.0,0.0,1.21846967915e-07,0.40207265,0.10787315,10.81673495,9e-08,0.0,0.0,0.0,9e-08,0.0,0.0,0.0,9e-08
1538768470930280615,2594,1538768470928687303,base_link,0.176915505372,-0.0285445199381,0.269862369922,-0.946076326541,1.0,0.0,0.0,0.0,1.0,0.0,0.0,0.0,1.0,-0.186743065715,-0.0686022117734,0.279592067003,1.21846967915e-07,0.0,0.0,0.0,1.21846967915e-07,0.0,0.0,0.0,1.21846967915e-07,0.4314926,0.22555295,10.6892485,9e-08,0.0,0.0,0.0,9e-08,0.0,0.0,0.0,9e-08
1538768471331271303,2595,1538768471330987975,base_link,0.227624212122,-0.0343075122479,0.209189629669,-0.950394608307,1.0,0.0,0.0,0.0,1.0,0.0,0.0,0.0,1.0,-0.115365587175,-0.105708524585,0.251819878817,1.21846967915e-07,0.0,0.0,0.0,1.21846967915e-07,0.0,0.0,0.0,1.21846967915e-07,0.40207265,0.2745862,10.0616229,9e-08,0.0,0.0,0.0,9e-08,0.0,0.0,0.0,9e-08
1538768471760463207,2596,1538768471759216647,base_link,0.234874287839,-0.0199791269898,0.140143427368,-0.961662478816,1.0,0.0,0.0,0.0,1.0,0.0,0.0,0.0,1.0,0.0950698256493,-0.166589722037,0.35231128335,1.21846967915e-07,0.0,0.0,0.0,1.21846967915e-07,0.0,0.0,0.0,1.21846967915e-07,0.59820565,-0.16671305,11.28745415,9e-08,0.0,0.0,0.0,9e-08,0.0,0.0,0.0,9e-08
1538768472344303303,2597,1538768472343709703,base_link,0.292804344359,0.00590061051765,0.0199125046265,-0.955946803373,1.0,0.0,0.0,0.0,1.0,0.0,0.0,0.0,1.0,-0.0793811306357,-0.24958896637,0.309577077627,1.21846967915e-07,0.0,0.0,0.0,1.21846967915e-07,0.0,0.0,0.0,1.21846967915e-07,0.9022118,0.2745862,12.1406327,9e-08,0.0,0.0,0.0,9e-08,0.0,0.0,0.0,9e-08
1538768472713872167,2598,1538768472713601511,base_link,0.287149061664,0.0325086033356,-0.0568612778855,-0.955643972498,1.0,0.0,0.0,0.0,1.0,0.0,0.0,0.0,1.0,-0.00248027220368,-0.24850615859,0.351350903511,1.21846967915e-07,0.0,0.0,0.0,1.21846967915e-07,0.0,0.0,0.0,1.21846967915e-07,0.9218251,0.18632635,13.26839745,9e-08,0.0,0.0,0.0,9e-08,0.0,0.0,0.0,9e-08
1538768473081150407,2599,1538768473080629895,base_link,0.253544001793,0.0518721008019,-0.133932612332,-0.956601682869,1.0,0.0,0.0,0.0,1.0,0.0,0.0,0.0,1.0,0.224520668387,-0.22189052403,0.318667262793,1.21846967915e-07,0.0,0.0,0.0,1.21846967915e-07,0.0,0.0,0.0,1.21846967915e-07,0.9414384,0.6472389,11.26784085,9e-08,0.0,0.0,0.0,9e-08,0.0,0.0,0.0,9e-08
1538768473515985767,2600,1538768473515608903,base_link,0.253883054796,0.0805595803052,-0.201142746629,-0.942653246951,1.0,0.0,0.0,0.0,1.0,0.0,0.0,0.0,1.0,0.102076672018,-0.199487999082,0.262192487717,1.21846967915e-07,0.0,0.0,0.0,1.21846967915e-07,0.0,0.0,0.0,1.21846967915e-07,0.8237586,0.4511059,11.9052731,9e-08,0.0,0.0,0.0,9e-08,0.0,0.0,0.0,9e-08
1538768473845516263,2601,1538768473845253607,base_link,0.254939666032,0.0997333913778,-0.253593505765,-0.927765784647,1.0,0.0,0.0,0.0,1.0,0.0,0.0,0.0,1.0,-0.145721644163,-0.206897720695,0.318713963032,1.21846967915e-07,0.0,0.0,0.0,1.21846967915e-07,0.0,0.0,0.0,1.21846967915e-07,0.980665,0.48052585,12.44463885,9e-08,0.0,0.0,0.0,9e-08,0.0,0.0,0.0,9e-08
1538768474304312487,2602,1538768474303927047,base_link,0.269820335277,0.130929368701,-0.338069485234,-0.892055777536,1.0,0.0,0.0,0.0,1.0,0.0,0.0,0.0,1.0,-0.0813663676381,-0.233348444104,0.361551731825,1.21846967915e-07,0.0,0.0,0.0,1.21846967915e-07,0.0,0.0,0.0,1.21846967915e-07,1.0395049,0.32361945,12.4152189,9e-08,0.0,0.0,0.0,9e-08,0.0,0.0,0.0,9e-08
1538768474787263463,2603,1538768474786950055,base_link,0.275771254011,0.161883508402,-0.434053258635,-0.842224265761,1.0,0.0,0.0,0.0,1.0,0.0,0.0,0.0,1.0,-0.160992950201,-0.234917938709,0.389025181532,1.21846967915e-07,0.0,0.0,0.0,1.21846967915e-07,0.0,0.0,0.0,1.21846967915e-07,0.97085835,0.5295591,13.09187775,9e-08,0.0,0.0,0.0,9e-08,0.0,0.0,0.0,9e-08
1538768475267726215,2604,1538768475267127207,base_link,0.29858059411,0.210739907307,-0.507379466109,-0.780387338224,1.0,0.0,0.0,0.0,1.0,0.0,0.0,0.0,1.0,-0.0594163276255,-0.268332749605,0.329627007246,1.21846967915e-07,0.0,0.0,0.0,1.21846967915e-07,0.0,0.0,0.0,1.21846967915e-07,1.02969825,-0.18632635,11.5914603,9e-08,0.0,0.0,0.0,9e-08,0.0,0.0,0.0,9e-08
1538768475584291367,2605,1538768475583807335,base_link,0.284857942344,0.229176592895,-0.571483571122,-0.734670381797,1.0,0.0,0.0,0.0,1.0,0.0,0.0,0.0,1.0,0.10936409235,-0.35487511754,0.387683063745,1.21846967915e-07,0.0,0.0,0.0,1.21846967915e-07,0.0,0.0,0.0,1.21846967915e-07,1.0198916,0.24516625,13.32723735,9e-08,0.0,0.0,0.0,9e-08,0.0,0.0,0.0,9e-08
1538768476029981735,2606,1538768476029436487,base_link,0.239839996132,0.251560964097,-0.648174650448,-0.677542234931,1.0,0.0,0.0,0.0,1.0,0.0,0.0,0.0,1.0,0.203974679112,-0.34297221899,0.259994328022,1.21846967915e-07,0.0,0.0,0.0,1.21846967915e-07,0.0,0.0,0.0,1.21846967915e-07,0.9218251,-0.18632635,13.2978174,9e-08,0.0,0.0,0.0,9e-08,0.0,0.0,0.0,9e-08
1538768476398805767,2607,1538768476397893959,base_link,0.181354165362,0.247832700677,-0.707543378654,-0.636452658494,1.0,0.0,0.0,0.0,1.0,0.0,0.0,0.0,1.0,0.357986927032,-0.28119969368,0.226368263364,1.21846967915e-07,0.0,0.0,0.0,1.21846967915e-07,0.0,0.0,0.0,1.21846967915e-07,0.9022118,0.1176798,14.83746145,9e-08,0.0,0.0,0.0,9e-08,0.0,0.0,0.0,9e-08
1538768476876891719,2608,1538768476875783879,base_link,0.0743868430623,0.176862616385,-0.770737307732,-0.607577332506,1.0,0.0,0.0,0.0,1.0,0.0,0.0,0.0,1.0,0.719816088676,-0.108234867454,0.264296799898,1.21846967915e-07,0.0,0.0,0.0,1.21846967915e-07,0.0,0.0,0.0,1.21846967915e-07,0.44129925,-0.67665885,13.50375705,9e-08,0.0,0.0,0.0,9e-08,0.0,0.0,0.0,9e-08
1538768477342842471,2609,1538768477342532679,base_link,-0.0088175797311,0.079446389856,-0.823846860457,-0.561147816481,1.0,0.0,0.0,0.0,1.0,0.0,0.0,0.0,1.0,0.500283181667,-0.0290057472885,0.0876025184989,1.21846967915e-07,0.0,0.0,0.0,1.21846967915e-07,0.0,0.0,0.0,1.21846967915e-07,0.04903325,0.30400615,10.24794925,9e-08,0.0,0.0,0.0,9e-08,0.0,0.0,0.0,9e-08
1538768477746071527,2610,1538768477745741479,base_link,-0.0626889511983,-0.00677271986828,-0.825658054254,-0.560636248479,1.0,0.0,0.0,0.0,1.0,0.0,0.0,0.0,1.0,0.456489712,0.0438524186611,-0.128406912088,1.21846967915e-07,0.0,0.0,0.0,1.21846967915e-07,0.0,0.0,0.0,1.21846967915e-07,0.0,0.30400615,10.07142955,9e-08,0.0,0.0,0.0,9e-08,0.0,0.0,0.0,9e-08
1538768478106877287,2611,1538768478106439239,base_link,-0.100953360821,-0.083435799051,-0.815866151339,-0.563213378281,1.0,0.0,0.0,0.0,1.0,0.0,0.0,0.0,1.0,0.335127025843,0.0354655981064,-0.0296284724027,1.21846967915e-07,0.0,0.0,0.0,1.21846967915e-07,0.0,0.0,0.0,1.21846967915e-07,0.0,0.0980665,8.38468575,9e-08,0.0,0.0,0.0,9e-08,0.0,0.0,0.0,9e-08
1538768478430741639,2612,1538768478429688999,base_link,-0.123107925976,-0.128767437838,-0.807219429559,-0.562725668561,1.0,0.0,0.0,0.0,1.0,0.0,0.0,0.0,1.0,0.233123660088,0.045803502202,-0.0891696959734,1.21846967915e-07,0.0,0.0,0.0,1.21846967915e-07,0.0,0.0,0.0,1.21846967915e-07,0.02941995,0.4707192,9.2574776,9e-08,0.0,0.0,0.0,9e-08,0.0,0.0,0.0,9e-08
1538768478847241191,2613,1538768478846830567,base_link,-0.137471302568,-0.174539617427,-0.783769335437,-0.5799510253,1.0,0.0,0.0,0.0,1.0,0.0,0.0,0.0,1.0,0.125124797225,0.0184451490641,-0.187780559063,1.21846967915e-07,0.0,0.0,0.0,1.21846967915e-07,0.0,0.0,0.0,1.21846967915e-07,-0.02941995,0.588399,7.85512665,9e-08,0.0,0.0,0.0,9e-08,0.0,0.0,0.0,9e-08
1538768479206823975,2614,1538768479206597639,base_link,-0.126080709968,-0.173937092984,-0.763220144169,-0.609380467191,1.0,0.0,0.0,0.0,1.0,0.0,0.0,0.0,1.0,-0.0435877665877,-0.0163059104234,-0.196524322033,1.21846967915e-07,0.0,0.0,0.0,1.21846967915e-07,0.0,0.0,0.0,1.21846967915e-07,0.0,0.61781895,10.48330885,9e-08,0.0,0.0,0.0,9e-08,0.0,0.0,0.0,9e-08
1538768479554669383,2615,1538768479554277831,base_link,-0.103534666972,-0.147645803428,-0.753479247391,-0.632258106485,1.0,0.0,0.0,0.0,1.0,0.0,0.0,0.0,1.0,-0.399774551392,-0.0305024422705,-0.0927895754576,1.21846967915e-07,0.0,0.0,0.0,1.21846967915e-07,0.0,0.0,0.0,1.21846967915e-07,-0.1372931,0.63743225,9.26728425,9e-08,0.0,0.0,0.0,9e-08,0.0,0.0,0.0,9e-08
1538768479951794343,2616,1538768479951421927,base_link,-0.0519516218527,-0.0864088839568,-0.750071055596,-0.653626763005,1.0,0.0,0.0,0.0,1.0,0.0,0.0,0.0,1.0,-0.221708655357,-0.00659107416868,-0.0585727579892,1.21846967915e-07,0.0,0.0,0.0,1.21846967915e-07,0.0,0.0,0.0,1.21846967915e-07,0.02941995,0.44129925,9.3947707,9e-08,0.0,0.0,0.0,9e-08,0.0,0.0,0.0,9e-08
1538768480512535015,2617,1538768480510800679,base_link,0.0120484907673,-0.00444464061855,-0.755629055689,-0.654873888042,1.0,0.0,0.0,0.0,1.0,0.0,0.0,0.0,1.0,-0.43501085043,-0.0218261424452,0.0774793475866,1.21846967915e-07,0.0,0.0,0.0,1.21846967915e-07,0.0,0.0,0.0,1.21846967915e-07,-0.08825985,0.5295591,10.26756255,9e-08,0.0,0.0,0.0,9e-08,0.0,0.0,0.0,9e-08
1538768480966939559,2618,1538768480966705191,base_link,0.0868158570742,0.0882839170063,-0.767948654864,-0.628429646382,1.0,0.0,0.0,0.0,1.0,0.0,0.0,0.0,1.0,-0.461608737707,-0.0283198673278,0.120929889381,1.21846967915e-07,0.0,0.0,0.0,1.21846967915e-07,0.0,0.0,0.0,1.21846967915e-07,-0.22555295,0.59820565,10.18910935,9e-08,0.0,0.0,0.0,9e-08,0.0,0.0,0.0,9e-08
1538768481269394951,2619,1538768481269059559,base_link,0.132986776493,0.151619385188,-0.770184308167,-0.605096860649,1.0,0.0,0.0,0.0,1.0,0.0,0.0,0.0,1.0,-0.376071661711,-0.0587951689959,0.144746214151,1.21846967915e-07,0.0,0.0,0.0,1.21846967915e-07,0.0,0.0,0.0,1.21846967915e-07,-0.16671305,0.36284605,10.71866845,9e-08,0.0,0.0,0.0,9e-08,0.0,0.0,0.0,9e-08
1538768481630038535,2620,1538768481629750023,base_link,0.151630570096,0.187100168443,-0.791333791541,-0.561954204136,1.0,0.0,0.0,0.0,1.0,0.0,0.0,0.0,1.0,-0.13191306591,-0.125609710813,0.334457755089,1.21846967915e-07,0.0,0.0,0.0,1.21846967915e-07,0.0,0.0,0.0,1.21846967915e-07,-0.0980665,0.3726527,11.07170785,9e-08,0.0,0.0,0.0,9e-08,0.0,0.0,0.0,9e-08
1538768482059867783,2621,1538768482059015719,base_link,0.171022615596,0.243203546918,-0.821014989433,-0.487378381596,1.0,0.0,0.0,0.0,1.0,0.0,0.0,0.0,1.0,-0.330304175615,-0.206958726048,0.309608787298,1.21846967915e-07,0.0,0.0,0.0,1.21846967915e-07,0.0,0.0,0.0,1.21846967915e-07,0.02941995,0.48052585,12.75845165,9e-08,0.0,0.0,0.0,9e-08,0.0,0.0,0.0,9e-08
1538768482354508871,2622,1538768482354130471,base_link,0.174555803323,0.279521492102,-0.8359436469,-0.438857865587,1.0,0.0,0.0,0.0,1.0,0.0,0.0,0.0,1.0,-0.199259087443,-0.261541485786,0.259591549635,1.21846967915e-07,0.0,0.0,0.0,1.21846967915e-07,0.0,0.0,0.0,1.21846967915e-07,-0.04903325,0.588399,12.15043935,9e-08,0.0,0.0,0.0,9e-08,0.0,0.0,0.0,9e-08
1538768482640774983,2623,1538768482639104775,base_link,0.155498961198,0.300126880827,-0.853828132637,-0.395880598652,1.0,0.0,0.0,0.0,1.0,0.0,0.0,0.0,1.0,-0.0658597424626,-0.278743326664,0.258743941784,1.21846967915e-07,0.0,0.0,0.0,1.21846967915e-07,0.0,0.0,0.0,1.21846967915e-07,0.196133,0.1765197,12.2190859,9e-08,0.0,0.0,0.0,9e-08,0.0,0.0,0.0,9e-08
1538768482947770343,2624,1538768482947145543,base_link,0.137899599612,0.321396469098,-0.875499493616,-0.333449616519,1.0,0.0,0.0,0.0,1.0,0.0,0.0,0.0,1.0,-0.16989004612,-0.321516245604,0.359870761633,1.21846967915e-07,0.0,0.0,0.0,1.21846967915e-07,0.0,0.0,0.0,1.21846967915e-07,0.20593965,0.30400615,12.42502555,9e-08,0.0,0.0,0.0,9e-08,0.0,0.0,0.0,9e-08
1538768483353441383,2625,1538768483353109767,base_link,0.112735244929,0.358699302376,-0.895211555258,-0.23921088261,1.0,0.0,0.0,0.0,1.0,0.0,0.0,0.0,1.0,-0.0874270796776,-0.415498256683,0.48503229022,1.21846967915e-07,0.0,0.0,0.0,1.21846967915e-07,0.0,0.0,0.0,1.21846967915e-07,0.89240515,-0.4903325,16.77917815,9e-08,0.0,0.0,0.0,9e-08,0.0,0.0,0.0,9e-08
1538768483780206759,2626,1538768483779836135,base_link,0.0702508784421,0.389376494917,-0.912348280223,-0.105220600924,1.0,0.0,0.0,0.0,1.0,0.0,0.0,0.0,1.0,-0.175294324756,-0.450325667858,0.333580046892,1.21846967915e-07,0.0,0.0,0.0,1.21846967915e-07,0.0,0.0,0.0,1.21846967915e-07,1.14737805,0.61781895,15.99464615,9e-08,0.0,0.0,0.0,9e-08,0.0,0.0,0.0,9e-08
1538768484184225767,2627,1538768484182929575,base_link,0.0112046972078,0.419121892892,-0.907858309021,-0.00214112113248,1.0,0.0,0.0,0.0,1.0,0.0,0.0,0.0,1.0,-0.231299698353,-0.515648901463,0.382277578115,1.21846967915e-07,0.0,0.0,0.0,1.21846967915e-07,0.0,0.0,0.0,1.21846967915e-07,1.48080415,0.02941995,16.05348605,9e-08,0.0,0.0,0.0,9e-08,0.0,0.0,0.0,9e-08
1538768484592609351,2628,1538768484592159527,base_link,-0.0565113063954,0.438615831826,-0.888443943612,0.122841293466,1.0,0.0,0.0,0.0,1.0,0.0,0.0,0.0,1.0,-0.076600626111,-0.557852447033,0.404116630554,1.21846967915e-07,0.0,0.0,0.0,1.21846967915e-07,0.0,0.0,0.0,1.21846967915e-07,1.7259704,-0.1765197,17.2008641,9e-08,0.0,0.0,0.0,9e-08,0.0,0.0,0.0,9e-08
1538768485032563879,2629,1538768485032287943,base_link,-0.124617305746,0.422454859596,-0.860225307296,0.256933531091,1.0,0.0,0.0,0.0,1.0,0.0,0.0,0.0,1.0,-0.0221183244139,-0.597607254982,0.399459540844,1.21846967915e-07,0.0,0.0,0.0,1.21846967915e-07,0.0,0.0,0.0,1.21846967915e-07,1.7455837,0.30400615,18.4953419,9e-08,0.0,0.0,0.0,9e-08,0.0,0.0,0.0,9e-08
1538768485396163751,2630,1538768485395796871,base_link,-0.190069292251,0.377911509272,-0.833662721412,0.355053548398,1.0,0.0,0.0,0.0,1.0,0.0,0.0,0.0,1.0,0.140506014228,-0.567005872726,0.178251639009,1.21846967915e-07,0.0,0.0,0.0,1.21846967915e-07,0.0,0.0,0.0,1.21846967915e-07,1.4906108,0.38245935,19.1425808,9e-08,0.0,0.0,0.0,9e-08,0.0,0.0,0.0,9e-08
1538768485781602119,2631,1538768485781188839,base_link,-0.21491121845,0.255961886477,-0.832672906774,0.441534269543,1.0,0.0,0.0,0.0,1.0,0.0,0.0,0.0,1.0,0.67831492424,-0.391379117966,0.271119236946,1.21846967915e-07,0.0,0.0,0.0,1.21846967915e-07,0.0,0.0,0.0,1.21846967915e-07,1.24544455,-0.6472389,17.50487025,9e-08,0.0,0.0,0.0,9e-08,0.0,0.0,0.0,9e-08
1538768486095236871,2632,1538768486094112071,base_link,-0.177851193752,0.123888611196,-0.83252159698,0.509831693266,1.0,0.0,0.0,0.0,1.0,0.0,0.0,0.0,1.0,0.944855570793,-0.194526597857,0.24191339314,1.21846967915e-07,0.0,0.0,0.0,1.21846967915e-07,0.0,0.0,0.0,1.21846967915e-07,0.08825985,-0.4314926,16.2594257,9e-08,0.0,0.0,0.0,9e-08,0.0,0.0,0.0,9e-08
1538768486650829927,2633,1538768486649641415,base_link,-0.0651082796829,-0.0643079832592,-0.809534080445,0.579896514737,1.0,0.0,0.0,0.0,1.0,0.0,0.0,0.0,1.0,0.503217637539,0.0056119565852,0.058596521616,1.21846967915e-07,0.0,0.0,0.0,1.21846967915e-07,0.0,0.0,0.0,1.21846967915e-07,-0.24516625,0.12748645,11.26784085,9e-08,0.0,0.0,0.0,9e-08,0.0,0.0,0.0,9e-08
1538768487015350887,2634,1538768487015098087,base_link,0.0093218499379,-0.140720330698,-0.802755543562,0.579391429797,1.0,0.0,0.0,0.0,1.0,0.0,0.0,0.0,1.0,0.471131563187,0.115780472755,-0.101763978601,1.21846967915e-07,0.0,0.0,0.0,1.21846967915e-07,0.0,0.0,0.0,1.21846967915e-07,-0.38245935,0.18632635,8.3748791,9e-08,0.0,0.0,0.0,9e-08,0.0,0.0,0.0,9e-08
1538768487399956967,2635,1538768487399564103,base_link,0.0837614161843,-0.199283037398,-0.799037338483,0.561078985415,1.0,0.0,0.0,0.0,1.0,0.0,0.0,0.0,1.0,0.398146986961,0.111265927553,-0.146250322461,1.21846967915e-07,0.0,0.0,0.0,1.21846967915e-07,0.0,0.0,0.0,1.21846967915e-07,-0.4314926,0.3138128,7.69822025,9e-08,0.0,0.0,0.0,9e-08,0.0,0.0,0.0,9e-08
1538768487746817863,2636,1538768487746556839,base_link,0.131489080757,-0.21376650555,-0.809269142554,0.531128946356,1.0,0.0,0.0,0.0,1.0,0.0,0.0,0.0,1.0,0.226224705577,0.100347593427,-0.298616558313,1.21846967915e-07,0.0,0.0,0.0,1.21846967915e-07,0.0,0.0,0.0,1.21846967915e-07,-0.67665885,0.50013915,6.59987545,9e-08,0.0,0.0,0.0,9e-08,0.0,0.0,0.0,9e-08
1538768488154055719,2637,1538768488152252519,base_link,0.171955305895,-0.231537315686,-0.827827340504,0.481169137138,1.0,0.0,0.0,0.0,1.0,0.0,0.0,0.0,1.0,0.111185252666,-0.00995337218046,-0.244117304683,1.21846967915e-07,0.0,0.0,0.0,1.21846967915e-07,0.0,0.0,0.0,1.21846967915e-07,-0.61781895,0.3138128,7.65899365,9e-08,0.0,0.0,0.0,9e-08,0.0,0.0,0.0,9e-08
1538768488504849351,2638,1538768488501916167,base_link,0.178489284997,-0.239638426599,-0.841369566924,0.45034681246,1.0,0.0,0.0,0.0,1.0,0.0,0.0,0.0,1.0,-0.157786458731,-0.0740105956793,-0.140180379152,1.21846967915e-07,0.0,0.0,0.0,1.21846967915e-07,0.0,0.0,0.0,1.21846967915e-07,-0.67665885,0.48052585,8.0022264,9e-08,0.0,0.0,0.0,9e-08,0.0,0.0,0.0,9e-08
1538768488927240135,2639,1538768488926870503,base_link,0.181934439089,-0.25713644148,-0.857415287952,0.406964045492,1.0,0.0,0.0,0.0,1.0,0.0,0.0,0.0,1.0,0.145856171846,-0.0969868972898,-0.191530749202,1.21846967915e-07,0.0,0.0,0.0,1.21846967915e-07,0.0,0.0,0.0,1.21846967915e-07,-0.5295591,1.02969825,9.52225715,9e-08,0.0,0.0,0.0,9e-08,0.0,0.0,0.0,9e-08
1538768489418638983,2640,1538768489418180903,base_link,0.16565923453,-0.236997064884,-0.898361702829,0.330659432258,1.0,0.0,0.0,0.0,1.0,0.0,0.0,0.0,1.0,0.0172574501485,-0.190686747432,-0.312706381083,1.21846967915e-07,0.0,0.0,0.0,1.21846967915e-07,0.0,0.0,0.0,1.21846967915e-07,-0.28439285,0.784532,12.07198615,9e-08,0.0,0.0,0.0,9e-08,0.0,0.0,0.0,9e-08
1538768489842757127,2641,1538768489842319239,base_link,0.132444137421,-0.219273176144,-0.925314111414,0.27959188097,1.0,0.0,0.0,0.0,1.0,0.0,0.0,0.0,1.0,-0.211581170559,-0.235418379307,-0.110772266984,1.21846967915e-07,0.0,0.0,0.0,1.21846967915e-07,0.0,0.0,0.0,1.21846967915e-07,-0.3726527,0.51975245,12.44463885,9e-08,0.0,0.0,0.0,9e-08,0.0,0.0,0.0,9e-08
1538768490217019175,2642,1538768490216722919,base_link,0.089068913658,-0.189641333217,-0.942732413327,0.25953514255,1.0,0.0,0.0,0.0,1.0,0.0,0.0,0.0,1.0,-0.091603115201,-0.203920841217,-0.0869269892573,1.21846967915e-07,0.0,0.0,0.0,1.21846967915e-07,0.0,0.0,0.0,1.21846967915e-07,-0.2353596,0.8237586,14.09215605,9e-08,0.0,0.0,0.0,9e-08,0.0,0.0,0.0,9e-08
1538768490626153351,2643,1538768490625706855,base_link,0.059474645799,-0.135009539091,-0.958555720105,0.243733711897,1.0,0.0,0.0,0.0,1.0,0.0,0.0,0.0,1.0,-0.418617188931,-0.0176465883851,-0.0975384190679,1.21846967915e-07,0.0,0.0,0.0,1.21846967915e-07,0.0,0.0,0.0,1.21846967915e-07,-0.55897905,0.8041453,9.3359308,9e-08,0.0,0.0,0.0,9e-08,0.0,0.0,0.0,9e-08
1538768490951020327,2644,1538768490950400167,base_link,0.0437095483001,-0.0706821853703,-0.969647760959,0.229949393836,1.0,0.0,0.0,0.0,1.0,0.0,0.0,0.0,1.0,-0.470154464245,0.00192161416635,-0.0853915289044,1.21846967915e-07,0.0,0.0,0.0,1.21846967915e-07,0.0,0.0,0.0,1.21846967915e-07,-0.65704555,0.63743225,8.8455983,9e-08,0.0,0.0,0.0,9e-08,0.0,0.0,0.0,9e-08
1538768491349852519,2645,1538768491349445159,base_link,0.027108434548,-0.0126492327982,-0.973581980941,0.226369733122,1.0,0.0,0.0,0.0,1.0,0.0,0.0,0.0,1.0,-0.187604412436,-0.0205060523003,0.0835187137127,1.21846967915e-07,0.0,0.0,0.0,1.21846967915e-07,0.0,0.0,0.0,1.21846967915e-07,-0.61781895,0.26477955,9.4536106,9e-08,0.0,0.0,0.0,9e-08,0.0,0.0,0.0,9e-08
1538768491761096967,2646,1538768491760873159,base_link,0.00869032101386,0.0397434202577,-0.966854084101,0.252067687186,1.0,0.0,0.0,0.0,1.0,0.0,0.0,0.0,1.0,-0.266132503748,-0.0170819163322,0.161103650928,1.21846967915e-07,0.0,0.0,0.0,1.21846967915e-07,0.0,0.0,0.0,1.21846967915e-07,-0.38245935,0.4903325,10.983448,9e-08,0.0,0.0,0.0,9e-08,0.0,0.0,0.0,9e-08
1538768492124288487,2647,1538768492124058567,base_link,-0.0108240491155,0.106520518048,-0.956313749235,0.272029837001,1.0,0.0,0.0,0.0,1.0,0.0,0.0,0.0,1.0,-0.509058654308,0.00444216653705,0.0550441294909,1.21846967915e-07,0.0,0.0,0.0,1.21846967915e-07,0.0,0.0,0.0,1.21846967915e-07,-0.3530394,0.55897905,11.20900095,9e-08,0.0,0.0,0.0,9e-08,0.0,0.0,0.0,9e-08
1538768492586264615,2648,1538768492586009575,base_link,-0.0203233073661,0.153735143029,-0.950073441034,0.270763597291,1.0,0.0,0.0,0.0,1.0,0.0,0.0,0.0,1.0,0.0487382933497,0.000750007107854,-0.0638423338532,1.21846967915e-07,0.0,0.0,0.0,1.21846967915e-07,0.0,0.0,0.0,1.21846967915e-07,-0.5099458,0.196133,9.7870367,9e-08,0.0,0.0,0.0,9e-08,0.0,0.0,0.0,9e-08
1538768492953857639,2649,1538768492949567687,base_link,-0.01394230134,0.142539751821,-0.946245012964,0.290014494165,1.0,0.0,0.0,0.0,1.0,0.0,0.0,0.0,1.0,0.110926181078,-0.0352931320667,0.232753694057,1.21846967915e-07,0.0,0.0,0.0,1.21846967915e-07,0.0,0.0,0.0,1.21846967915e-07,-0.4314926,-0.1176798,10.48330885,9e-08,0.0,0.0,0.0,9e-08,0.0,0.0,0.0,9e-08
1538768493447907559,2650,1538768493447659431,base_link,-0.00398071709592,0.113331676798,-0.927089217298,0.357275339332,1.0,0.0,0.0,0.0,1.0,0.0,0.0,0.0,1.0,0.0204226505011,-0.0271683819592,0.145041048527,1.21846967915e-07,0.0,0.0,0.0,1.21846967915e-07,0.0,0.0,0.0,1.21846967915e-07,-0.46091255,0.5099458,9.7478101,9e-08,0.0,0.0,0.0,9e-08,0.0,0.0,0.0,9e-08
1538768493797299111,2651,1538768493797040743,base_link,-0.00382490630381,0.102425061725,-0.925550870382,0.364486026011,1.0,0.0,0.0,0.0,1.0,0.0,0.0,0.0,1.0,0.203849747777,-0.0214934758842,-0.0145565969869,1.21846967915e-07,0.0,0.0,0.0,1.21846967915e-07,0.0,0.0,0.0,1.21846967915e-07,-0.4314926,0.1372931,9.63993695,9e-08,0.0,0.0,0.0,9e-08,0.0,0.0,0.0,9e-08
1538768494036617703,2652,1538768494035429799,base_link,0.00789880436644,0.0713324703144,-0.928362863164,0.36468024606,1.0,0.0,0.0,0.0,1.0,0.0,0.0,0.0,1.0,0.313814401627,-0.0001789345406,0.0266191549599,1.21846967915e-07,0.0,0.0,0.0,1.21846967915e-07,0.0,0.0,0.0,1.21846967915e-07,-0.40207265,-0.12748645,8.8455983,9e-08,0.0,0.0,0.0,9e-08,0.0,0.0,0.0,9e-08
1538768494514657671,2653,1538768494514398119,base_link,0.0138738107373,0.0292416519821,-0.915459802605,0.401105712972,1.0,0.0,0.0,0.0,1.0,0.0,0.0,0.0,1.0,0.038521014154,-0.0811507105827,0.242226392031,1.21846967915e-07,0.0,0.0,0.0,1.21846967915e-07,0.0,0.0,0.0,1.21846967915e-07,-0.16671305,0.32361945,12.3171524,9e-08,0.0,0.0,0.0,9e-08,0.0,0.0,0.0,9e-08
1538768494846427431,2654,1538768494845757191,base_link,0.0166628499794,0.00333661511135,-0.905361464225,0.424301585581,1.0,0.0,0.0,0.0,1.0,0.0,0.0,0.0,1.0,0.381651341915,0.00883219763637,0.0331902094185,1.21846967915e-07,0.0,0.0,0.0,1.21846967915e-07,0.0,0.0,0.0,1.21846967915e-07,-0.3138128,0.26477955,12.2583125,9e-08,0.0,0.0,0.0,9e-08,0.0,0.0,0.0,9e-08
1538768495155367623,2655,1538768495155162375,base_link,0.0374201698697,-0.0406273292583,-0.902387096305,0.427371828068,1.0,0.0,0.0,0.0,1.0,0.0,0.0,0.0,1.0,0.189833506942,-0.0168376173824,-0.0103772981092,1.21846967915e-07,0.0,0.0,0.0,1.21846967915e-07,0.0,0.0,0.0,1.21846967915e-07,-0.4511059,0.44129925,8.5121722,9e-08,0.0,0.0,0.0,9e-08,0.0,0.0,0.0,9e-08
1538768495553462983,2656,1538768495550293511,base_link,0.0484069575678,-0.0677892572459,-0.909196003458,0.40795099014,1.0,0.0,0.0,0.0,1.0,0.0,0.0,0.0,1.0,0.181076779962,-0.0174296014011,-0.122846461833,1.21846967915e-07,0.0,0.0,0.0,1.21846967915e-07,0.0,0.0,0.0,1.21846967915e-07,-0.44129925,0.1372931,8.0806796,9e-08,0.0,0.0,0.0,9e-08,0.0,0.0,0.0,9e-08
1538768495951637095,2657,1538768495951156455,base_link,0.0659464916334,-0.122660334107,-0.910973533088,0.388243125749,1.0,0.0,0.0,0.0,1.0,0.0,0.0,0.0,1.0,0.349369466305,-0.0345172137022,0.0103622153401,1.21846967915e-07,0.0,0.0,0.0,1.21846967915e-07,0.0,0.0,0.0,1.21846967915e-07,-0.38245935,0.0980665,10.6107953,9e-08,0.0,0.0,0.0,9e-08,0.0,0.0,0.0,9e-08
1538768496249699111,2658,1538768496249246503,base_link,0.0701333728357,-0.143594644372,-0.910177385937,0.382150512562,1.0,0.0,0.0,0.0,1.0,0.0,0.0,0.0,1.0,-0.0681318789721,-0.0462665185332,-0.068877607584,1.21846967915e-07,0.0,0.0,0.0,1.21846967915e-07,0.0,0.0,0.0,1.21846967915e-07,-0.3530394,0.8825985,9.28689755,9e-08,0.0,0.0,0.0,9e-08,0.0,0.0,0.0,9e-08
1538768496608388135,2659,1538768496608117991,base_link,0.0819999953355,-0.170521543465,-0.914321757369,0.358070004303,1.0,0.0,0.0,0.0,1.0,0.0,0.0,0.0,1.0,0.00300950743258,-0.00145138241351,-0.109571799636,1.21846967915e-07,0.0,0.0,0.0,1.21846967915e-07,0.0,0.0,0.0,1.21846967915e-07,-0.34323275,0.5099458,7.85512665,9e-08,0.0,0.0,0.0,9e-08,0.0,0.0,0.0,9e-08
1538768496875075111,2660,1538768496874618119,base_link,0.08330771743,-0.190671672565,-0.9146804159,0.346502343811,1.0,0.0,0.0,0.0,1.0,0.0,0.0,0.0,1.0,0.221726357937,-0.0820859819651,-0.0238914936781,1.21846967915e-07,0.0,0.0,0.0,1.21846967915e-07,0.0,0.0,0.0,1.21846967915e-07,-0.10787315,0.42168595,9.71839015,9e-08,0.0,0.0,0.0,9e-08,0.0,0.0,0.0,9e-08
1538768497222470503,2661,1538768497222114087,base_link,0.0853077941962,-0.182411511707,-0.928834469492,0.310990592992,1.0,0.0,0.0,0.0,1.0,0.0,0.0,0.0,1.0,0.026923879981,-0.079682469368,-0.384200513363,1.21846967915e-07,0.0,0.0,0.0,1.21846967915e-07,0.0,0.0,0.0,1.21846967915e-07,-0.04903325,1.0198916,12.11121275,9e-08,0.0,0.0,0.0,9e-08,0.0,0.0,0.0,9e-08
1538768497616969255,2662,1538768497616460455,base_link,0.0534045653143,-0.144378730661,-0.94560429942,0.286592469292,1.0,0.0,0.0,0.0,1.0,0.0,0.0,0.0,1.0,-0.267757385969,-0.153886586428,0.0781263485551,1.21846967915e-07,0.0,0.0,0.0,1.21846967915e-07,0.0,0.0,0.0,1.21846967915e-07,-0.0784532,0.4511059,12.17005265,9e-08,0.0,0.0,0.0,9e-08,0.0,0.0,0.0,9e-08
1538768497871150151,2663,1538768497870821127,base_link,0.0282020927508,-0.110642288946,-0.948735472996,0.294726870407,1.0,0.0,0.0,0.0,1.0,0.0,0.0,0.0,1.0,-0.483327239752,-0.0788739621639,0.05728501454,1.21846967915e-07,0.0,0.0,0.0,1.21846967915e-07,0.0,0.0,0.0,1.21846967915e-07,-0.06864655,0.9218251,9.63993695,9e-08,0.0,0.0,0.0,9e-08,0.0,0.0,0.0,9e-08
1538768498325838567,2664,1538768498325235911,base_link,-0.00817736716575,0.00531023053262,-0.958190425264,0.285965104602,1.0,0.0,0.0,0.0,1.0,0.0,0.0,0.0,1.0,-0.36182320118,0.0499212890863,-0.0894492715597,1.21846967915e-07,0.0,0.0,0.0,1.21846967915e-07,0.0,0.0,0.0,1.21846967915e-07,-0.1176798,0.89240515,9.5909037,9e-08,0.0,0.0,0.0,9e-08,0.0,0.0,0.0,9e-08
1538768498821221767,2665,1538768498820838055,base_link,-0.025524587803,0.0535957541992,-0.957350606944,0.28276457687,1.0,0.0,0.0,0.0,1.0,0.0,0.0,0.0,1.0,-0.108397074044,-0.0933062061667,0.102663256228,1.21846967915e-07,0.0,0.0,0.0,1.21846967915e-07,0.0,0.0,0.0,1.21846967915e-07,-0.20593965,0.16671305,10.26756255,9e-08,0.0,0.0,0.0,9e-08,0.0,0.0,0.0,9e-08
1538768499081274855,2666,1538768499081069799,base_link,-0.0410501839981,0.0704301053756,-0.950816076311,0.298836530027,1.0,0.0,0.0,0.0,1.0,0.0,0.0,0.0,1.0,-0.164840072393,-0.0691597834229,0.135025441647,1.21846967915e-07,0.0,0.0,0.0,1.21846967915e-07,0.0,0.0,0.0,1.21846967915e-07,0.0392266,0.42168595,12.32695905,9e-08,0.0,0.0,0.0,9e-08,0.0,0.0,0.0,9e-08
1538768499588076231,2667,1538768499587752295,base_link,-0.0524132667178,0.0939077162874,-0.936628099538,0.333409648106,1.0,0.0,0.0,0.0,1.0,0.0,0.0,0.0,1.0,-0.056318551302,-0.00938039831817,0.134044080973,1.21846967915e-07,0.0,0.0,0.0,1.21846967915e-07,0.0,0.0,0.0,1.21846967915e-07,-0.0980665,0.2549729,10.38524235,9e-08,0.0,0.0,0.0,9e-08,0.0,0.0,0.0,9e-08
1538768500015406375,2668,1538768500015090311,base_link,-0.0407150714292,0.0831512914213,-0.93060130601,0.354131832721,1.0,0.0,0.0,0.0,1.0,0.0,0.0,0.0,1.0,0.152000576258,0.0026335939765,0.0932976678014,1.21846967915e-07,0.0,0.0,0.0,1.21846967915e-07,0.0,0.0,0.0,1.21846967915e-07,-0.1569064,0.1176798,10.6696352,9e-08,0.0,0.0,0.0,9e-08,0.0,0.0,0.0,9e-08
1538768500293163495,2669,1538768500291357191,base_link,-0.0259021304139,0.0587671345113,-0.927171614673,0.369091181804,1.0,0.0,0.0,0.0,1.0,0.0,0.0,0.0,1.0,0.173614919186,0.0380644015968,0.115361772478,1.21846967915e-07,0.0,0.0,0.0,1.21846967915e-07,0.0,0.0,0.0,1.21846967915e-07,-0.16671305,0.22555295,9.46341725,9e-08,0.0,0.0,0.0,9e-08,0.0,0.0,0.0,9e-08
1538768500707592103,2670,1538768500707118183,base_link,0.00371222744736,0.0196274916992,-0.921060318011,0.388907278825,1.0,0.0,0.0,0.0,1.0,0.0,0.0,0.0,1.0,0.296638935804,0.057526037097,0.0820832997561,1.21846967915e-07,0.0,0.0,0.0,1.21846967915e-07,0.0,0.0,0.0,1.21846967915e-07,-0.20593965,0.24516625,8.3552658,9e-08,0.0,0.0,0.0,9e-08,0.0,0.0,0.0,9e-08
1538768501065772231,2671,1538768501065230055,base_link,0.0284506251759,-0.012066697257,-0.916893612835,0.39793348626,1.0,0.0,0.0,0.0,1.0,0.0,0.0,0.0,1.0,0.0889216214418,0.0280968546867,0.0575956329703,1.21846967915e-07,0.0,0.0,0.0,1.21846967915e-07,0.0,0.0,0.0,1.21846967915e-07,-0.14709975,0.28439285,8.99269805,9e-08,0.0,0.0,0.0,9e-08,0.0,0.0,0.0,9e-08
1538768501379130375,2672,1538768501378700071,base_link,0.0289593440701,-0.00625133734125,-0.914928049062,0.402528188097,1.0,0.0,0.0,0.0,1.0,0.0,0.0,0.0,1.0,-0.0875600501895,-0.00585105409846,0.00603895261884,1.21846967915e-07,0.0,0.0,0.0,1.21846967915e-07,0.0,0.0,0.0,1.21846967915e-07,-0.196133,0.40207265,9.50264385,9e-08,0.0,0.0,0.0,9e-08,0.0,0.0,0.0,9e-08
1538768501821746791,2673,1538768501821477127,base_link,0.0417937935151,-0.0300964832576,-0.916859563312,0.395873744623,1.0,0.0,0.0,0.0,1.0,0.0,0.0,0.0,1.0,0.212987422943,-0.00086183520034,-0.0311741679907,1.21846967915e-07,0.0,0.0,0.0,1.21846967915e-07,0.0,0.0,0.0,1.21846967915e-07,-0.1372931,0.2941995,9.4928372,9e-08,0.0,0.0,0.0,9e-08,0.0,0.0,0.0,9e-08
1538768502143963047,2674,1538768502143718311,base_link,0.050204082475,-0.0575804282522,-0.918351082278,0.388323749033,1.0,0.0,0.0,0.0,1.0,0.0,0.0,0.0,1.0,0.18873347342,-0.0491501018405,-0.0335415154696,1.21846967915e-07,0.0,0.0,0.0,1.21846967915e-07,0.0,0.0,0.0,1.21846967915e-07,-0.196133,0.2353596,9.5320638,9e-08,0.0,0.0,0.0,9e-08,0.0,0.0,0.0,9e-08
1538768502559468807,2675,1538768502559207047,base_link,0.0512699328973,-0.0959025603076,-0.917193050463,0.383315798122,1.0,0.0,0.0,0.0,1.0,0.0,0.0,0.0,1.0,0.146335527301,-0.0696131363511,0.0067516984418,1.21846967915e-07,0.0,0.0,0.0,1.21846967915e-07,0.0,0.0,0.0,1.21846967915e-07,-0.0196133,0.38245935,11.5522337,9e-08,0.0,0.0,0.0,9e-08,0.0,0.0,0.0,9e-08
1538768503007902695,2676,1538768503004354599,base_link,0.0440544362369,-0.101355587937,-0.924010900891,0.366046590581,1.0,0.0,0.0,0.0,1.0,0.0,0.0,0.0,1.0,-0.0465041920543,-0.0215080268681,-0.146085441113,1.21846967915e-07,0.0,0.0,0.0,1.21846967915e-07,0.0,0.0,0.0,1.21846967915e-07,0.0588399,0.784532,10.58137535,9e-08,0.0,0.0,0.0,9e-08,0.0,0.0,0.0,9e-08
1538768503371303655,2677,1538768503370931559,base_link,0.0448843902249,-0.113740836908,-0.932190533879,0.340689333676,1.0,0.0,0.0,0.0,1.0,0.0,0.0,0.0,1.0,0.0645068362355,-0.0478062257171,-0.140266001225,1.21846967915e-07,0.0,0.0,0.0,1.21846967915e-07,0.0,0.0,0.0,1.21846967915e-07,-0.00980665,0.6080123,10.3362091,9e-08,0.0,0.0,0.0,9e-08,0.0,0.0,0.0,9e-08
1538768503969668679,2678,1538768503969295655,base_link,0.036007057539,-0.128875990919,-0.941084013409,0.310572617076,1.0,0.0,0.0,0.0,1.0,0.0,0.0,0.0,1.0,-0.0298405233771,-0.0670726671815,-0.0386749356985,1.21846967915e-07,0.0,0.0,0.0,1.21846967915e-07,0.0,0.0,0.0,1.21846967915e-07,0.1372931,0.6472389,11.11093445,9e-08,0.0,0.0,0.0,9e-08,0.0,0.0,0.0,9e-08
1538768504208131527,2679,1538768504207022407,base_link,0.0256371723151,-0.117301141415,-0.944567507354,0.305573889052,1.0,0.0,0.0,0.0,1.0,0.0,0.0,0.0,1.0,-0.164289951324,-0.0490331798792,-0.057601980865,1.21846967915e-07,0.0,0.0,0.0,1.21846967915e-07,0.0,0.0,0.0,1.21846967915e-07,0.20593965,0.5687857,11.22861425,9e-08,0.0,0.0,0.0,9e-08,0.0,0.0,0.0,9e-08
1538768504702953063,2680,1538768504702559623,base_link,0.0188324420997,-0.099870539532,-0.952090277639,0.288435985416,1.0,0.0,0.0,0.0,1.0,0.0,0.0,0.0,1.0,0.0355595871806,0.0265779085457,-0.0783715248108,1.21846967915e-07,0.0,0.0,0.0,1.21846967915e-07,0.0,0.0,0.0,1.21846967915e-07,0.12748645,0.4707192,9.05153795,9e-08,0.0,0.0,0.0,9e-08,0.0,0.0,0.0,9e-08
1538768505034764167,2681,1538768505034389031,base_link,0.0246318699188,-0.106050375462,-0.955264839185,0.274983046506,1.0,0.0,0.0,0.0,1.0,0.0,0.0,0.0,1.0,0.0655623227358,0.0158237554133,-0.0838571190834,1.21846967915e-07,0.0,0.0,0.0,1.21846967915e-07,0.0,0.0,0.0,1.21846967915e-07,0.10787315,0.53936575,9.52225715,9e-08,0.0,0.0,0.0,9e-08,0.0,0.0,0.0,9e-08
1538768505261098407,2682,1538768505260858919,base_link,0.0284612738173,-0.111694479995,-0.957176166528,0.265571243287,1.0,0.0,0.0,0.0,1.0,0.0,0.0,0.0,1.0,0.0781211778522,0.0236666314304,-0.0932487845421,1.21846967915e-07,0.0,0.0,0.0,1.21846967915e-07,0.0,0.0,0.0,1.21846967915e-07,0.14709975,0.5099458,9.54187045,9e-08,0.0,0.0,0.0,9e-08,0.0,0.0,0.0,9e-08
1538768505658597703,2683,1538768505658085863,base_link,0.0410774573314,-0.130330974359,-0.960639232465,0.24186513736,1.0,0.0,0.0,0.0,1.0,0.0,0.0,0.0,1.0,0.0880900621414,0.00412482395768,-0.117418326437,1.21846967915e-07,0.0,0.0,0.0,1.21846967915e-07,0.0,0.0,0.0,1.21846967915e-07,0.1765197,0.40207265,8.85540495,9e-08,0.0,0.0,0.0,9e-08,0.0,0.0,0.0,9e-08
1538768506028201351,2684,1538768506027821223,base_link,0.0434949948659,-0.14823859594,-0.963152504742,0.220160751962,1.0,0.0,0.0,0.0,1.0,0.0,0.0,0.0,1.0,0.135029524565,-0.0318037308753,-0.141584664583,1.21846967915e-07,0.0,0.0,0.0,1.21846967915e-07,0.0,0.0,0.0,1.21846967915e-07,0.16671305,0.57859235,9.5124505,9e-08,0.0,0.0,0.0,9e-08,0.0,0.0,0.0,9e-08
1538768506383742279,2685,1538768506379778919,base_link,0.041868059947,-0.173356473578,-0.965659340413,0.188935536355,1.0,0.0,0.0,0.0,1.0,0.0,0.0,0.0,1.0,0.140558123589,-0.0787792727351,-0.165787696838,1.21846967915e-07,0.0,0.0,0.0,1.21846967915e-07,0.0,0.0,0.0,1.21846967915e-07,0.30400615,0.4707192,10.7480884,9e-08,0.0,0.0,0.0,9e-08,0.0,0.0,0.0,9e-08
1538768506760808391,2686,1538768506760557479,base_link,0.0357088306543,-0.203011253418,-0.966320988114,0.154061865264,1.0,0.0,0.0,0.0,1.0,0.0,0.0,0.0,1.0,0.208242803812,-0.100204505026,-0.178311109543,1.21846967915e-07,0.0,0.0,0.0,1.21846967915e-07,0.0,0.0,0.0,1.21846967915e-07,0.32361945,0.46091255,10.2969825,9e-08,0.0,0.0,0.0,9e-08,0.0,0.0,0.0,9e-08
1538768507161762119,2687,1538768507161539239,base_link,0.0240214167262,-0.24007347743,-0.963638996581,0.1148371945,1.0,0.0,0.0,0.0,1.0,0.0,0.0,0.0,1.0,0.0942981764674,-0.140493914485,-0.190778046846,1.21846967915e-07,0.0,0.0,0.0,1.21846967915e-07,0.0,0.0,0.0,1.21846967915e-07,0.5295591,0.6276256,11.34629405,9e-08,0.0,0.0,0.0,9e-08,0.0,0.0,0.0,9e-08
1538768507604194823,2688,1538768507602052295,base_link,0.00575336257547,-0.271340944365,-0.960812996086,0.056385967063,1.0,0.0,0.0,0.0,1.0,0.0,0.0,0.0,1.0,0.173120498657,-0.163882255554,-0.272485971451,1.21846967915e-07,0.0,0.0,0.0,1.21846967915e-07,0.0,0.0,0.0,1.21846967915e-07,0.61781895,0.8237586,11.4933938,9e-08,0.0,0.0,0.0,9e-08,0.0,0.0,0.0,9e-08
1538768507940475207,2689,1538768507939961255,base_link,-0.0151566787607,-0.288384676557,-0.957381055187,0.00510574041198,1.0,0.0,0.0,0.0,1.0,0.0,0.0,0.0,1.0,0.0289234519005,-0.226821854711,-0.278854936361,1.21846967915e-07,0.0,0.0,0.0,1.21846967915e-07,0.0,0.0,0.0,1.21846967915e-07,0.87279185,1.04931155,12.81729155,9e-08,0.0,0.0,0.0,9e-08,0.0,0.0,0.0,9e-08
1538768508246052327,2690,1538768508245733415,base_link,-0.0368328028591,-0.29721486496,-0.95315944817,-0.0423525093033,1.0,0.0,0.0,0.0,1.0,0.0,0.0,0.0,1.0,0.0464877635241,-0.213359311223,-0.243210762739,1.21846967915e-07,0.0,0.0,0.0,1.21846967915e-07,0.0,0.0,0.0,1.21846967915e-07,0.7453054,0.57859235,10.6107953,9e-08,0.0,0.0,0.0,9e-08,0.0,0.0,0.0,9e-08
1538768508642408359,2691,1538768508642124615,base_link,-0.0702666554644,-0.306425967785,-0.943649904601,-0.103395265574,1.0,0.0,0.0,0.0,1.0,0.0,0.0,0.0,1.0,0.102896310389,-0.229102283716,-0.265430927277,1.21846967915e-07,0.0,0.0,0.0,1.21846967915e-07,0.0,0.0,0.0,1.21846967915e-07,0.8237586,0.9022118,12.07198615,9e-08,0.0,0.0,0.0,9e-08,0.0,0.0,0.0,9e-08
1538768509003758119,2692,1538768509003435623,base_link,-0.0982716829724,-0.320718977634,-0.926786141858,-0.168965857413,1.0,0.0,0.0,0.0,1.0,0.0,0.0,0.0,1.0,0.109195031226,-0.237877950072,-0.311947971582,1.21846967915e-07,0.0,0.0,0.0,1.21846967915e-07,0.0,0.0,0.0,1.21846967915e-07,0.93163175,0.9610517,12.160246,9e-08,0.0,0.0,0.0,9e-08,0.0,0.0,0.0,9e-08
1538768509342613063,2693,1538768509342314247,base_link,-0.120618646522,-0.32468706377,-0.910152929373,-0.227268778951,1.0,0.0,0.0,0.0,1.0,0.0,0.0,0.0,1.0,0.025687456131,-0.242486909032,-0.295765519142,1.21846967915e-07,0.0,0.0,0.0,1.21846967915e-07,0.0,0.0,0.0,1.21846967915e-07,1.0983448,0.7060788,11.9248864,9e-08,0.0,0.0,0.0,9e-08,0.0,0.0,0.0,9e-08
1538768509707049991,2694,1538768509706764263,base_link,-0.142007113647,-0.321730777622,-0.889336542608,-0.29223928618,1.0,0.0,0.0,0.0,1.0,0.0,0.0,0.0,1.0,0.0121978903189,-0.22474578023,-0.327198624611,1.21846967915e-07,0.0,0.0,0.0,1.21846967915e-07,0.0,0.0,0.0,1.21846967915e-07,1.0983448,0.93163175,12.01314625,9e-08,0.0,0.0,0.0,9e-08,0.0,0.0,0.0,9e-08
1538768510121216615,2695,1538768510120831943,base_link,-0.175791068698,-0.327907438982,-0.852433062655,-0.367331029616,1.0,0.0,0.0,0.0,1.0,0.0,0.0,0.0,1.0,-0.00149548240006,-0.27745577693,-0.302326411009,1.21846967915e-07,0.0,0.0,0.0,1.21846967915e-07,0.0,0.0,0.0,1.21846967915e-07,1.38273765,0.980665,12.160246,9e-08,0.0,0.0,0.0,9e-08,0.0,0.0,0.0,9e-08
1538768510373922375,2696,1538768510373725543,base_link,-0.188606275722,-0.314565080333,-0.831489601299,-0.417254749433,1.0,0.0,0.0,0.0,1.0,0.0,0.0,0.0,1.0,-0.0767776668072,-0.273449629545,-0.343459904194,1.21846967915e-07,0.0,0.0,0.0,1.21846967915e-07,0.0,0.0,0.0,1.21846967915e-07,1.44157755,1.10815145,11.95430635,9e-08,0.0,0.0,0.0,9e-08,0.0,0.0,0.0,9e-08
1538768510837897703,2697,1538768510837630919,base_link,-0.213383255686,-0.286982186777,-0.784433301382,-0.506727941156,1.0,0.0,0.0,0.0,1.0,0.0,0.0,0.0,1.0,-0.0404828824103,-0.283518880606,-0.304733127356,1.21846967915e-07,0.0,0.0,0.0,1.21846967915e-07,0.0,0.0,0.0,1.21846967915e-07,1.46119085,1.0591182,11.8268199,9e-08,0.0,0.0,0.0,9e-08,0.0,0.0,0.0,9e-08
1538768511239344103,2698,1538768511239094535,base_link,-0.228927217466,-0.247194968898,-0.741952694521,-0.579649183168,1.0,0.0,0.0,0.0,1.0,0.0,0.0,0.0,1.0,-0.20451682806,-0.330776900053,-0.321901261806,1.21846967915e-07,0.0,0.0,0.0,1.21846967915e-07,0.0,0.0,0.0,1.21846967915e-07,1.9221034,1.69655045,16.72033825,9e-08,0.0,0.0,0.0,9e-08,0.0,0.0,0.0,9e-08
1538768511661999847,2699,1538768511661657351,base_link,-0.241442640125,-0.205136507793,-0.685609353503,-0.655411534144,1.0,0.0,0.0,0.0,1.0,0.0,0.0,0.0,1.0,-0.122649140656,-0.350586116314,-0.251151710749,1.21846967915e-07,0.0,0.0,0.0,1.21846967915e-07,0.0,0.0,0.0,1.21846967915e-07,1.1375714,0.71588545,14.44519545,9e-08,0.0,0.0,0.0,9e-08,0.0,0.0,0.0,9e-08
1538768512046319047,2700,1538768512045916839,base_link,-0.241113649187,-0.144309303767,-0.653532601313,-0.702804504854,1.0,0.0,0.0,0.0,1.0,0.0,0.0,0.0,1.0,-0.373863488436,-0.240463092923,-0.137339547276,1.21846967915e-07,0.0,0.0,0.0,1.21846967915e-07,0.0,0.0,0.0,1.21846967915e-07,0.99047165,0.8825985,12.944778,9e-08,0.0,0.0,0.0,9e-08,0.0,0.0,0.0,9e-08
1538768512457689351,2701,1538768512457308167,base_link,-0.168954529927,-0.0673779905695,-0.623760910699,-0.760155838948,1.0,0.0,0.0,0.0,1.0,0.0,0.0,0.0,1.0,-0.547204494476,-0.0311855524778,-0.311792194843,1.21846967915e-07,0.0,0.0,0.0,1.21846967915e-07,0.0,0.0,0.0,1.21846967915e-07,0.4903325,1.10815145,11.0030613,9e-08,0.0,0.0,0.0,9e-08,0.0,0.0,0.0,9e-08
1538768512939669031,2702,1538768512939369735,base_link,-0.105318383447,-0.00621943802812,-0.592938873759,-0.798306237408,1.0,0.0,0.0,0.0,1.0,0.0,0.0,0.0,1.0,-0.324435025454,-0.0649386271834,-0.0193469189107,1.21846967915e-07,0.0,0.0,0.0,1.21846967915e-07,0.0,0.0,0.0,1.21846967915e-07,0.38245935,0.5687857,11.4933938,9e-08,0.0,0.0,0.0,9e-08,0.0,0.0,0.0,9e-08
1538768513353415783,2703,1538768513352523815,base_link,-0.0582588398077,0.0258732894854,-0.597935212696,-0.799005608174,1.0,0.0,0.0,0.0,1.0,0.0,0.0,0.0,1.0,-0.443053364754,0.109224297106,-0.0378768108785,1.21846967915e-07,0.0,0.0,0.0,1.21846967915e-07,0.0,0.0,0.0,1.21846967915e-07,0.10787315,1.26505785,8.05125965,9e-08,0.0,0.0,0.0,9e-08,0.0,0.0,0.0,9e-08
1538768513714056071,2704,1538768513713180551,base_link,0.0420055876525,0.0671213353885,-0.580872092359,-0.810134476035,1.0,0.0,0.0,0.0,1.0,0.0,0.0,0.0,1.0,-0.421907395124,0.1792434901,-0.0463267788291,1.21846967915e-07,0.0,0.0,0.0,1.21846967915e-07,0.0,0.0,0.0,1.21846967915e-07,0.12748645,0.4511059,8.1199062,9e-08,0.0,0.0,0.0,9e-08,0.0,0.0,0.0,9e-08
1538768514200392839,2705,1538768514199278471,base_link,0.087619299309,0.0582869611916,-0.583995859063,-0.80490640769,1.0,0.0,0.0,0.0,1.0,0.0,0.0,0.0,1.0,-0.102699972689,0.0929581299424,0.153483361006,1.21846967915e-07,0.0,0.0,0.0,1.21846967915e-07,0.0,0.0,0.0,1.21846967915e-07,0.00980665,0.06864655,7.3549875,9e-08,0.0,0.0,0.0,9e-08,0.0,0.0,0.0,9e-08
1538768514479856551,2706,1538768514479142791,base_link,0.115739103572,0.0618212874451,-0.60488465871,-0.785427996687,1.0,0.0,0.0,0.0,1.0,0.0,0.0,0.0,1.0,-0.208613455296,0.0545104965568,0.234794780612,1.21846967915e-07,0.0,0.0,0.0,1.21846967915e-07,0.0,0.0,0.0,1.21846967915e-07,-0.12748645,0.14709975,7.36479415,9e-08,0.0,0.0,0.0,9e-08,0.0,0.0,0.0,9e-08
1538768514870224935,2707,1538768514869883015,base_link,0.148681168108,0.0764735737284,-0.634734003218,-0.754425906189,1.0,0.0,0.0,0.0,1.0,0.0,0.0,0.0,1.0,-0.150434300303,-0.00619253516197,0.198489353061,1.21846967915e-07,0.0,0.0,0.0,1.21846967915e-07,0.0,0.0,0.0,1.21846967915e-07,0.06864655,0.2941995,9.42419065,9e-08,0.0,0.0,0.0,9e-08,0.0,0.0,0.0,9e-08
1538768515349456583,2708,1538768515348939079,base_link,0.147581500107,0.074227083041,-0.666093123821,-0.727344479162,1.0,0.0,0.0,0.0,1.0,0.0,0.0,0.0,1.0,0.175401419401,-0.0373061671853,0.127099022269,1.21846967915e-07,0.0,0.0,0.0,1.21846967915e-07,0.0,0.0,0.0,1.21846967915e-07,0.1176798,0.2353596,9.60071035,9e-08,0.0,0.0,0.0,9e-08,0.0,0.0,0.0,9e-08
1538768515756608775,2709,1538768515756265351,base_link,0.0976678243527,0.0312132606165,-0.690824648074,-0.715715050884,1.0,0.0,0.0,0.0,1.0,0.0,0.0,0.0,1.0,0.422903090715,-0.0184165388346,0.137354686856,1.21846967915e-07,0.0,0.0,0.0,1.21846967915e-07,0.0,0.0,0.0,1.21846967915e-07,0.0196133,0.08825985,9.6497436,9e-08,0.0,0.0,0.0,9e-08,0.0,0.0,0.0,9e-08
1538768516149334183,2710,1538768516148990343,base_link,0.0376930717573,-0.018275672642,-0.705587173868,-0.707383893091,1.0,0.0,0.0,0.0,1.0,0.0,0.0,0.0,1.0,0.427317202091,-0.0445865169168,0.0322135947645,1.21846967915e-07,0.0,0.0,0.0,1.21846967915e-07,0.0,0.0,0.0,1.21846967915e-07,0.0,0.26477955,10.11065615,9e-08,0.0,0.0,0.0,9e-08,0.0,0.0,0.0,9e-08
1538768516593825671,2711,1538768516593547143,base_link,-0.0495345257551,-0.08657102966,-0.700518982812,-0.706629282087,1.0,0.0,0.0,0.0,1.0,0.0,0.0,0.0,1.0,0.43013972044,-0.07437543571,-0.0356875658035,1.21846967915e-07,0.0,0.0,0.0,1.21846967915e-07,0.0,0.0,0.0,1.21846967915e-07,0.12748645,0.3530394,11.2972608,9e-08,0.0,0.0,0.0,9e-08,0.0,0.0,0.0,9e-08
1538768517023139239,2712,1538768517022877575,base_link,-0.117958026779,-0.135018006468,-0.673023179745,-0.717562430297,1.0,0.0,0.0,0.0,1.0,0.0,0.0,0.0,1.0,0.297282159328,-0.0899258181453,-0.178030833602,1.21846967915e-07,0.0,0.0,0.0,1.21846967915e-07,0.0,0.0,0.0,1.21846967915e-07,0.24516625,0.57859235,11.15016105,9e-08,0.0,0.0,0.0,9e-08,0.0,0.0,0.0,9e-08
1538768517440640167,2713,1538768517440443111,base_link,-0.174671630269,-0.165274431027,-0.63376924045,-0.735194351099,1.0,0.0,0.0,0.0,1.0,0.0,0.0,0.0,1.0,0.230499982834,-0.151216462255,-0.139905139804,1.21846967915e-07,0.0,0.0,0.0,1.21846967915e-07,0.0,0.0,0.0,1.21846967915e-07,0.3334261,0.57859235,11.3168741,9e-08,0.0,0.0,0.0,9e-08,0.0,0.0,0.0,9e-08
1538768517834748071,2714,1538768517834240551,base_link,-0.210292587033,-0.166865090904,-0.592968725805,-0.75915819135,1.0,0.0,0.0,0.0,1.0,0.0,0.0,0.0,1.0,0.0384595766664,-0.162589326501,-0.243637740612,1.21846967915e-07,0.0,0.0,0.0,1.21846967915e-07,0.0,0.0,0.0,1.21846967915e-07,0.50013915,0.69627215,11.89546645,9e-08,0.0,0.0,0.0,9e-08,0.0,0.0,0.0,9e-08
1538768518307094087,2715,1538768518306831687,base_link,-0.248348130448,-0.171274556303,-0.524942516614,-0.795879128208,1.0,0.0,0.0,0.0,1.0,0.0,0.0,0.0,1.0,0.131470739841,-0.192108720541,-0.326697319746,1.21846967915e-07,0.0,0.0,0.0,1.21846967915e-07,0.0,0.0,0.0,1.21846967915e-07,0.53936575,0.5687857,10.93441475,9e-08,0.0,0.0,0.0,9e-08,0.0,0.0,0.0,9e-08
1538768518710930567,2716,1538768518710705543,base_link,-0.292866985219,-0.162541268589,-0.458818356673,-0.82297933179,1.0,0.0,0.0,0.0,1.0,0.0,0.0,0.0,1.0,0.147736668587,-0.253673195839,-0.231873884797,1.21846967915e-07,0.0,0.0,0.0,1.21846967915e-07,0.0,0.0,0.0,1.21846967915e-07,0.75511205,0.69627215,12.42502555,9e-08,0.0,0.0,0.0,9e-08,0.0,0.0,0.0,9e-08
1538768519044157927,2717,1538768519043908391,base_link,-0.320871793239,-0.140035584153,-0.409121481848,-0.842645204439,1.0,0.0,0.0,0.0,1.0,0.0,0.0,0.0,1.0,0.0191476270556,-0.322861403227,-0.281248271465,1.21846967915e-07,0.0,0.0,0.0,1.21846967915e-07,0.0,0.0,0.0,1.21846967915e-07,0.93163175,0.99047165,13.6508568,9e-08,0.0,0.0,0.0,9e-08,0.0,0.0,0.0,9e-08
1538768519478059175,2718,1538768519476472199,base_link,-0.350500735596,-0.102759095951,-0.326378992913,-0.871817960088,1.0,0.0,0.0,0.0,1.0,0.0,0.0,0.0,1.0,0.0101902456954,-0.334959506989,-0.300625830889,1.21846967915e-07,0.0,0.0,0.0,1.21846967915e-07,0.0,0.0,0.0,1.21846967915e-07,1.2160246,1.0787315,14.5922952,9e-08,0.0,0.0,0.0,9e-08,0.0,0.0,0.0,9e-08
1538768519936543463,2719,1538768519936230471,base_link,-0.405753490313,-0.0580821604205,-0.23190690823,-0.882161976995,1.0,0.0,0.0,0.0,1.0,0.0,0.0,0.0,1.0,0.0328306034207,-0.402936339378,-0.202291846275,1.21846967915e-07,0.0,0.0,0.0,1.21846967915e-07,0.0,0.0,0.0,1.21846967915e-07,1.73577705,1.18660465,16.62227175,9e-08,0.0,0.0,0.0,9e-08,0.0,0.0,0.0,9e-08
1538768520326130695,2720,1538768520325876935,base_link,-0.429917371327,-0.019148276579,-0.151472613865,-0.889865408129,1.0,0.0,0.0,0.0,1.0,0.0,0.0,0.0,1.0,0.20486715436,-0.330556839705,-0.36408624053,1.21846967915e-07,0.0,0.0,0.0,1.21846967915e-07,0.0,0.0,0.0,1.21846967915e-07,1.34351105,1.6082906,11.81701325,9e-08,0.0,0.0,0.0,9e-08,0.0,0.0,0.0,9e-08
1538768520858188423,2721,1538768520857898823,base_link,-0.451766050456,0.0153403165101,-0.0130481242622,-0.891909107924,1.0,0.0,0.0,0.0,1.0,0.0,0.0,0.0,1.0,0.0471531897783,-0.414333194494,-0.373443990946,1.21846967915e-07,0.0,0.0,0.0,1.21846967915e-07,0.0,0.0,0.0,1.21846967915e-07,1.4906108,0.8825985,12.1210194,9e-08,0.0,0.0,0.0,9e-08,0.0,0.0,0.0,9e-08
1538768521195187591,2722,1538768521192642567,base_link,-0.444887775288,0.0559303624637,0.0672940715383,-0.891301391163,1.0,0.0,0.0,0.0,1.0,0.0,0.0,0.0,1.0,-0.328661620617,-0.370633155107,-0.306746035814,1.21846967915e-07,0.0,0.0,0.0,1.21846967915e-07,0.0,0.0,0.0,1.21846967915e-07,1.81423025,1.3925443,13.09187775,9e-08,0.0,0.0,0.0,9e-08,0.0,0.0,0.0,9e-08
1538768521636414407,2723,1538768521633529703,base_link,-0.391768178992,0.0836047363287,0.185641796816,-0.89725418097,1.0,0.0,0.0,0.0,1.0,0.0,0.0,0.0,1.0,-0.104115135968,-0.379611462355,-0.42453238368,1.21846967915e-07,0.0,0.0,0.0,1.21846967915e-07,0.0,0.0,0.0,1.21846967915e-07,1.0983448,0.9414384,12.58193195,9e-08,0.0,0.0,0.0,9e-08,0.0,0.0,0.0,9e-08
1538768522000623431,2724,1538768522000361735,base_link,-0.370875216948,0.128503411802,0.271379601629,-0.878801205295,1.0,0.0,0.0,0.0,1.0,0.0,0.0,0.0,1.0,-0.0638505443931,-0.459615498781,-0.304941028357,1.21846967915e-07,0.0,0.0,0.0,1.21846967915e-07,0.0,0.0,0.0,1.21846967915e-07,0.8825985,1.01008495,14.7884282,9e-08,0.0,0.0,0.0,9e-08,0.0,0.0,0.0,9e-08
1538768522255128455,2725,1538768522254942983,base_link,-0.345496857659,0.159850262149,0.330993960754,-0.863436629396,1.0,0.0,0.0,0.0,1.0,0.0,0.0,0.0,1.0,-0.175289690495,-0.416049331427,-0.320954561234,1.21846967915e-07,0.0,0.0,0.0,1.21846967915e-07,0.0,0.0,0.0,1.21846967915e-07,0.8825985,1.12776475,14.70016835,9e-08,0.0,0.0,0.0,9e-08,0.0,0.0,0.0,9e-08
1538768522673792935,2726,1538768522673442727,base_link,-0.294546191682,0.199722734503,0.419973259148,-0.834850784206,1.0,0.0,0.0,0.0,1.0,0.0,0.0,0.0,1.0,-0.239525407553,-0.382530808449,-0.260679721832,1.21846967915e-07,0.0,0.0,0.0,1.21846967915e-07,0.0,0.0,0.0,1.21846967915e-07,0.67665885,1.0198916,14.75900825,9e-08,0.0,0.0,0.0,9e-08,0.0,0.0,0.0,9e-08
1538768523260826439,2727,1538768523260488007,base_link,-0.185497180422,0.19417009532,0.516261467909,-0.813242194485,1.0,0.0,0.0,0.0,1.0,0.0,0.0,0.0,1.0,-0.576981961727,-0.104367874563,-0.247848629951,1.21846967915e-07,0.0,0.0,0.0,1.21846967915e-07,0.0,0.0,0.0,1.21846967915e-07,0.196133,1.2160246,12.46425215,9e-08,0.0,0.0,0.0,9e-08,0.0,0.0,0.0,9e-08
1538768523615367111,2728,1538768523615011559,base_link,-0.113327626478,0.146192785379,0.564843013931,-0.804199532575,1.0,0.0,0.0,0.0,1.0,0.0,0.0,0.0,1.0,-0.526677131653,-0.00434708315879,-0.187327191234,1.21846967915e-07,0.0,0.0,0.0,1.21846967915e-07,0.0,0.0,0.0,1.21846967915e-07,-0.0392266,1.01008495,9.9831697,9e-08,0.0,0.0,0.0,9e-08,0.0,0.0,0.0,9e-08
1538768524096045639,2729,1538768524095679239,base_link,-0.0372073007172,0.0750706455319,0.600827520021,-0.794975663865,1.0,0.0,0.0,0.0,1.0,0.0,0.0,0.0,1.0,-0.370381146669,0.0579404309392,-0.0722536966205,1.21846967915e-07,0.0,0.0,0.0,1.21846967915e-07,0.0,0.0,0.0,1.21846967915e-07,-0.0196133,0.7649187,9.87529655,9e-08,0.0,0.0,0.0,9e-08,0.0,0.0,0.0,9e-08
1538768524528072935,2730,1538768524527743367,base_link,0.0312405651601,-0.00323640922611,0.603936026254,-0.796413729751,1.0,0.0,0.0,0.0,1.0,0.0,0.0,0.0,1.0,-0.449415415525,0.126965463161,0.0130869448185,1.21846967915e-07,0.0,0.0,0.0,1.21846967915e-07,0.0,0.0,0.0,1.21846967915e-07,-0.40207265,0.77472535,7.6099604,9e-08,0.0,0.0,0.0,9e-08,0.0,0.0,0.0,9e-08
1538768524929831751,2731,1538768524929368551,base_link,0.0812531185834,-0.0691898204064,0.596554279966,-0.795445592437,1.0,0.0,0.0,0.0,1.0,0.0,0.0,0.0,1.0,-0.282232820988,0.097390152514,0.0592133030295,1.21846967915e-07,0.0,0.0,0.0,1.21846967915e-07,0.0,0.0,0.0,1.21846967915e-07,-0.2353596,0.4511059,8.73772515,9e-08,0.0,0.0,0.0,9e-08,0.0,0.0,0.0,9e-08
1538768525326386855,2732,1538768525326126055,base_link,0.107000914343,-0.105767157151,0.577815486794,-0.802180388703,1.0,0.0,0.0,0.0,1.0,0.0,0.0,0.0,1.0,-0.200581461191,0.0185148883611,0.169619470835,1.21846967915e-07,0.0,0.0,0.0,1.21846967915e-07,0.0,0.0,0.0,1.21846967915e-07,-0.2353596,0.196133,8.2964259,9e-08,0.0,0.0,0.0,9e-08,0.0,0.0,0.0,9e-08
1538768525844433095,2733,1538768525839576423,base_link,0.149391138172,-0.132781423433,0.522800614842,-0.828692282182,1.0,0.0,0.0,0.0,1.0,0.0,0.0,0.0,1.0,-0.15843360126,-0.0656724274158,0.232060357928,1.21846967915e-07,0.0,0.0,0.0,1.21846967915e-07,0.0,0.0,0.0,1.21846967915e-07,-0.1765197,0.3726527,10.4146623,9e-08,0.0,0.0,0.0,9e-08,0.0,0.0,0.0,9e-08
1538768526128850663,2734,1538768526128436199,base_link,0.167551063232,-0.136283758657,0.493898864409,-0.842269131615,1.0,0.0,0.0,0.0,1.0,0.0,0.0,0.0,1.0,-0.115529552102,-0.0953645408154,0.161122515798,1.21846967915e-07,0.0,0.0,0.0,1.21846967915e-07,0.0,0.0,0.0,1.21846967915e-07,-0.1372931,0.51975245,11.58165365,9e-08,0.0,0.0,0.0,9e-08,0.0,0.0,0.0,9e-08
1538768526574719751,2735,1538768526574472871,base_link,0.169543439541,-0.119657852138,0.460439373505,-0.863094782661,1.0,0.0,0.0,0.0,1.0,0.0,0.0,0.0,1.0,0.112498998642,-0.126573309302,0.202832922339,1.21846967915e-07,0.0,0.0,0.0,1.21846967915e-07,0.0,0.0,0.0,1.21846967915e-07,-0.1176798,-0.0392266,11.46397385,9e-08,0.0,0.0,0.0,9e-08,0.0,0.0,0.0,9e-08
1538768527055128295,2736,1538768527054220359,base_link,0.152083178658,-0.0893286400404,0.401872512979,-0.898548598658,1.0,0.0,0.0,0.0,1.0,0.0,0.0,0.0,1.0,0.11516815424,-0.114701636136,0.213324218988,1.21846967915e-07,0.0,0.0,0.0,1.21846967915e-07,0.0,0.0,0.0,1.21846967915e-07,-0.04903325,0.2157463,11.73856005,9e-08,0.0,0.0,0.0,9e-08,0.0,0.0,0.0,9e-08
1538768527441736199,2737,1538768527441453831,base_link,0.124082449479,-0.0631288049976,0.363803142982,-0.921013340222,1.0,0.0,0.0,0.0,1.0,0.0,0.0,0.0,1.0,0.261755764484,-0.0878993272781,0.196853324771,1.21846967915e-07,0.0,0.0,0.0,1.21846967915e-07,0.0,0.0,0.0,1.21846967915e-07,-0.08825985,0.1765197,11.7091401,9e-08,0.0,0.0,0.0,9e-08,0.0,0.0,0.0,9e-08
1538768527844314055,2738,1538768527843924615,base_link,0.0846115568114,-0.0386753715805,0.33016220404,-0.939328493718,1.0,0.0,0.0,0.0,1.0,0.0,0.0,0.0,1.0,0.221351608634,-0.0104920789599,0.131629094481,1.21846967915e-07,0.0,0.0,0.0,1.21846967915e-07,0.0,0.0,0.0,1.21846967915e-07,-0.1569064,0.2745862,10.91480145,9e-08,0.0,0.0,0.0,9e-08,0.0,0.0,0.0,9e-08
1538768528168610151,2739,1538768528167797543,base_link,0.0425856954622,-0.0243383653339,0.315353538491,-0.947705781494,1.0,0.0,0.0,0.0,1.0,0.0,0.0,0.0,1.0,0.317010760307,0.00697791343555,0.0827160030603,1.21846967915e-07,0.0,0.0,0.0,1.21846967915e-07,0.0,0.0,0.0,1.21846967915e-07,-0.196133,0.1569064,10.38524235,9e-08,0.0,0.0,0.0,9e-08,0.0,0.0,0.0,9e-08
