%time,field.header.seq,field.header.stamp,field.header.frame_id,field.orientation.x,field.orientation.y,field.orientation.z,field.orientation.w,field.orientation_covariance0,field.orientation_covariance1,field.orientation_covariance2,field.orientation_covariance3,field.orientation_covariance4,field.orientation_covariance5,field.orientation_covariance6,field.orientation_covariance7,field.orientation_covariance8,field.angular_velocity.x,field.angular_velocity.y,field.angular_velocity.z,field.angular_velocity_covariance0,field.angular_velocity_covariance1,field.angular_velocity_covariance2,field.angular_velocity_covariance3,field.angular_velocity_covariance4,field.angular_velocity_covariance5,field.angular_velocity_covariance6,field.angular_velocity_covariance7,field.angular_velocity_covariance8,field.linear_acceleration.x,field.linear_acceleration.y,field.linear_acceleration.z,field.linear_acceleration_covariance0,field.linear_acceleration_covariance1,field.linear_acceleration_covariance2,field.linear_acceleration_covariance3,field.linear_acceleration_covariance4,field.linear_acceleration_covariance5,field.linear_acceleration_covariance6,field.linear_acceleration_covariance7,field.linear_acceleration_covariance8
1532985276165509882,9839,1532985276164842009,base_link,0.0,0.0,0.0,0.0,-1.0,0.0,0.0,0.0,0.0,0.0,0.0,0.0,0.0,0.398,-0.059,-0.102,1.21846967915e-07,0.0,0.0,0.0,1.21846967915e-07,0.0,0.0,0.0,1.21846967915e-07,0.9218251,0.57859235,9.81645665,9e-08,0.0,0.0,0.0,9e-08,0.0,0.0,0.0,9e-08
1532985276235614745,9840,1532985276234563593,base_link,0.0,0.0,0.0,0.0,-1.0,0.0,0.0,0.0,0.0,0.0,0.0,0.0,0.0,0.532,-0.036,-0.125,1.21846967915e-07,0.0,0.0,0.0,1.21846967915e-07,0.0,0.0,0.0,1.21846967915e-07,0.6668522,0.38245935,8.65927195,9e-08,0.0,0.0,0.0,9e-08,0.0,0.0,0.0,9e-08
1532985276366717057,9841,1532985276366268556,base_link,0.0,0.0,0.0,0.0,-1.0,0.0,0.0,0.0,0.0,0.0,0.0,0.0,0.0,0.452,-0.096,-0.102,1.21846967915e-07,0.0,0.0,0.0,1.21846967915e-07,0.0,0.0,0.0,1.21846967915e-07,0.89240515,0.588399,9.022118,9e-08,0.0,0.0,0.0,9e-08,0.0,0.0,0.0,9e-08
1532985276481511594,9842,1532985276480612864,base_link,0.0,0.0,0.0,0.0,-1.0,0.0,0.0,0.0,0.0,0.0,0.0,0.0,0.0,0.394,-0.148,-0.137,1.21846967915e-07,0.0,0.0,0.0,1.21846967915e-07,0.0,0.0,0.0,1.21846967915e-07,0.8041453,0.65704555,10.6304086,9e-08,0.0,0.0,0.0,9e-08,0.0,0.0,0.0,9e-08
1532985276545353560,9843,1532985276543610096,base_link,0.0,0.0,0.0,0.0,-1.0,0.0,0.0,0.0,0.0,0.0,0.0,0.0,0.0,0.359,-0.131,-0.148,1.21846967915e-07,0.0,0.0,0.0,1.21846967915e-07,0.0,0.0,0.0,1.21846967915e-07,1.34351105,0.7256921,10.9246081,9e-08,0.0,0.0,0.0,9e-08,0.0,0.0,0.0,9e-08
1532985276643388941,9844,1532985276642781781,base_link,0.0,0.0,0.0,0.0,-1.0,0.0,0.0,0.0,0.0,0.0,0.0,0.0,0.0,0.444,-0.09,-0.223,1.21846967915e-07,0.0,0.0,0.0,1.21846967915e-07,0.0,0.0,0.0,1.21846967915e-07,2.02997655,0.50013915,11.46397385,9e-08,0.0,0.0,0.0,9e-08,0.0,0.0,0.0,9e-08
1532985276763798908,9845,1532985276760450135,base_link,0.0,0.0,0.0,0.0,-1.0,0.0,0.0,0.0,0.0,0.0,0.0,0.0,0.0,0.386,-0.059,-0.199,1.21846967915e-07,0.0,0.0,0.0,1.21846967915e-07,0.0,0.0,0.0,1.21846967915e-07,3.01064155,0.4118793,12.36618565,9e-08,0.0,0.0,0.0,9e-08,0.0,0.0,0.0,9e-08
1532985276880813816,9846,1532985276877507202,base_link,0.0,0.0,0.0,0.0,-1.0,0.0,0.0,0.0,0.0,0.0,0.0,0.0,0.0,0.459,-0.046,-0.166,1.21846967915e-07,0.0,0.0,0.0,1.21846967915e-07,0.0,0.0,0.0,1.21846967915e-07,2.08881645,1.10815145,11.2776475,9e-08,0.0,0.0,0.0,9e-08,0.0,0.0,0.0,9e-08
1532985276961352690,9847,1532985276960805314,base_link,0.0,0.0,0.0,0.0,-1.0,0.0,0.0,0.0,0.0,0.0,0.0,0.0,0.0,0.155,-0.097,-0.236,1.21846967915e-07,0.0,0.0,0.0,1.21846967915e-07,0.0,0.0,0.0,1.21846967915e-07,1.67693715,0.44129925,12.3367657,9e-08,0.0,0.0,0.0,9e-08,0.0,0.0,0.0,9e-08
1532985277046385408,9848,1532985277046020010,base_link,0.0,0.0,0.0,0.0,-1.0,0.0,0.0,0.0,0.0,0.0,0.0,0.0,0.0,0.177,-0.136,-0.272,1.21846967915e-07,0.0,0.0,0.0,1.21846967915e-07,0.0,0.0,0.0,1.21846967915e-07,1.0002783,0.2941995,11.4345539,9e-08,0.0,0.0,0.0,9e-08,0.0,0.0,0.0,9e-08
1532985277144930087,9849,1532985277143429852,base_link,0.0,0.0,0.0,0.0,-1.0,0.0,0.0,0.0,0.0,0.0,0.0,0.0,0.0,0.264,-0.167,-0.229,1.21846967915e-07,0.0,0.0,0.0,1.21846967915e-07,0.0,0.0,0.0,1.21846967915e-07,0.4903325,-0.04903325,10.3558224,9e-08,0.0,0.0,0.0,9e-08,0.0,0.0,0.0,9e-08
1532985277283887117,9850,1532985277282727554,base_link,0.0,0.0,0.0,0.0,-1.0,0.0,0.0,0.0,0.0,0.0,0.0,0.0,0.0,-0.18,-0.206,-0.144,1.21846967915e-07,0.0,0.0,0.0,1.21846967915e-07,0.0,0.0,0.0,1.21846967915e-07,0.10787315,-0.12748645,7.8060934,9e-08,0.0,0.0,0.0,9e-08,0.0,0.0,0.0,9e-08
1532985277345685263,9851,1532985277345253873,base_link,0.0,0.0,0.0,0.0,-1.0,0.0,0.0,0.0,0.0,0.0,0.0,0.0,0.0,-0.228,-0.237,-0.139,1.21846967915e-07,0.0,0.0,0.0,1.21846967915e-07,0.0,0.0,0.0,1.21846967915e-07,-0.46091255,1.08853815,6.2958693,9e-08,0.0,0.0,0.0,9e-08,0.0,0.0,0.0,9e-08
1532985277447563949,9852,1532985277446998594,base_link,0.0,0.0,0.0,0.0,-1.0,0.0,0.0,0.0,0.0,0.0,0.0,0.0,0.0,-0.196,-0.192,-0.241,1.21846967915e-07,0.0,0.0,0.0,1.21846967915e-07,0.0,0.0,0.0,1.21846967915e-07,-0.55897905,1.1571847,7.649187,9e-08,0.0,0.0,0.0,9e-08,0.0,0.0,0.0,9e-08
1532985277535650330,9853,1532985277535188744,base_link,0.0,0.0,0.0,0.0,-1.0,0.0,0.0,0.0,0.0,0.0,0.0,0.0,0.0,-0.071,-0.189,-0.387,1.21846967915e-07,0.0,0.0,0.0,1.21846967915e-07,0.0,0.0,0.0,1.21846967915e-07,-0.87279185,1.0002783,9.97336305,9e-08,0.0,0.0,0.0,9e-08,0.0,0.0,0.0,9e-08
1532985277644204964,9854,1532985277637995976,base_link,0.0,0.0,0.0,0.0,-1.0,0.0,0.0,0.0,0.0,0.0,0.0,0.0,0.0,-0.038,-0.228,-0.451,1.21846967915e-07,0.0,0.0,0.0,1.21846967915e-07,0.0,0.0,0.0,1.21846967915e-07,-1.12776475,0.57859235,12.2386992,9e-08,0.0,0.0,0.0,9e-08,0.0,0.0,0.0,9e-08
1532985277734403797,9855,1532985277732311401,base_link,0.0,0.0,0.0,0.0,-1.0,0.0,0.0,0.0,0.0,0.0,0.0,0.0,0.0,0.108,-0.26,-0.463,1.21846967915e-07,0.0,0.0,0.0,1.21846967915e-07,0.0,0.0,0.0,1.21846967915e-07,-1.24544455,-0.02941995,12.9251647,9e-08,0.0,0.0,0.0,9e-08,0.0,0.0,0.0,9e-08
1532985277859753828,9856,1532985277857269964,base_link,0.0,0.0,0.0,0.0,-1.0,0.0,0.0,0.0,0.0,0.0,0.0,0.0,0.0,0.364,-0.267,-0.397,1.21846967915e-07,0.0,0.0,0.0,1.21846967915e-07,0.0,0.0,0.0,1.21846967915e-07,-1.3337044,0.0980665,14.1804159,9e-08,0.0,0.0,0.0,9e-08,0.0,0.0,0.0,9e-08
1532985277938478841,9857,1532985277938016008,base_link,0.0,0.0,0.0,0.0,-1.0,0.0,0.0,0.0,0.0,0.0,0.0,0.0,0.0,0.267,-0.284,-0.297,1.21846967915e-07,0.0,0.0,0.0,1.21846967915e-07,0.0,0.0,0.0,1.21846967915e-07,-1.12776475,-0.75511205,15.4356671,9e-08,0.0,0.0,0.0,9e-08,0.0,0.0,0.0,9e-08
1532985278035494233,9858,1532985278033770621,base_link,0.0,0.0,0.0,0.0,-1.0,0.0,0.0,0.0,0.0,0.0,0.0,0.0,0.0,0.015,-0.27,-0.144,1.21846967915e-07,0.0,0.0,0.0,1.21846967915e-07,0.0,0.0,0.0,1.21846967915e-07,-1.12776475,-0.7453054,14.2980957,9e-08,0.0,0.0,0.0,9e-08,0.0,0.0,0.0,9e-08
1532985278138614053,9859,1532985278137830666,base_link,0.0,0.0,0.0,0.0,-1.0,0.0,0.0,0.0,0.0,0.0,0.0,0.0,0.0,-0.198,-0.268,-0.058,1.21846967915e-07,0.0,0.0,0.0,1.21846967915e-07,0.0,0.0,0.0,1.21846967915e-07,-1.32389775,-0.6276256,12.60154525,9e-08,0.0,0.0,0.0,9e-08,0.0,0.0,0.0,9e-08
1532985278242856206,9860,1532985278241370809,base_link,0.0,0.0,0.0,0.0,-1.0,0.0,0.0,0.0,0.0,0.0,0.0,0.0,0.0,-0.334,-0.285,-0.001,1.21846967915e-07,0.0,0.0,0.0,1.21846967915e-07,0.0,0.0,0.0,1.21846967915e-07,-1.372931,1.0395049,12.79767825,9e-08,0.0,0.0,0.0,9e-08,0.0,0.0,0.0,9e-08
1532985278383594435,9861,1532985278383022777,base_link,0.0,0.0,0.0,0.0,-1.0,0.0,0.0,0.0,0.0,0.0,0.0,0.0,0.0,-0.591,-0.211,-0.058,1.21846967915e-07,0.0,0.0,0.0,1.21846967915e-07,0.0,0.0,0.0,1.21846967915e-07,-1.4513842,0.1372931,10.7677017,9e-08,0.0,0.0,0.0,9e-08,0.0,0.0,0.0,9e-08
1532985278445475406,9862,1532985278444845081,base_link,0.0,0.0,0.0,0.0,-1.0,0.0,0.0,0.0,0.0,0.0,0.0,0.0,0.0,-0.617,-0.184,-0.102,1.21846967915e-07,0.0,0.0,0.0,1.21846967915e-07,0.0,0.0,0.0,1.21846967915e-07,-1.4906108,0.44129925,11.48358715,9e-08,0.0,0.0,0.0,9e-08,0.0,0.0,0.0,9e-08
1532985278521167254,9863,1532985278518787726,base_link,0.0,0.0,0.0,0.0,-1.0,0.0,0.0,0.0,0.0,0.0,0.0,0.0,0.0,-0.689,-0.13,-0.162,1.21846967915e-07,0.0,0.0,0.0,1.21846967915e-07,0.0,0.0,0.0,1.21846967915e-07,-1.3533177,1.12776475,11.20900095,9e-08,0.0,0.0,0.0,9e-08,0.0,0.0,0.0,9e-08
1532985278659772934,9864,1532985278656266147,base_link,0.0,0.0,0.0,0.0,-1.0,0.0,0.0,0.0,0.0,0.0,0.0,0.0,0.0,-0.572,-0.061,-0.243,1.21846967915e-07,0.0,0.0,0.0,1.21846967915e-07,0.0,0.0,0.0,1.21846967915e-07,-1.372931,0.57859235,10.62060195,9e-08,0.0,0.0,0.0,9e-08,0.0,0.0,0.0,9e-08
1532985278746415767,9865,1532985278741699192,base_link,0.0,0.0,0.0,0.0,-1.0,0.0,0.0,0.0,0.0,0.0,0.0,0.0,0.0,-0.51,-0.019,-0.263,1.21846967915e-07,0.0,0.0,0.0,1.21846967915e-07,0.0,0.0,0.0,1.21846967915e-07,-1.4513842,0.0784532,10.52253545,9e-08,0.0,0.0,0.0,9e-08,0.0,0.0,0.0,9e-08
1532985278855538307,9866,1532985278855081102,base_link,0.0,0.0,0.0,0.0,-1.0,0.0,0.0,0.0,0.0,0.0,0.0,0.0,0.0,-0.539,-0.016,-0.245,1.21846967915e-07,0.0,0.0,0.0,1.21846967915e-07,0.0,0.0,0.0,1.21846967915e-07,-1.4317709,0.34323275,10.0420096,9e-08,0.0,0.0,0.0,9e-08,0.0,0.0,0.0,9e-08
1532985278969524344,9867,1532985278968255345,base_link,0.0,0.0,0.0,0.0,-1.0,0.0,0.0,0.0,0.0,0.0,0.0,0.0,0.0,-0.52,0.002,-0.204,1.21846967915e-07,0.0,0.0,0.0,1.21846967915e-07,0.0,0.0,0.0,1.21846967915e-07,-1.4121576,0.22555295,9.2574776,9e-08,0.0,0.0,0.0,9e-08,0.0,0.0,0.0,9e-08
1532985279057448340,9868,1532985279054108838,base_link,0.0,0.0,0.0,0.0,-1.0,0.0,0.0,0.0,0.0,0.0,0.0,0.0,0.0,-0.461,0.03,-0.182,1.21846967915e-07,0.0,0.0,0.0,1.21846967915e-07,0.0,0.0,0.0,1.21846967915e-07,-1.3925443,0.0392266,8.7671451,9e-08,0.0,0.0,0.0,9e-08,0.0,0.0,0.0,9e-08
1532985279180988358,9869,1532985279180448782,base_link,0.0,0.0,0.0,0.0,-1.0,0.0,0.0,0.0,0.0,0.0,0.0,0.0,0.0,-0.391,0.026,-0.143,1.21846967915e-07,0.0,0.0,0.0,1.21846967915e-07,0.0,0.0,0.0,1.21846967915e-07,-1.3337044,-0.196133,8.8652116,9e-08,0.0,0.0,0.0,9e-08,0.0,0.0,0.0,9e-08
1532985279246030630,9870,1532985279245414986,base_link,0.0,0.0,0.0,0.0,-1.0,0.0,0.0,0.0,0.0,0.0,0.0,0.0,0.0,-0.265,0.043,-0.088,1.21846967915e-07,0.0,0.0,0.0,1.21846967915e-07,0.0,0.0,0.0,1.21846967915e-07,-1.3140911,-0.6080123,8.7671451,9e-08,0.0,0.0,0.0,9e-08,0.0,0.0,0.0,9e-08
1532985279328209546,9871,1532985279327757297,base_link,0.0,0.0,0.0,0.0,-1.0,0.0,0.0,0.0,0.0,0.0,0.0,0.0,0.0,-0.214,0.051,-0.02,1.21846967915e-07,0.0,0.0,0.0,1.21846967915e-07,0.0,0.0,0.0,1.21846967915e-07,-1.372931,-0.53936575,8.85540495,9e-08,0.0,0.0,0.0,9e-08,0.0,0.0,0.0,9e-08
1532985279497081679,9872,1532985279492969086,base_link,0.0,0.0,0.0,0.0,-1.0,0.0,0.0,0.0,0.0,0.0,0.0,0.0,0.0,-0.267,0.058,0.085,1.21846967915e-07,0.0,0.0,0.0,1.21846967915e-07,0.0,0.0,0.0,1.21846967915e-07,-1.36312435,0.04903325,8.7083052,9e-08,0.0,0.0,0.0,9e-08,0.0,0.0,0.0,9e-08
1532985279581529549,9873,1532985279580995954,base_link,0.0,0.0,0.0,0.0,-1.0,0.0,0.0,0.0,0.0,0.0,0.0,0.0,0.0,-0.322,0.08,0.116,1.21846967915e-07,0.0,0.0,0.0,1.21846967915e-07,0.0,0.0,0.0,1.21846967915e-07,-1.2552512,-0.04903325,8.5121722,9e-08,0.0,0.0,0.0,9e-08,0.0,0.0,0.0,9e-08
1532985279634730404,9874,1532985279633319981,base_link,0.0,0.0,0.0,0.0,-1.0,0.0,0.0,0.0,0.0,0.0,0.0,0.0,0.0,-0.318,0.101,0.13,1.21846967915e-07,0.0,0.0,0.0,1.21846967915e-07,0.0,0.0,0.0,1.21846967915e-07,-1.26505785,-0.14709975,8.7867584,9e-08,0.0,0.0,0.0,9e-08,0.0,0.0,0.0,9e-08
1532985279751150812,9875,1532985279750511433,base_link,0.0,0.0,0.0,0.0,-1.0,0.0,0.0,0.0,0.0,0.0,0.0,0.0,0.0,-0.281,0.103,0.124,1.21846967915e-07,0.0,0.0,0.0,1.21846967915e-07,0.0,0.0,0.0,1.21846967915e-07,-1.22583125,0.08825985,8.8848249,9e-08,0.0,0.0,0.0,9e-08,0.0,0.0,0.0,9e-08
1532985279838006145,9876,1532985279837195628,base_link,0.0,0.0,0.0,0.0,-1.0,0.0,0.0,0.0,0.0,0.0,0.0,0.0,0.0,-0.184,0.126,0.109,1.21846967915e-07,0.0,0.0,0.0,1.21846967915e-07,0.0,0.0,0.0,1.21846967915e-07,-1.26505785,1.02562688831e-15,8.3748791,9e-08,0.0,0.0,0.0,9e-08,0.0,0.0,0.0,9e-08
1532985280000479745,9877,1532985279999581901,base_link,0.0,0.0,0.0,0.0,-1.0,0.0,0.0,0.0,0.0,0.0,0.0,0.0,0.0,-0.239,0.161,0.084,1.21846967915e-07,0.0,0.0,0.0,1.21846967915e-07,0.0,0.0,0.0,1.21846967915e-07,-1.3925443,-0.28439285,7.0411747,9e-08,0.0,0.0,0.0,9e-08,0.0,0.0,0.0,9e-08
1532985280076230873,9878,1532985280070735668,base_link,0.0,0.0,0.0,0.0,-1.0,0.0,0.0,0.0,0.0,0.0,0.0,0.0,0.0,-0.274,0.156,0.096,1.21846967915e-07,0.0,0.0,0.0,1.21846967915e-07,0.0,0.0,0.0,1.21846967915e-07,-1.40235095,-0.22555295,6.65871535,9e-08,0.0,0.0,0.0,9e-08,0.0,0.0,0.0,9e-08
1532985280134200740,9879,1532985280133163743,base_link,0.0,0.0,0.0,0.0,-1.0,0.0,0.0,0.0,0.0,0.0,0.0,0.0,0.0,-0.303,0.124,0.098,1.21846967915e-07,0.0,0.0,0.0,1.21846967915e-07,0.0,0.0,0.0,1.21846967915e-07,-1.40235095,0.08825985,6.75678185,9e-08,0.0,0.0,0.0,9e-08,0.0,0.0,0.0,9e-08
1532985280255805217,9880,1532985280255431402,base_link,0.0,0.0,0.0,0.0,-1.0,0.0,0.0,0.0,0.0,0.0,0.0,0.0,0.0,-0.141,0.12,0.078,1.21846967915e-07,0.0,0.0,0.0,1.21846967915e-07,0.0,0.0,0.0,1.21846967915e-07,-1.372931,-0.0392266,6.95291485,9e-08,0.0,0.0,0.0,9e-08,0.0,0.0,0.0,9e-08
1532985280337985939,9881,1532985280335337660,base_link,0.0,0.0,0.0,0.0,-1.0,0.0,0.0,0.0,0.0,0.0,0.0,0.0,0.0,-0.029,0.153,0.073,1.21846967915e-07,0.0,0.0,0.0,1.21846967915e-07,0.0,0.0,0.0,1.21846967915e-07,-1.4317709,-0.04903325,6.8450417,9e-08,0.0,0.0,0.0,9e-08,0.0,0.0,0.0,9e-08
1532985280452210108,9882,1532985280451692345,base_link,0.0,0.0,0.0,0.0,-1.0,0.0,0.0,0.0,0.0,0.0,0.0,0.0,0.0,-0.14,0.15,0.065,1.21846967915e-07,0.0,0.0,0.0,1.21846967915e-07,0.0,0.0,0.0,1.21846967915e-07,-1.4709975,-0.06864655,7.18827445,9e-08,0.0,0.0,0.0,9e-08,0.0,0.0,0.0,9e-08
1532985280540959595,9883,1532985280537794769,base_link,0.0,0.0,0.0,0.0,-1.0,0.0,0.0,0.0,0.0,0.0,0.0,0.0,0.0,-0.157,0.127,0.08,1.21846967915e-07,0.0,0.0,0.0,1.21846967915e-07,0.0,0.0,0.0,1.21846967915e-07,-1.42196425,0.22555295,6.8058151,9e-08,0.0,0.0,0.0,9e-08,0.0,0.0,0.0,9e-08
1532985280638259779,9884,1532985280637453162,base_link,0.0,0.0,0.0,0.0,-1.0,0.0,0.0,0.0,0.0,0.0,0.0,0.0,0.0,-0.01,0.124,0.064,1.21846967915e-07,0.0,0.0,0.0,1.21846967915e-07,0.0,0.0,0.0,1.21846967915e-07,-1.4906108,0.1176798,7.060788,9e-08,0.0,0.0,0.0,9e-08,0.0,0.0,0.0,9e-08
1532985280732314781,9885,1532985280729814864,base_link,0.0,0.0,0.0,0.0,-1.0,0.0,0.0,0.0,0.0,0.0,0.0,0.0,0.0,0.064,0.14,0.032,1.21846967915e-07,0.0,0.0,0.0,1.21846967915e-07,0.0,0.0,0.0,1.21846967915e-07,-1.50041745,0.14709975,6.472389,9e-08,0.0,0.0,0.0,9e-08,0.0,0.0,0.0,9e-08
1532985280838064066,9886,1532985280837774060,base_link,0.0,0.0,0.0,0.0,-1.0,0.0,0.0,0.0,0.0,0.0,0.0,0.0,0.0,0.173,0.095,0.016,1.21846967915e-07,0.0,0.0,0.0,1.21846967915e-07,0.0,0.0,0.0,1.21846967915e-07,-1.4709975,0.40207265,6.8058151,9e-08,0.0,0.0,0.0,9e-08,0.0,0.0,0.0,9e-08
1532985280935806712,9887,1532985280934140601,base_link,0.0,0.0,0.0,0.0,-1.0,0.0,0.0,0.0,0.0,0.0,0.0,0.0,0.0,0.083,0.069,0.01,1.21846967915e-07,0.0,0.0,0.0,1.21846967915e-07,0.0,0.0,0.0,1.21846967915e-07,-1.6475172,0.2745862,7.32556755,9e-08,0.0,0.0,0.0,9e-08,0.0,0.0,0.0,9e-08
1532985281054715276,9888,1532985281054208643,base_link,0.0,0.0,0.0,0.0,-1.0,0.0,0.0,0.0,0.0,0.0,0.0,0.0,0.0,0.188,0.063,-7.71527483463e-18,1.21846967915e-07,0.0,0.0,0.0,1.21846967915e-07,0.0,0.0,0.0,1.21846967915e-07,-1.569064,-0.0392266,5.7859235,9e-08,0.0,0.0,0.0,9e-08,0.0,0.0,0.0,9e-08
1532985281135445431,9889,1532985281134728411,base_link,0.0,0.0,0.0,0.0,-1.0,0.0,0.0,0.0,0.0,0.0,0.0,0.0,0.0,0.228,0.053,0.02,1.21846967915e-07,0.0,0.0,0.0,1.21846967915e-07,0.0,0.0,0.0,1.21846967915e-07,-1.6082906,-0.46091255,6.32528925,9e-08,0.0,0.0,0.0,9e-08,0.0,0.0,0.0,9e-08
1532985281239334144,9890,1532985281238859468,base_link,0.0,0.0,0.0,0.0,-1.0,0.0,0.0,0.0,0.0,0.0,0.0,0.0,0.0,0.34,0.016,0.085,1.21846967915e-07,0.0,0.0,0.0,1.21846967915e-07,0.0,0.0,0.0,1.21846967915e-07,-1.65732385,-0.0980665,8.07087295,9e-08,0.0,0.0,0.0,9e-08,0.0,0.0,0.0,9e-08
1532985281350921605,9891,1532985281350253623,base_link,0.0,0.0,0.0,0.0,-1.0,0.0,0.0,0.0,0.0,0.0,0.0,0.0,0.0,0.35,0.009,0.128,1.21846967915e-07,0.0,0.0,0.0,1.21846967915e-07,0.0,0.0,0.0,1.21846967915e-07,-1.7063571,-0.2353596,9.30651085,9e-08,0.0,0.0,0.0,9e-08,0.0,0.0,0.0,9e-08
1532985281490121370,9892,1532985281489334167,base_link,0.0,0.0,0.0,0.0,-1.0,0.0,0.0,0.0,0.0,0.0,0.0,0.0,0.0,0.225,-0.006,0.17,1.21846967915e-07,0.0,0.0,0.0,1.21846967915e-07,0.0,0.0,0.0,1.21846967915e-07,-1.69655045,0.0196133,7.56092715,9e-08,0.0,0.0,0.0,9e-08,0.0,0.0,0.0,9e-08
1532985281562392094,9893,1532985281561687421,base_link,0.0,0.0,0.0,0.0,-1.0,0.0,0.0,0.0,0.0,0.0,0.0,0.0,0.0,0.216,-0.029,0.161,1.21846967915e-07,0.0,0.0,0.0,1.21846967915e-07,0.0,0.0,0.0,1.21846967915e-07,-1.7259704,-0.0980665,9.71839015,9e-08,0.0,0.0,0.0,9e-08,0.0,0.0,0.0,9e-08
1532985281642929231,9894,1532985281642305553,base_link,0.0,0.0,0.0,0.0,-1.0,0.0,0.0,0.0,0.0,0.0,0.0,0.0,0.0,0.181,-0.067,0.131,1.21846967915e-07,0.0,0.0,0.0,1.21846967915e-07,0.0,0.0,0.0,1.21846967915e-07,-1.6671305,-0.0784532,11.6503002,9e-08,0.0,0.0,0.0,9e-08,0.0,0.0,0.0,9e-08
1532985281760043011,9895,1532985281758926263,base_link,0.0,0.0,0.0,0.0,-1.0,0.0,0.0,0.0,0.0,0.0,0.0,0.0,0.0,0.147,-0.095,0.08,1.21846967915e-07,0.0,0.0,0.0,1.21846967915e-07,0.0,0.0,0.0,1.21846967915e-07,-1.7455837,0.1372931,10.9442214,9e-08,0.0,0.0,0.0,9e-08,0.0,0.0,0.0,9e-08
1532985281850425319,9896,1532985281849034303,base_link,0.0,0.0,0.0,0.0,-1.0,0.0,0.0,0.0,0.0,0.0,0.0,0.0,0.0,0.232,-0.07,0.059,1.21846967915e-07,0.0,0.0,0.0,1.21846967915e-07,0.0,0.0,0.0,1.21846967915e-07,-1.8240369,0.22555295,8.4141057,9e-08,0.0,0.0,0.0,9e-08,0.0,0.0,0.0,9e-08
1532985281979762416,9897,1532985281974436409,base_link,0.0,0.0,0.0,0.0,-1.0,0.0,0.0,0.0,0.0,0.0,0.0,0.0,0.0,0.08,-0.092,-0.019,1.21846967915e-07,0.0,0.0,0.0,1.21846967915e-07,0.0,0.0,0.0,1.21846967915e-07,-1.7848103,0.18632635,7.77667345,9e-08,0.0,0.0,0.0,9e-08,0.0,0.0,0.0,9e-08
1532985282061944995,9898,1532985282061539893,base_link,0.0,0.0,0.0,0.0,-1.0,0.0,0.0,0.0,0.0,0.0,0.0,0.0,0.0,0.079,-0.107,-0.052,1.21846967915e-07,0.0,0.0,0.0,1.21846967915e-07,0.0,0.0,0.0,1.21846967915e-07,-1.73577705,-0.16671305,9.52225715,9e-08,0.0,0.0,0.0,9e-08,0.0,0.0,0.0,9e-08
1532985282162272929,9899,1532985282159451061,base_link,0.0,0.0,0.0,0.0,-1.0,0.0,0.0,0.0,0.0,0.0,0.0,0.0,0.0,0.026,-0.096,-0.049,1.21846967915e-07,0.0,0.0,0.0,1.21846967915e-07,0.0,0.0,0.0,1.21846967915e-07,-1.83384355,-0.0392266,9.83606995,9e-08,0.0,0.0,0.0,9e-08,0.0,0.0,0.0,9e-08
1532985282248225601,9900,1532985282247191316,base_link,0.0,0.0,0.0,0.0,-1.0,0.0,0.0,0.0,0.0,0.0,0.0,0.0,0.0,0.136,-0.095,-0.019,1.21846967915e-07,0.0,0.0,0.0,1.21846967915e-07,0.0,0.0,0.0,1.21846967915e-07,-1.8240369,0.32361945,10.0812362,9e-08,0.0,0.0,0.0,9e-08,0.0,0.0,0.0,9e-08
1532985282337422870,9901,1532985282336941954,base_link,0.0,0.0,0.0,0.0,-1.0,0.0,0.0,0.0,0.0,0.0,0.0,0.0,0.0,0.07,-0.13,-0.024,1.21846967915e-07,0.0,0.0,0.0,1.21846967915e-07,0.0,0.0,0.0,1.21846967915e-07,-1.8044236,0.22555295,10.05181625,9e-08,0.0,0.0,0.0,9e-08,0.0,0.0,0.0,9e-08
1532985282433119984,9902,1532985282432399091,base_link,0.0,0.0,0.0,0.0,-1.0,0.0,0.0,0.0,0.0,0.0,0.0,0.0,0.0,0.1,-0.13,-0.038,1.21846967915e-07,0.0,0.0,0.0,1.21846967915e-07,0.0,0.0,0.0,1.21846967915e-07,-1.6671305,-0.02941995,11.5326204,9e-08,0.0,0.0,0.0,9e-08,0.0,0.0,0.0,9e-08
1532985282526295858,9903,1532985282525646203,base_link,0.0,0.0,0.0,0.0,-1.0,0.0,0.0,0.0,0.0,0.0,0.0,0.0,0.0,0.142,-0.121,-0.019,1.21846967915e-07,0.0,0.0,0.0,1.21846967915e-07,0.0,0.0,0.0,1.21846967915e-07,-1.65732385,-0.5295591,11.7091401,9e-08,0.0,0.0,0.0,9e-08,0.0,0.0,0.0,9e-08
1532985282629560020,9904,1532985282628564153,base_link,0.0,0.0,0.0,0.0,-1.0,0.0,0.0,0.0,0.0,0.0,0.0,0.0,0.0,0.077,-0.118,0.02,1.21846967915e-07,0.0,0.0,0.0,1.21846967915e-07,0.0,0.0,0.0,1.21846967915e-07,-1.65732385,-0.53936575,12.3759923,9e-08,0.0,0.0,0.0,9e-08,0.0,0.0,0.0,9e-08
1532985282739100555,9905,1532985282738588195,base_link,0.0,0.0,0.0,0.0,-1.0,0.0,0.0,0.0,0.0,0.0,0.0,0.0,0.0,0.157,-0.12,0.067,1.21846967915e-07,0.0,0.0,0.0,1.21846967915e-07,0.0,0.0,0.0,1.21846967915e-07,-1.6867438,-0.10787315,13.0624578,9e-08,0.0,0.0,0.0,9e-08,0.0,0.0,0.0,9e-08
1532985282852706736,9906,1532985282851969209,base_link,0.0,0.0,0.0,0.0,-1.0,0.0,0.0,0.0,0.0,0.0,0.0,0.0,0.0,0.055,-0.102,0.07,1.21846967915e-07,0.0,0.0,0.0,1.21846967915e-07,0.0,0.0,0.0,1.21846967915e-07,-1.7063571,0.02941995,12.46425215,9e-08,0.0,0.0,0.0,9e-08,0.0,0.0,0.0,9e-08
1532985282933858666,9907,1532985282933390929,base_link,0.0,0.0,0.0,0.0,-1.0,0.0,0.0,0.0,0.0,0.0,0.0,0.0,0.0,0.017,-0.106,0.061,1.21846967915e-07,0.0,0.0,0.0,1.21846967915e-07,0.0,0.0,0.0,1.21846967915e-07,-1.6867438,0.4707192,12.07198615,9e-08,0.0,0.0,0.0,9e-08,0.0,0.0,0.0,9e-08
1532985283043450784,9908,1532985283042475578,base_link,0.0,0.0,0.0,0.0,-1.0,0.0,0.0,0.0,0.0,0.0,0.0,0.0,0.0,0.018,-0.107,0.027,1.21846967915e-07,0.0,0.0,0.0,1.21846967915e-07,0.0,0.0,0.0,1.21846967915e-07,-1.67693715,0.53936575,11.7091401,9e-08,0.0,0.0,0.0,9e-08,0.0,0.0,0.0,9e-08
1532985283151474075,9909,1532985283150756986,base_link,0.0,0.0,0.0,0.0,-1.0,0.0,0.0,0.0,0.0,0.0,0.0,0.0,0.0,0.006,-0.082,-0.023,1.21846967915e-07,0.0,0.0,0.0,1.21846967915e-07,0.0,0.0,0.0,1.21846967915e-07,-1.71616375,0.12748645,10.8265416,9e-08,0.0,0.0,0.0,9e-08,0.0,0.0,0.0,9e-08
1532985283258708655,9910,1532985283257802768,base_link,0.0,0.0,0.0,0.0,-1.0,0.0,0.0,0.0,0.0,0.0,0.0,0.0,0.0,-0.036,-0.087,-0.059,1.21846967915e-07,0.0,0.0,0.0,1.21846967915e-07,0.0,0.0,0.0,1.21846967915e-07,-1.71616375,-0.10787315,11.2384209,9e-08,0.0,0.0,0.0,9e-08,0.0,0.0,0.0,9e-08
1532985283344780122,9911,1532985283343457839,base_link,0.0,0.0,0.0,0.0,-1.0,0.0,0.0,0.0,0.0,0.0,0.0,0.0,0.0,0.089,-0.085,-0.069,1.21846967915e-07,0.0,0.0,0.0,1.21846967915e-07,0.0,0.0,0.0,1.21846967915e-07,-1.71616375,0.51975245,10.79712165,9e-08,0.0,0.0,0.0,9e-08,0.0,0.0,0.0,9e-08
1532985283433534029,9912,1532985283432797778,base_link,0.0,0.0,0.0,0.0,-1.0,0.0,0.0,0.0,0.0,0.0,0.0,0.0,0.0,-0.004,-0.079,-0.093,1.21846967915e-07,0.0,0.0,0.0,1.21846967915e-07,0.0,0.0,0.0,1.21846967915e-07,-1.71616375,0.7060788,10.89518815,9e-08,0.0,0.0,0.0,9e-08,0.0,0.0,0.0,9e-08
1532985283541868858,9913,1532985283541486018,base_link,0.0,0.0,0.0,0.0,-1.0,0.0,0.0,0.0,0.0,0.0,0.0,0.0,0.0,-0.026,-0.07,-0.129,1.21846967915e-07,0.0,0.0,0.0,1.21846967915e-07,0.0,0.0,0.0,1.21846967915e-07,-1.6867438,-0.2157463,11.60126695,9e-08,0.0,0.0,0.0,9e-08,0.0,0.0,0.0,9e-08
1532985283628308354,9914,1532985283626902613,base_link,0.0,0.0,0.0,0.0,-1.0,0.0,0.0,0.0,0.0,0.0,0.0,0.0,0.0,0.027,-0.035,-0.117,1.21846967915e-07,0.0,0.0,0.0,1.21846967915e-07,0.0,0.0,0.0,1.21846967915e-07,-1.7063571,-0.1176798,10.4931155,9e-08,0.0,0.0,0.0,9e-08,0.0,0.0,0.0,9e-08
1532985283729496344,9915,1532985283728823719,base_link,0.0,0.0,0.0,0.0,-1.0,0.0,0.0,0.0,0.0,0.0,0.0,0.0,0.0,0.283,-0.047,-0.083,1.21846967915e-07,0.0,0.0,0.0,1.21846967915e-07,0.0,0.0,0.0,1.21846967915e-07,-1.63771055,0.18632635,10.09104285,9e-08,0.0,0.0,0.0,9e-08,0.0,0.0,0.0,9e-08
1532985283845352344,9916,1532985283844107506,base_link,0.0,0.0,0.0,0.0,-1.0,0.0,0.0,0.0,0.0,0.0,0.0,0.0,0.0,0.605,-0.044,-0.059,1.21846967915e-07,0.0,0.0,0.0,1.21846967915e-07,0.0,0.0,0.0,1.21846967915e-07,-1.569064,0.2549729,11.4737805,9e-08,0.0,0.0,0.0,9e-08,0.0,0.0,0.0,9e-08
1532985283945012364,9917,1532985283944483975,base_link,0.0,0.0,0.0,0.0,-1.0,0.0,0.0,0.0,0.0,0.0,0.0,0.0,0.0,0.444,-0.025,-0.013,1.21846967915e-07,0.0,0.0,0.0,1.21846967915e-07,0.0,0.0,0.0,1.21846967915e-07,-1.6475172,0.3530394,10.9638347,9e-08,0.0,0.0,0.0,9e-08,0.0,0.0,0.0,9e-08
1532985284052141893,9918,1532985284046867202,base_link,0.0,0.0,0.0,0.0,-1.0,0.0,0.0,0.0,0.0,0.0,0.0,0.0,0.0,0.35,-0.018,-0.045,1.21846967915e-07,0.0,0.0,0.0,1.21846967915e-07,0.0,0.0,0.0,1.21846967915e-07,-1.8240369,0.40207265,8.3160392,9e-08,0.0,0.0,0.0,9e-08,0.0,0.0,0.0,9e-08
1532985284147844075,9919,1532985284147287151,base_link,0.0,0.0,0.0,0.0,-1.0,0.0,0.0,0.0,0.0,0.0,0.0,0.0,0.0,0.317,-0.064,-0.105,1.21846967915e-07,0.0,0.0,0.0,1.21846967915e-07,0.0,0.0,0.0,1.21846967915e-07,-1.765197,0.2745862,10.787315,9e-08,0.0,0.0,0.0,9e-08,0.0,0.0,0.0,9e-08
1532985284257536318,9920,1532985284257042827,base_link,0.0,0.0,0.0,0.0,-1.0,0.0,0.0,0.0,0.0,0.0,0.0,0.0,0.0,0.449,-0.07,-0.193,1.21846967915e-07,0.0,0.0,0.0,1.21846967915e-07,0.0,0.0,0.0,1.21846967915e-07,-1.73577705,0.08825985,11.179581,9e-08,0.0,0.0,0.0,9e-08,0.0,0.0,0.0,9e-08
1532985284336787320,9921,1532985284336022213,base_link,0.0,0.0,0.0,0.0,-1.0,0.0,0.0,0.0,0.0,0.0,0.0,0.0,0.0,0.389,-0.082,-0.192,1.21846967915e-07,0.0,0.0,0.0,1.21846967915e-07,0.0,0.0,0.0,1.21846967915e-07,-1.71616375,0.6472389,10.7480884,9e-08,0.0,0.0,0.0,9e-08,0.0,0.0,0.0,9e-08
1532985284437818766,9922,1532985284437064951,base_link,0.0,0.0,0.0,0.0,-1.0,0.0,0.0,0.0,0.0,0.0,0.0,0.0,0.0,0.585,-0.085,-0.205,1.21846967915e-07,0.0,0.0,0.0,1.21846967915e-07,0.0,0.0,0.0,1.21846967915e-07,-1.6671305,0.4903325,9.7281968,9e-08,0.0,0.0,0.0,9e-08,0.0,0.0,0.0,9e-08
1532985284530236534,9923,1532985284525487675,base_link,0.0,0.0,0.0,0.0,-1.0,0.0,0.0,0.0,0.0,0.0,0.0,0.0,0.0,0.515,-0.126,-0.267,1.21846967915e-07,0.0,0.0,0.0,1.21846967915e-07,0.0,0.0,0.0,1.21846967915e-07,-1.5494507,0.26477955,10.7088618,9e-08,0.0,0.0,0.0,9e-08,0.0,0.0,0.0,9e-08
1532985284646150143,9924,1532985284645857126,base_link,0.0,0.0,0.0,0.0,-1.0,0.0,0.0,0.0,0.0,0.0,0.0,0.0,0.0,0.627,-0.129,-0.339,1.21846967915e-07,0.0,0.0,0.0,1.21846967915e-07,0.0,0.0,0.0,1.21846967915e-07,-1.44157755,0.0980665,10.3362091,9e-08,0.0,0.0,0.0,9e-08,0.0,0.0,0.0,9e-08
1532985284738836425,9925,1532985284737337847,base_link,0.0,0.0,0.0,0.0,-1.0,0.0,0.0,0.0,0.0,0.0,0.0,0.0,0.0,0.392,-0.139,-0.323,1.21846967915e-07,0.0,0.0,0.0,1.21846967915e-07,0.0,0.0,0.0,1.21846967915e-07,-1.50041745,0.30400615,9.50264385,9e-08,0.0,0.0,0.0,9e-08,0.0,0.0,0.0,9e-08
1532985284837331514,9926,1532985284836902832,base_link,0.0,0.0,0.0,0.0,-1.0,0.0,0.0,0.0,0.0,0.0,0.0,0.0,0.0,0.289,-0.152,-0.332,1.21846967915e-07,0.0,0.0,0.0,1.21846967915e-07,0.0,0.0,0.0,1.21846967915e-07,-1.569064,0.6472389,8.63965865,9e-08,0.0,0.0,0.0,9e-08,0.0,0.0,0.0,9e-08
1532985284949643188,9927,1532985284949099859,base_link,0.0,0.0,0.0,0.0,-1.0,0.0,0.0,0.0,0.0,0.0,0.0,0.0,0.0,0.206,-0.192,-0.366,1.21846967915e-07,0.0,0.0,0.0,1.21846967915e-07,0.0,0.0,0.0,1.21846967915e-07,-1.5494507,0.53936575,9.63993695,9e-08,0.0,0.0,0.0,9e-08,0.0,0.0,0.0,9e-08
1532985285072339956,9928,1532985285071886482,base_link,0.0,0.0,0.0,0.0,-1.0,0.0,0.0,0.0,0.0,0.0,0.0,0.0,0.0,0.288,-0.213,-0.375,1.21846967915e-07,0.0,0.0,0.0,1.21846967915e-07,0.0,0.0,0.0,1.21846967915e-07,-1.65732385,0.2549729,10.7088618,9e-08,0.0,0.0,0.0,9e-08,0.0,0.0,0.0,9e-08
1532985285140212413,9929,1532985285139418033,base_link,0.0,0.0,0.0,0.0,-1.0,0.0,0.0,0.0,0.0,0.0,0.0,0.0,0.0,0.283,-0.23,-0.371,1.21846967915e-07,0.0,0.0,0.0,1.21846967915e-07,0.0,0.0,0.0,1.21846967915e-07,-1.67693715,0.5687857,10.2185293,9e-08,0.0,0.0,0.0,9e-08,0.0,0.0,0.0,9e-08
1532985285231147344,9930,1532985285230487926,base_link,0.0,0.0,0.0,0.0,-1.0,0.0,0.0,0.0,0.0,0.0,0.0,0.0,0.0,0.268,-0.271,-0.337,1.21846967915e-07,0.0,0.0,0.0,1.21846967915e-07,0.0,0.0,0.0,1.21846967915e-07,-1.59848395,0.2353596,10.9049948,9e-08,0.0,0.0,0.0,9e-08,0.0,0.0,0.0,9e-08
1532985285325633648,9931,1532985285325076018,base_link,0.0,0.0,0.0,0.0,-1.0,0.0,0.0,0.0,0.0,0.0,0.0,0.0,0.0,0.276,-0.295,-0.304,1.21846967915e-07,0.0,0.0,0.0,1.21846967915e-07,0.0,0.0,0.0,1.21846967915e-07,-1.63771055,0.00980665,11.0815145,9e-08,0.0,0.0,0.0,9e-08,0.0,0.0,0.0,9e-08
1532985285434535547,9932,1532985285432368588,base_link,0.0,0.0,0.0,0.0,-1.0,0.0,0.0,0.0,0.0,0.0,0.0,0.0,0.0,0.294,-0.316,-0.245,1.21846967915e-07,0.0,0.0,0.0,1.21846967915e-07,0.0,0.0,0.0,1.21846967915e-07,-1.5102241,0.2745862,12.36618565,9e-08,0.0,0.0,0.0,9e-08,0.0,0.0,0.0,9e-08
1532985285541755150,9933,1532985285541341821,base_link,0.0,0.0,0.0,0.0,-1.0,0.0,0.0,0.0,0.0,0.0,0.0,0.0,0.0,0.293,-0.339,-0.238,1.21846967915e-07,0.0,0.0,0.0,1.21846967915e-07,0.0,0.0,0.0,1.21846967915e-07,-1.53964405,-0.196133,12.6309652,9e-08,0.0,0.0,0.0,9e-08,0.0,0.0,0.0,9e-08
1532985285636894251,9934,1532985285636157835,base_link,0.0,0.0,0.0,0.0,-1.0,0.0,0.0,0.0,0.0,0.0,0.0,0.0,0.0,0.134,-0.353,-0.218,1.21846967915e-07,0.0,0.0,0.0,1.21846967915e-07,0.0,0.0,0.0,1.21846967915e-07,-1.57887065,0.392266,12.552512,9e-08,0.0,0.0,0.0,9e-08,0.0,0.0,0.0,9e-08
1532985285720475740,9935,1532985285716447701,base_link,0.0,0.0,0.0,0.0,-1.0,0.0,0.0,0.0,0.0,0.0,0.0,0.0,0.0,0.061,-0.331,-0.241,1.21846967915e-07,0.0,0.0,0.0,1.21846967915e-07,0.0,0.0,0.0,1.21846967915e-07,-1.569064,0.34323275,11.89546645,9e-08,0.0,0.0,0.0,9e-08,0.0,0.0,0.0,9e-08
1532985285862441082,9936,1532985285861921550,base_link,0.0,0.0,0.0,0.0,-1.0,0.0,0.0,0.0,0.0,0.0,0.0,0.0,0.0,-0.089,-0.335,-0.276,1.21846967915e-07,0.0,0.0,0.0,1.21846967915e-07,0.0,0.0,0.0,1.21846967915e-07,-1.52003075,0.42168595,12.9840046,9e-08,0.0,0.0,0.0,9e-08,0.0,0.0,0.0,9e-08
1532985285939542552,9937,1532985285938845995,base_link,0.0,0.0,0.0,0.0,-1.0,0.0,0.0,0.0,0.0,0.0,0.0,0.0,0.0,-0.045,-0.311,-0.304,1.21846967915e-07,0.0,0.0,0.0,1.21846967915e-07,0.0,0.0,0.0,1.21846967915e-07,-1.61809725,0.24516625,12.7094184,9e-08,0.0,0.0,0.0,9e-08,0.0,0.0,0.0,9e-08
1532985286053793936,9938,1532985286053124119,base_link,0.0,0.0,0.0,0.0,-1.0,0.0,0.0,0.0,0.0,0.0,0.0,0.0,0.0,-0.014,-0.338,-0.296,1.21846967915e-07,0.0,0.0,0.0,1.21846967915e-07,0.0,0.0,0.0,1.21846967915e-07,-1.5102241,0.89240515,13.05265115,9e-08,0.0,0.0,0.0,9e-08,0.0,0.0,0.0,9e-08
1532985286146742830,9939,1532985286146045054,base_link,0.0,0.0,0.0,0.0,-1.0,0.0,0.0,0.0,0.0,0.0,0.0,0.0,0.0,0.076,-0.316,-0.351,1.21846967915e-07,0.0,0.0,0.0,1.21846967915e-07,0.0,0.0,0.0,1.21846967915e-07,-1.569064,0.83356525,11.66010685,9e-08,0.0,0.0,0.0,9e-08,0.0,0.0,0.0,9e-08
1532985286264963982,9940,1532985286264276826,base_link,0.0,0.0,0.0,0.0,-1.0,0.0,0.0,0.0,0.0,0.0,0.0,0.0,0.0,0.251,-0.348,-0.4,1.21846967915e-07,0.0,0.0,0.0,1.21846967915e-07,0.0,0.0,0.0,1.21846967915e-07,-1.5298374,-0.26477955,11.52281375,9e-08,0.0,0.0,0.0,9e-08,0.0,0.0,0.0,9e-08
1532985286362363631,9941,1532985286361924934,base_link,0.0,0.0,0.0,0.0,-1.0,0.0,0.0,0.0,0.0,0.0,0.0,0.0,0.0,0.531,-0.394,-0.376,1.21846967915e-07,0.0,0.0,0.0,1.21846967915e-07,0.0,0.0,0.0,1.21846967915e-07,-1.30428445,-0.1176798,14.19022255,9e-08,0.0,0.0,0.0,9e-08,0.0,0.0,0.0,9e-08
1532985286456750142,9942,1532985286456218613,base_link,0.0,0.0,0.0,0.0,-1.0,0.0,0.0,0.0,0.0,0.0,0.0,0.0,0.0,0.38,-0.396,-0.281,1.21846967915e-07,0.0,0.0,0.0,1.21846967915e-07,0.0,0.0,0.0,1.21846967915e-07,-1.2748645,-1.04931155,13.17033095,9e-08,0.0,0.0,0.0,9e-08,0.0,0.0,0.0,9e-08
1532985286539993737,9943,1532985286539611084,base_link,0.0,0.0,0.0,0.0,-1.0,0.0,0.0,0.0,0.0,0.0,0.0,0.0,0.0,0.28,-0.415,-0.189,1.21846967915e-07,0.0,0.0,0.0,1.21846967915e-07,0.0,0.0,0.0,1.21846967915e-07,-1.16699135,-0.6080123,13.5135637,9e-08,0.0,0.0,0.0,9e-08,0.0,0.0,0.0,9e-08
1532985286637908632,9944,1532985286636199301,base_link,0.0,0.0,0.0,0.0,-1.0,0.0,0.0,0.0,0.0,0.0,0.0,0.0,0.0,0.249,-0.448,-0.111,1.21846967915e-07,0.0,0.0,0.0,1.21846967915e-07,0.0,0.0,0.0,1.21846967915e-07,-1.0198916,0.1765197,14.0038962,9e-08,0.0,0.0,0.0,9e-08,0.0,0.0,0.0,9e-08
1532985286734598766,9945,1532985286734090077,base_link,0.0,0.0,0.0,0.0,-1.0,0.0,0.0,0.0,0.0,0.0,0.0,0.0,0.0,0.187,-0.47,-0.097,1.21846967915e-07,0.0,0.0,0.0,1.21846967915e-07,0.0,0.0,0.0,1.21846967915e-07,-1.08853815,-0.0784532,14.0823494,9e-08,0.0,0.0,0.0,9e-08,0.0,0.0,0.0,9e-08
1532985286836150393,9946,1532985286835195010,base_link,0.0,0.0,0.0,0.0,-1.0,0.0,0.0,0.0,0.0,0.0,0.0,0.0,0.0,0.121,-0.467,-0.139,1.21846967915e-07,0.0,0.0,0.0,1.21846967915e-07,0.0,0.0,0.0,1.21846967915e-07,-0.85317855,1.3533177,13.8862164,9e-08,0.0,0.0,0.0,9e-08,0.0,0.0,0.0,9e-08
1532985286961716057,9947,1532985286961154298,base_link,0.0,0.0,0.0,0.0,-1.0,0.0,0.0,0.0,0.0,0.0,0.0,0.0,0.0,-0.009,-0.452,-0.274,1.21846967915e-07,0.0,0.0,0.0,1.21846967915e-07,0.0,0.0,0.0,1.21846967915e-07,-0.63743225,1.4121576,13.6704701,9e-08,0.0,0.0,0.0,9e-08,0.0,0.0,0.0,9e-08
1532985287100761804,9948,1532985287099964764,base_link,0.0,0.0,0.0,0.0,-1.0,0.0,0.0,0.0,0.0,0.0,0.0,0.0,0.0,-0.209,-0.414,-0.383,1.21846967915e-07,0.0,0.0,0.0,1.21846967915e-07,0.0,0.0,0.0,1.21846967915e-07,-0.42168595,0.980665,13.2782041,9e-08,0.0,0.0,0.0,9e-08,0.0,0.0,0.0,9e-08
1532985287132896868,9949,1532985287131401697,base_link,0.0,0.0,0.0,0.0,-1.0,0.0,0.0,0.0,0.0,0.0,0.0,0.0,0.0,-0.28,-0.426,-0.41,1.21846967915e-07,0.0,0.0,0.0,1.21846967915e-07,0.0,0.0,0.0,1.21846967915e-07,-0.30400615,1.04931155,13.7096967,9e-08,0.0,0.0,0.0,9e-08,0.0,0.0,0.0,9e-08
1532985287230982479,9950,1532985287230540485,base_link,0.0,0.0,0.0,0.0,-1.0,0.0,0.0,0.0,0.0,0.0,0.0,0.0,0.0,-0.044,-0.404,-0.469,1.21846967915e-07,0.0,0.0,0.0,1.21846967915e-07,0.0,0.0,0.0,1.21846967915e-07,-0.36284605,0.53936575,13.0428445,9e-08,0.0,0.0,0.0,9e-08,0.0,0.0,0.0,9e-08
1532985287327617096,9951,1532985287324724706,base_link,0.0,0.0,0.0,0.0,-1.0,0.0,0.0,0.0,0.0,0.0,0.0,0.0,0.0,0.091,-0.423,-0.467,1.21846967915e-07,0.0,0.0,0.0,1.21846967915e-07,0.0,0.0,0.0,1.21846967915e-07,-0.30400615,0.83356525,13.5724036,9e-08,0.0,0.0,0.0,9e-08,0.0,0.0,0.0,9e-08
1532985287471863007,9952,1532985287470917505,base_link,0.0,0.0,0.0,0.0,-1.0,0.0,0.0,0.0,0.0,0.0,0.0,0.0,0.0,0.027,-0.473,-0.428,1.21846967915e-07,0.0,0.0,0.0,1.21846967915e-07,0.0,0.0,0.0,1.21846967915e-07,-0.392266,0.3726527,13.54298365,9e-08,0.0,0.0,0.0,9e-08,0.0,0.0,0.0,9e-08
1532985287572686980,9953,1532985287572226209,base_link,0.0,0.0,0.0,0.0,-1.0,0.0,0.0,0.0,0.0,0.0,0.0,0.0,0.0,0.05,-0.502,-0.404,1.21846967915e-07,0.0,0.0,0.0,1.21846967915e-07,0.0,0.0,0.0,1.21846967915e-07,-0.2745862,0.6668522,15.1414676,9e-08,0.0,0.0,0.0,9e-08,0.0,0.0,0.0,9e-08
1532985287636209619,9954,1532985287633927676,base_link,0.0,0.0,0.0,0.0,-1.0,0.0,0.0,0.0,0.0,0.0,0.0,0.0,0.0,0.015,-0.509,-0.381,1.21846967915e-07,0.0,0.0,0.0,1.21846967915e-07,0.0,0.0,0.0,1.21846967915e-07,-0.1176798,0.6080123,15.30818065,9e-08,0.0,0.0,0.0,9e-08,0.0,0.0,0.0,9e-08
1532985287732240378,9955,1532985287731226419,base_link,0.0,0.0,0.0,0.0,-1.0,0.0,0.0,0.0,0.0,0.0,0.0,0.0,0.0,0.033,-0.524,-0.35,1.21846967915e-07,0.0,0.0,0.0,1.21846967915e-07,0.0,0.0,0.0,1.21846967915e-07,0.16671305,0.26477955,16.60265845,9e-08,0.0,0.0,0.0,9e-08,0.0,0.0,0.0,9e-08
1532985287831880787,9956,1532985287830770349,base_link,0.0,0.0,0.0,0.0,-1.0,0.0,0.0,0.0,0.0,0.0,0.0,0.0,0.0,0.041,-0.521,-0.304,1.21846967915e-07,0.0,0.0,0.0,1.21846967915e-07,0.0,0.0,0.0,1.21846967915e-07,0.2353596,0.24516625,16.0436794,9e-08,0.0,0.0,0.0,9e-08,0.0,0.0,0.0,9e-08
1532985287973799427,9957,1532985287970961962,base_link,0.0,0.0,0.0,0.0,-1.0,0.0,0.0,0.0,0.0,0.0,0.0,0.0,0.0,-0.056,-0.55,-0.246,1.21846967915e-07,0.0,0.0,0.0,1.21846967915e-07,0.0,0.0,0.0,1.21846967915e-07,0.26477955,0.57859235,16.87724465,9e-08,0.0,0.0,0.0,9e-08,0.0,0.0,0.0,9e-08
1532985288033170400,9958,1532985288032671337,base_link,0.0,0.0,0.0,0.0,-1.0,0.0,0.0,0.0,0.0,0.0,0.0,0.0,0.0,-0.089,-0.526,-0.24,1.21846967915e-07,0.0,0.0,0.0,1.21846967915e-07,0.0,0.0,0.0,1.21846967915e-07,0.34323275,0.61781895,16.81840475,9e-08,0.0,0.0,0.0,9e-08,0.0,0.0,0.0,9e-08
1532985288145491004,9959,1532985288144872109,base_link,0.0,0.0,0.0,0.0,-1.0,0.0,0.0,0.0,0.0,0.0,0.0,0.0,0.0,0.013,-0.517,-0.255,1.21846967915e-07,0.0,0.0,0.0,1.21846967915e-07,0.0,0.0,0.0,1.21846967915e-07,0.26477955,0.7060788,16.1025193,9e-08,0.0,0.0,0.0,9e-08,0.0,0.0,0.0,9e-08
1532985288238469781,9960,1532985288237968734,base_link,0.0,0.0,0.0,0.0,-1.0,0.0,0.0,0.0,0.0,0.0,0.0,0.0,0.0,-0.024,-0.467,-0.274,1.21846967915e-07,0.0,0.0,0.0,1.21846967915e-07,0.0,0.0,0.0,1.21846967915e-07,0.1176798,0.8237586,14.87668805,9e-08,0.0,0.0,0.0,9e-08,0.0,0.0,0.0,9e-08
1532985288338415775,9961,1532985288337593332,base_link,0.0,0.0,0.0,0.0,-1.0,0.0,0.0,0.0,0.0,0.0,0.0,0.0,0.0,0.006,-0.434,-0.286,1.21846967915e-07,0.0,0.0,0.0,1.21846967915e-07,0.0,0.0,0.0,1.21846967915e-07,0.10787315,0.77472535,14.4746154,9e-08,0.0,0.0,0.0,9e-08,0.0,0.0,0.0,9e-08
1532985288433562172,9962,1532985288433017236,base_link,0.0,0.0,0.0,0.0,-1.0,0.0,0.0,0.0,0.0,0.0,0.0,0.0,0.0,-0.064,-0.416,-0.31,1.21846967915e-07,0.0,0.0,0.0,1.21846967915e-07,0.0,0.0,0.0,1.21846967915e-07,0.2549729,0.79433865,14.0823494,9e-08,0.0,0.0,0.0,9e-08,0.0,0.0,0.0,9e-08
1532985288579686188,9963,1532985288579042981,base_link,0.0,0.0,0.0,0.0,-1.0,0.0,0.0,0.0,0.0,0.0,0.0,0.0,0.0,-0.028,-0.423,-0.341,1.21846967915e-07,0.0,0.0,0.0,1.21846967915e-07,0.0,0.0,0.0,1.21846967915e-07,0.3138128,0.9022118,13.85679645,9e-08,0.0,0.0,0.0,9e-08,0.0,0.0,0.0,9e-08
1532985288684904195,9964,1532985288683483746,base_link,0.0,0.0,0.0,0.0,-1.0,0.0,0.0,0.0,0.0,0.0,0.0,0.0,0.0,-0.003,-0.389,-0.363,1.21846967915e-07,0.0,0.0,0.0,1.21846967915e-07,0.0,0.0,0.0,1.21846967915e-07,0.5099458,0.83356525,13.48414375,9e-08,0.0,0.0,0.0,9e-08,0.0,0.0,0.0,9e-08
1532985288731538990,9965,1532985288730334853,base_link,0.0,0.0,0.0,0.0,-1.0,0.0,0.0,0.0,0.0,0.0,0.0,0.0,0.0,0.0,-0.385,-0.367,1.21846967915e-07,0.0,0.0,0.0,1.21846967915e-07,0.0,0.0,0.0,1.21846967915e-07,0.4118793,0.9022118,13.4154972,9e-08,0.0,0.0,0.0,9e-08,0.0,0.0,0.0,9e-08
1532985288854846415,9966,1532985288851510773,base_link,0.0,0.0,0.0,0.0,-1.0,0.0,0.0,0.0,0.0,0.0,0.0,0.0,0.0,-0.152,-0.404,-0.388,1.21846967915e-07,0.0,0.0,0.0,1.21846967915e-07,0.0,0.0,0.0,1.21846967915e-07,0.6080123,0.77472535,13.79795655,9e-08,0.0,0.0,0.0,9e-08,0.0,0.0,0.0,9e-08
1532985288971947070,9967,1532985288970901823,base_link,0.0,0.0,0.0,0.0,-1.0,0.0,0.0,0.0,0.0,0.0,0.0,0.0,0.0,-0.136,-0.389,-0.385,1.21846967915e-07,0.0,0.0,0.0,1.21846967915e-07,0.0,0.0,0.0,1.21846967915e-07,0.71588545,0.6472389,13.89602305,9e-08,0.0,0.0,0.0,9e-08,0.0,0.0,0.0,9e-08
1532985289039209207,9968,1532985289038820729,base_link,0.0,0.0,0.0,0.0,-1.0,0.0,0.0,0.0,0.0,0.0,0.0,0.0,0.0,-0.03,-0.392,-0.374,1.21846967915e-07,0.0,0.0,0.0,1.21846967915e-07,0.0,0.0,0.0,1.21846967915e-07,0.89240515,0.4903325,14.28828905,9e-08,0.0,0.0,0.0,9e-08,0.0,0.0,0.0,9e-08
1532985289134792010,9969,1532985289134200303,base_link,0.0,0.0,0.0,0.0,-1.0,0.0,0.0,0.0,0.0,0.0,0.0,0.0,0.0,0.081,-0.408,-0.323,1.21846967915e-07,0.0,0.0,0.0,1.21846967915e-07,0.0,0.0,0.0,1.21846967915e-07,1.30428445,0.36284605,14.50403535,9e-08,0.0,0.0,0.0,9e-08,0.0,0.0,0.0,9e-08
1532985289261320222,9970,1532985289260442819,base_link,0.0,0.0,0.0,0.0,-1.0,0.0,0.0,0.0,0.0,0.0,0.0,0.0,0.0,0.036,-0.386,-0.295,1.21846967915e-07,0.0,0.0,0.0,1.21846967915e-07,0.0,0.0,0.0,1.21846967915e-07,1.01008495,0.9218251,13.7096967,9e-08,0.0,0.0,0.0,9e-08,0.0,0.0,0.0,9e-08
1532985289322016274,9971,1532985289321622774,base_link,0.0,0.0,0.0,0.0,-1.0,0.0,0.0,0.0,0.0,0.0,0.0,0.0,0.0,0.02,-0.414,-0.29,1.21846967915e-07,0.0,0.0,0.0,1.21846967915e-07,0.0,0.0,0.0,1.21846967915e-07,1.30428445,0.34323275,14.13138265,9e-08,0.0,0.0,0.0,9e-08,0.0,0.0,0.0,9e-08
1532985289435173848,9972,1532985289434251308,base_link,0.0,0.0,0.0,0.0,-1.0,0.0,0.0,0.0,0.0,0.0,0.0,0.0,0.0,0.137,-0.41,-0.275,1.21846967915e-07,0.0,0.0,0.0,1.21846967915e-07,0.0,0.0,0.0,1.21846967915e-07,1.28467115,0.83356525,14.50403535,9e-08,0.0,0.0,0.0,9e-08,0.0,0.0,0.0,9e-08
1532985289539072977,9973,1532985289536594125,base_link,0.0,0.0,0.0,0.0,-1.0,0.0,0.0,0.0,0.0,0.0,0.0,0.0,0.0,0.06,-0.42,-0.284,1.21846967915e-07,0.0,0.0,0.0,1.21846967915e-07,0.0,0.0,0.0,1.21846967915e-07,1.6475172,0.7649187,14.7884282,9e-08,0.0,0.0,0.0,9e-08,0.0,0.0,0.0,9e-08
1532985289667791722,9974,1532985289666304539,base_link,0.0,0.0,0.0,0.0,-1.0,0.0,0.0,0.0,0.0,0.0,0.0,0.0,0.0,-0.054,-0.387,-0.31,1.21846967915e-07,0.0,0.0,0.0,1.21846967915e-07,0.0,0.0,0.0,1.21846967915e-07,1.50041745,0.83356525,14.513842,9e-08,0.0,0.0,0.0,9e-08,0.0,0.0,0.0,9e-08
1532985289732636053,9975,1532985289726499350,base_link,0.0,0.0,0.0,0.0,-1.0,0.0,0.0,0.0,0.0,0.0,0.0,0.0,0.0,-0.05,-0.387,-0.329,1.21846967915e-07,0.0,0.0,0.0,1.21846967915e-07,0.0,0.0,0.0,1.21846967915e-07,1.2748645,0.95124505,14.4353888,9e-08,0.0,0.0,0.0,9e-08,0.0,0.0,0.0,9e-08
1532985289830432516,9976,1532985289829872735,base_link,0.0,0.0,0.0,0.0,-1.0,0.0,0.0,0.0,0.0,0.0,0.0,0.0,0.0,0.038,-0.399,-0.353,1.21846967915e-07,0.0,0.0,0.0,1.21846967915e-07,0.0,0.0,0.0,1.21846967915e-07,1.46119085,0.97085835,14.66094175,9e-08,0.0,0.0,0.0,9e-08,0.0,0.0,0.0,9e-08
1532985289944666754,9977,1532985289943160953,base_link,0.0,0.0,0.0,0.0,-1.0,0.0,0.0,0.0,0.0,0.0,0.0,0.0,0.0,-0.035,-0.372,-0.386,1.21846967915e-07,0.0,0.0,0.0,1.21846967915e-07,0.0,0.0,0.0,1.21846967915e-07,1.30428445,1.372931,13.0232312,9e-08,0.0,0.0,0.0,9e-08,0.0,0.0,0.0,9e-08
1532985290042161596,9978,1532985290041411860,base_link,0.0,0.0,0.0,0.0,-1.0,0.0,0.0,0.0,0.0,0.0,0.0,0.0,0.0,-0.239,-0.347,-0.441,1.21846967915e-07,0.0,0.0,0.0,1.21846967915e-07,0.0,0.0,0.0,1.21846967915e-07,1.0787315,1.46119085,13.50375705,9e-08,0.0,0.0,0.0,9e-08,0.0,0.0,0.0,9e-08
1532985290132006684,9979,1532985290131004424,base_link,0.0,0.0,0.0,0.0,-1.0,0.0,0.0,0.0,0.0,0.0,0.0,0.0,0.0,-0.361,-0.342,-0.454,1.21846967915e-07,0.0,0.0,0.0,1.21846967915e-07,0.0,0.0,0.0,1.21846967915e-07,1.0787315,0.7649187,14.2196425,9e-08,0.0,0.0,0.0,9e-08,0.0,0.0,0.0,9e-08
1532985290257636425,9980,1532985290256864904,base_link,0.0,0.0,0.0,0.0,-1.0,0.0,0.0,0.0,0.0,0.0,0.0,0.0,0.0,-0.349,-0.372,-0.418,1.21846967915e-07,0.0,0.0,0.0,1.21846967915e-07,0.0,0.0,0.0,1.21846967915e-07,1.01008495,0.588399,14.6511351,9e-08,0.0,0.0,0.0,9e-08,0.0,0.0,0.0,9e-08
1532985290349814150,9981,1532985290349401070,base_link,0.0,0.0,0.0,0.0,-1.0,0.0,0.0,0.0,0.0,0.0,0.0,0.0,0.0,-0.303,-0.387,-0.379,1.21846967915e-07,0.0,0.0,0.0,1.21846967915e-07,0.0,0.0,0.0,1.21846967915e-07,1.0002783,0.4707192,14.317709,9e-08,0.0,0.0,0.0,9e-08,0.0,0.0,0.0,9e-08
1532985290436938281,9982,1532985290436465381,base_link,0.0,0.0,0.0,0.0,-1.0,0.0,0.0,0.0,0.0,0.0,0.0,0.0,0.0,-0.353,-0.391,-0.356,1.21846967915e-07,0.0,0.0,0.0,1.21846967915e-07,0.0,0.0,0.0,1.21846967915e-07,0.5295591,0.46091255,14.73939495,9e-08,0.0,0.0,0.0,9e-08,0.0,0.0,0.0,9e-08
1532985290539757033,9983,1532985290539276232,base_link,0.0,0.0,0.0,0.0,-1.0,0.0,0.0,0.0,0.0,0.0,0.0,0.0,0.0,-0.431,-0.342,-0.308,1.21846967915e-07,0.0,0.0,0.0,1.21846967915e-07,0.0,0.0,0.0,1.21846967915e-07,0.57859235,0.3334261,14.2000292,9e-08,0.0,0.0,0.0,9e-08,0.0,0.0,0.0,9e-08
1532985290637877498,9984,1532985290637235790,base_link,0.0,0.0,0.0,0.0,-1.0,0.0,0.0,0.0,0.0,0.0,0.0,0.0,0.0,-0.491,-0.304,-0.256,1.21846967915e-07,0.0,0.0,0.0,1.21846967915e-07,0.0,0.0,0.0,1.21846967915e-07,0.20593965,0.57859235,13.0036179,9e-08,0.0,0.0,0.0,9e-08,0.0,0.0,0.0,9e-08
1532985290742873002,9985,1532985290741692529,base_link,0.0,0.0,0.0,0.0,-1.0,0.0,0.0,0.0,0.0,0.0,0.0,0.0,0.0,-0.596,-0.258,-0.231,1.21846967915e-07,0.0,0.0,0.0,1.21846967915e-07,0.0,0.0,0.0,1.21846967915e-07,0.00980665,0.67665885,12.3759923,9e-08,0.0,0.0,0.0,9e-08,0.0,0.0,0.0,9e-08
1532985290836226819,9986,1532985290835143049,base_link,0.0,0.0,0.0,0.0,-1.0,0.0,0.0,0.0,0.0,0.0,0.0,0.0,0.0,-0.759,-0.226,-0.205,1.21846967915e-07,0.0,0.0,0.0,1.21846967915e-07,0.0,0.0,0.0,1.21846967915e-07,0.2941995,0.48052585,13.34685065,9e-08,0.0,0.0,0.0,9e-08,0.0,0.0,0.0,9e-08
1532985290937287496,9987,1532985290935747877,base_link,0.0,0.0,0.0,0.0,-1.0,0.0,0.0,0.0,0.0,0.0,0.0,0.0,0.0,-0.714,-0.179,-0.196,1.21846967915e-07,0.0,0.0,0.0,1.21846967915e-07,0.0,0.0,0.0,1.21846967915e-07,0.3530394,0.26477955,12.6113519,9e-08,0.0,0.0,0.0,9e-08,0.0,0.0,0.0,9e-08
1532985291043421801,9988,1532985291041093443,base_link,0.0,0.0,0.0,0.0,-1.0,0.0,0.0,0.0,0.0,0.0,0.0,0.0,0.0,-0.663,-0.152,-0.169,1.21846967915e-07,0.0,0.0,0.0,1.21846967915e-07,0.0,0.0,0.0,1.21846967915e-07,-0.00980665,0.53936575,12.20927925,9e-08,0.0,0.0,0.0,9e-08,0.0,0.0,0.0,9e-08
1532985291145783130,9989,1532985291145354246,base_link,0.0,0.0,0.0,0.0,-1.0,0.0,0.0,0.0,0.0,0.0,0.0,0.0,0.0,-0.661,-0.085,-0.159,1.21846967915e-07,0.0,0.0,0.0,1.21846967915e-07,0.0,0.0,0.0,1.21846967915e-07,0.02941995,0.30400615,10.07142955,9e-08,0.0,0.0,0.0,9e-08,0.0,0.0,0.0,9e-08
1532985291228431452,9990,1532985291227957463,base_link,0.0,0.0,0.0,0.0,-1.0,0.0,0.0,0.0,0.0,0.0,0.0,0.0,0.0,-0.604,-0.035,-0.157,1.21846967915e-07,0.0,0.0,0.0,1.21846967915e-07,0.0,0.0,0.0,1.21846967915e-07,0.06864655,0.3138128,9.8654899,9e-08,0.0,0.0,0.0,9e-08,0.0,0.0,0.0,9e-08
1532985291329281435,9991,1532985291326160408,base_link,0.0,0.0,0.0,0.0,-1.0,0.0,0.0,0.0,0.0,0.0,0.0,0.0,0.0,-0.544,-0.031,-0.148,1.21846967915e-07,0.0,0.0,0.0,1.21846967915e-07,0.0,0.0,0.0,1.21846967915e-07,0.2941995,0.196133,10.4931155,9e-08,0.0,0.0,0.0,9e-08,0.0,0.0,0.0,9e-08
1532985291448257873,9992,1532985291442023080,base_link,0.0,0.0,0.0,0.0,-1.0,0.0,0.0,0.0,0.0,0.0,0.0,0.0,0.0,-0.556,0.029,-0.119,1.21846967915e-07,0.0,0.0,0.0,1.21846967915e-07,0.0,0.0,0.0,1.21846967915e-07,0.4511059,-0.02941995,9.54187045,9e-08,0.0,0.0,0.0,9e-08,0.0,0.0,0.0,9e-08
1532985291542195301,9993,1532985291541739866,base_link,0.0,0.0,0.0,0.0,-1.0,0.0,0.0,0.0,0.0,0.0,0.0,0.0,0.0,-0.555,0.01,-0.068,1.21846967915e-07,0.0,0.0,0.0,1.21846967915e-07,0.0,0.0,0.0,1.21846967915e-07,0.53936575,-0.04903325,9.5712904,9e-08,0.0,0.0,0.0,9e-08,0.0,0.0,0.0,9e-08
1532985291630911846,9994,1532985291629765533,base_link,0.0,0.0,0.0,0.0,-1.0,0.0,0.0,0.0,0.0,0.0,0.0,0.0,0.0,-0.467,0.05,-0.017,1.21846967915e-07,0.0,0.0,0.0,1.21846967915e-07,0.0,0.0,0.0,1.21846967915e-07,0.99047165,-0.18632635,9.54187045,9e-08,0.0,0.0,0.0,9e-08,0.0,0.0,0.0,9e-08
1532985291737381399,9995,1532985291736963488,base_link,0.0,0.0,0.0,0.0,-1.0,0.0,0.0,0.0,0.0,0.0,0.0,0.0,0.0,-0.496,0.047,0.03,1.21846967915e-07,0.0,0.0,0.0,1.21846967915e-07,0.0,0.0,0.0,1.21846967915e-07,1.1375714,-0.30400615,9.80665,9e-08,0.0,0.0,0.0,9e-08,0.0,0.0,0.0,9e-08
1532985291847836304,9996,1532985291846398726,base_link,0.0,0.0,0.0,0.0,-1.0,0.0,0.0,0.0,0.0,0.0,0.0,0.0,0.0,-0.44,0.064,0.095,1.21846967915e-07,0.0,0.0,0.0,1.21846967915e-07,0.0,0.0,0.0,1.21846967915e-07,1.04931155,0.08825985,9.5909037,9e-08,0.0,0.0,0.0,9e-08,0.0,0.0,0.0,9e-08
1532985291948400461,9997,1532985291948057021,base_link,0.0,0.0,0.0,0.0,-1.0,0.0,0.0,0.0,0.0,0.0,0.0,0.0,0.0,-0.319,0.064,0.116,1.21846967915e-07,0.0,0.0,0.0,1.21846967915e-07,0.0,0.0,0.0,1.21846967915e-07,1.30428445,1.14812565014e-15,9.3751574,9e-08,0.0,0.0,0.0,9e-08,0.0,0.0,0.0,9e-08
1532985292032027984,9998,1532985292031644045,base_link,0.0,0.0,0.0,0.0,-1.0,0.0,0.0,0.0,0.0,0.0,0.0,0.0,0.0,-0.424,0.093,0.112,1.21846967915e-07,0.0,0.0,0.0,1.21846967915e-07,0.0,0.0,0.0,1.21846967915e-07,1.22583125,-0.18632635,7.4922806,9e-08,0.0,0.0,0.0,9e-08,0.0,0.0,0.0,9e-08
1532985292137435198,9999,1532985292125815025,base_link,0.0,0.0,0.0,0.0,-1.0,0.0,0.0,0.0,0.0,0.0,0.0,0.0,0.0,-0.417,0.105,0.13,1.21846967915e-07,0.0,0.0,0.0,1.21846967915e-07,0.0,0.0,0.0,1.21846967915e-07,1.01008495,0.32361945,7.30595425,9e-08,0.0,0.0,0.0,9e-08,0.0,0.0,0.0,9e-08
1532985292239385611,10000,1532985292237869590,base_link,0.0,0.0,0.0,0.0,-1.0,0.0,0.0,0.0,0.0,0.0,0.0,0.0,0.0,-0.294,0.092,0.123,1.21846967915e-07,0.0,0.0,0.0,1.21846967915e-07,0.0,0.0,0.0,1.21846967915e-07,1.44157755,-0.06864655,8.2571993,9e-08,0.0,0.0,0.0,9e-08,0.0,0.0,0.0,9e-08
1532985292368351341,10001,1532985292367752239,base_link,0.0,0.0,0.0,0.0,-1.0,0.0,0.0,0.0,0.0,0.0,0.0,0.0,0.0,-0.295,0.079,0.133,1.21846967915e-07,0.0,0.0,0.0,1.21846967915e-07,0.0,0.0,0.0,1.21846967915e-07,1.4513842,0.02941995,8.36507245,9e-08,0.0,0.0,0.0,9e-08,0.0,0.0,0.0,9e-08
1532985292448111019,10002,1532985292446924075,base_link,0.0,0.0,0.0,0.0,-1.0,0.0,0.0,0.0,0.0,0.0,0.0,0.0,0.0,-0.229,0.085,0.138,1.21846967915e-07,0.0,0.0,0.0,1.21846967915e-07,0.0,0.0,0.0,1.21846967915e-07,1.57887065,-0.0784532,7.52170055,9e-08,0.0,0.0,0.0,9e-08,0.0,0.0,0.0,9e-08
1532985292526936823,10003,1532985292525161334,base_link,0.0,0.0,0.0,0.0,-1.0,0.0,0.0,0.0,0.0,0.0,0.0,0.0,0.0,-0.101,0.067,0.143,1.21846967915e-07,0.0,0.0,0.0,1.21846967915e-07,0.0,0.0,0.0,1.21846967915e-07,1.63771055,-0.12748645,7.7864801,9e-08,0.0,0.0,0.0,9e-08,0.0,0.0,0.0,9e-08
1532985292635893736,10004,1532985292635339227,base_link,0.0,0.0,0.0,0.0,-1.0,0.0,0.0,0.0,0.0,0.0,0.0,0.0,0.0,0.032,0.061,0.147,1.21846967915e-07,0.0,0.0,0.0,1.21846967915e-07,0.0,0.0,0.0,1.21846967915e-07,1.81423025,0.04903325,7.0215614,9e-08,0.0,0.0,0.0,9e-08,0.0,0.0,0.0,9e-08
1532985292719152761,10005,1532985292717836867,base_link,0.0,0.0,0.0,0.0,-1.0,0.0,0.0,0.0,0.0,0.0,0.0,0.0,0.0,0.11,0.055,0.144,1.21846967915e-07,0.0,0.0,0.0,1.21846967915e-07,0.0,0.0,0.0,1.21846967915e-07,1.67693715,0.5099458,6.6881353,9e-08,0.0,0.0,0.0,9e-08,0.0,0.0,0.0,9e-08
1532985292817418095,10006,1532985292816845224,base_link,0.0,0.0,0.0,0.0,-1.0,0.0,0.0,0.0,0.0,0.0,0.0,0.0,0.0,0.045,0.039,0.085,1.21846967915e-07,0.0,0.0,0.0,1.21846967915e-07,0.0,0.0,0.0,1.21846967915e-07,1.40235095,0.69627215,7.60015375,9e-08,0.0,0.0,0.0,9e-08,0.0,0.0,0.0,9e-08
1532985292951289628,10007,1532985292948544597,base_link,0.0,0.0,0.0,0.0,-1.0,0.0,0.0,0.0,0.0,0.0,0.0,0.0,0.0,-0.102,-0.042,0.064,1.21846967915e-07,0.0,0.0,0.0,1.21846967915e-07,0.0,0.0,0.0,1.21846967915e-07,1.4513842,0.5295591,10.62060195,9e-08,0.0,0.0,0.0,9e-08,0.0,0.0,0.0,9e-08
1532985293044982534,10008,1532985293044482118,base_link,0.0,0.0,0.0,0.0,-1.0,0.0,0.0,0.0,0.0,0.0,0.0,0.0,0.0,-0.218,-0.034,0.067,1.21846967915e-07,0.0,0.0,0.0,1.21846967915e-07,0.0,0.0,0.0,1.21846967915e-07,1.75539035,-0.12748645,9.63993695,9e-08,0.0,0.0,0.0,9e-08,0.0,0.0,0.0,9e-08
1532985293148774264,10009,1532985293148344642,base_link,0.0,0.0,0.0,0.0,-1.0,0.0,0.0,0.0,0.0,0.0,0.0,0.0,0.0,-0.1,-0.037,0.089,1.21846967915e-07,0.0,0.0,0.0,1.21846967915e-07,0.0,0.0,0.0,1.21846967915e-07,1.38273765,1.15893436442e-15,9.46341725,9e-08,0.0,0.0,0.0,9e-08,0.0,0.0,0.0,9e-08
1532985293250539699,10010,1532985293249481798,base_link,0.0,0.0,0.0,0.0,-1.0,0.0,0.0,0.0,0.0,0.0,0.0,0.0,0.0,-0.053,-0.11,0.153,1.21846967915e-07,0.0,0.0,0.0,1.21846967915e-07,0.0,0.0,0.0,1.21846967915e-07,1.3533177,-0.2353596,9.5516771,9e-08,0.0,0.0,0.0,9e-08,0.0,0.0,0.0,9e-08
1532985293329819701,10011,1532985293329357065,base_link,0.0,0.0,0.0,0.0,-1.0,0.0,0.0,0.0,0.0,0.0,0.0,0.0,0.0,-0.011,-0.174,0.157,1.21846967915e-07,0.0,0.0,0.0,1.21846967915e-07,0.0,0.0,0.0,1.21846967915e-07,1.4317709,-0.3334261,10.8657682,9e-08,0.0,0.0,0.0,9e-08,0.0,0.0,0.0,9e-08
1532985293461318968,10012,1532985293460405117,base_link,0.0,0.0,0.0,0.0,-1.0,0.0,0.0,0.0,0.0,0.0,0.0,0.0,0.0,0.025,-0.157,0.192,1.21846967915e-07,0.0,0.0,0.0,1.21846967915e-07,0.0,0.0,0.0,1.21846967915e-07,1.3140911,-0.1569064,10.787315,9e-08,0.0,0.0,0.0,9e-08,0.0,0.0,0.0,9e-08
1532985293534569829,10013,1532985293532062761,base_link,0.0,0.0,0.0,0.0,-1.0,0.0,0.0,0.0,0.0,0.0,0.0,0.0,0.0,0.063,-0.166,0.177,1.21846967915e-07,0.0,0.0,0.0,1.21846967915e-07,0.0,0.0,0.0,1.21846967915e-07,1.372931,-0.10787315,11.2384209,9e-08,0.0,0.0,0.0,9e-08,0.0,0.0,0.0,9e-08
1532985293640691309,10014,1532985293640213638,base_link,0.0,0.0,0.0,0.0,-1.0,0.0,0.0,0.0,0.0,0.0,0.0,0.0,0.0,0.07,-0.176,0.172,1.21846967915e-07,0.0,0.0,0.0,1.21846967915e-07,0.0,0.0,0.0,1.21846967915e-07,1.01008495,-0.1569064,12.38579895,9e-08,0.0,0.0,0.0,9e-08,0.0,0.0,0.0,9e-08
1532985293767139267,10015,1532985293765752799,base_link,0.0,0.0,0.0,0.0,-1.0,0.0,0.0,0.0,0.0,0.0,0.0,0.0,0.0,0.085,-0.178,0.196,1.21846967915e-07,0.0,0.0,0.0,1.21846967915e-07,0.0,0.0,0.0,1.21846967915e-07,0.81395195,0.0588399,11.79739995,9e-08,0.0,0.0,0.0,9e-08,0.0,0.0,0.0,9e-08
1532985293853998663,10016,1532985293851220417,base_link,0.0,0.0,0.0,0.0,-1.0,0.0,0.0,0.0,0.0,0.0,0.0,0.0,0.0,0.123,-0.187,0.195,1.21846967915e-07,0.0,0.0,0.0,1.21846967915e-07,0.0,0.0,0.0,1.21846967915e-07,1.0395049,-0.3530394,12.2190859,9e-08,0.0,0.0,0.0,9e-08,0.0,0.0,0.0,9e-08
1532985293957178717,10017,1532985293956359332,base_link,0.0,0.0,0.0,0.0,-1.0,0.0,0.0,0.0,0.0,0.0,0.0,0.0,0.0,0.225,-0.19,0.207,1.21846967915e-07,0.0,0.0,0.0,1.21846967915e-07,0.0,0.0,0.0,1.21846967915e-07,0.73549875,-0.1176798,12.944778,9e-08,0.0,0.0,0.0,9e-08,0.0,0.0,0.0,9e-08
1532985294035961003,10018,1532985294035308250,base_link,0.0,0.0,0.0,0.0,-1.0,0.0,0.0,0.0,0.0,0.0,0.0,0.0,0.0,0.494,-0.184,0.2,1.21846967915e-07,0.0,0.0,0.0,1.21846967915e-07,0.0,0.0,0.0,1.21846967915e-07,0.8629852,-0.20593965,12.62115855,9e-08,0.0,0.0,0.0,9e-08,0.0,0.0,0.0,9e-08
1532985294193516151,10019,1532985294193072996,base_link,0.0,0.0,0.0,0.0,-1.0,0.0,0.0,0.0,0.0,0.0,0.0,0.0,0.0,0.698,-0.204,0.164,1.21846967915e-07,0.0,0.0,0.0,1.21846967915e-07,0.0,0.0,0.0,1.21846967915e-07,0.8041453,-0.02941995,13.73911665,9e-08,0.0,0.0,0.0,9e-08,0.0,0.0,0.0,9e-08
1532985294244429731,10020,1532985294243887951,base_link,0.0,0.0,0.0,0.0,-1.0,0.0,0.0,0.0,0.0,0.0,0.0,0.0,0.0,0.682,-0.133,0.156,1.21846967915e-07,0.0,0.0,0.0,1.21846967915e-07,0.0,0.0,0.0,1.21846967915e-07,0.5295591,0.40207265,12.28773245,9e-08,0.0,0.0,0.0,9e-08,0.0,0.0,0.0,9e-08
1532985294329066535,10021,1532985294328391613,base_link,0.0,0.0,0.0,0.0,-1.0,0.0,0.0,0.0,0.0,0.0,0.0,0.0,0.0,0.58,-0.103,0.118,1.21846967915e-07,0.0,0.0,0.0,1.21846967915e-07,0.0,0.0,0.0,1.21846967915e-07,0.59820565,0.40207265,11.85623985,9e-08,0.0,0.0,0.0,9e-08,0.0,0.0,0.0,9e-08
1532985294432418075,10022,1532985294431730262,base_link,0.0,0.0,0.0,0.0,-1.0,0.0,0.0,0.0,0.0,0.0,0.0,0.0,0.0,0.448,-0.089,0.063,1.21846967915e-07,0.0,0.0,0.0,1.21846967915e-07,0.0,0.0,0.0,1.21846967915e-07,0.59820565,0.20593965,11.40513395,9e-08,0.0,0.0,0.0,9e-08,0.0,0.0,0.0,9e-08
1532985294531083326,10023,1532985294530564866,base_link,0.0,0.0,0.0,0.0,-1.0,0.0,0.0,0.0,0.0,0.0,0.0,0.0,0.0,0.477,-0.037,0.04,1.21846967915e-07,0.0,0.0,0.0,1.21846967915e-07,0.0,0.0,0.0,1.21846967915e-07,0.61781895,0.12748645,9.87529655,9e-08,0.0,0.0,0.0,9e-08,0.0,0.0,0.0,9e-08
1532985294629463259,10024,1532985294628790033,base_link,0.0,0.0,0.0,0.0,-1.0,0.0,0.0,0.0,0.0,0.0,0.0,0.0,0.0,0.458,-0.015,-0.009,1.21846967915e-07,0.0,0.0,0.0,1.21846967915e-07,0.0,0.0,0.0,1.21846967915e-07,0.73549875,0.44129925,9.6693569,9e-08,0.0,0.0,0.0,9e-08,0.0,0.0,0.0,9e-08
1532985294740570419,10025,1532985294736914715,base_link,0.0,0.0,0.0,0.0,-1.0,0.0,0.0,0.0,0.0,0.0,0.0,0.0,0.0,0.509,-0.006,-0.101,1.21846967915e-07,0.0,0.0,0.0,1.21846967915e-07,0.0,0.0,0.0,1.21846967915e-07,0.3726527,0.4118793,9.58109705,9e-08,0.0,0.0,0.0,9e-08,0.0,0.0,0.0,9e-08
1532985294839321403,10026,1532985294838501759,base_link,0.0,0.0,0.0,0.0,-1.0,0.0,0.0,0.0,0.0,0.0,0.0,0.0,0.0,0.451,-0.003,-0.142,1.21846967915e-07,0.0,0.0,0.0,1.21846967915e-07,0.0,0.0,0.0,1.21846967915e-07,0.7060788,0.0980665,9.77723005,9e-08,0.0,0.0,0.0,9e-08,0.0,0.0,0.0,9e-08
1532985294955751835,10027,1532985294953365712,base_link,0.0,0.0,0.0,0.0,-1.0,0.0,0.0,0.0,0.0,0.0,0.0,0.0,0.0,0.497,0.032,-0.136,1.21846967915e-07,0.0,0.0,0.0,1.21846967915e-07,0.0,0.0,0.0,1.21846967915e-07,0.784532,0.0980665,9.28689755,9e-08,0.0,0.0,0.0,9e-08,0.0,0.0,0.0,9e-08
1532985295038924613,10028,1532985295038271698,base_link,0.0,0.0,0.0,0.0,-1.0,0.0,0.0,0.0,0.0,0.0,0.0,0.0,0.0,0.57,0.033,-0.139,1.21846967915e-07,0.0,0.0,0.0,1.21846967915e-07,0.0,0.0,0.0,1.21846967915e-07,0.87279185,-0.0784532,8.87501825,9e-08,0.0,0.0,0.0,9e-08,0.0,0.0,0.0,9e-08
1532985295126388294,10029,1532985295125985221,base_link,0.0,0.0,0.0,0.0,-1.0,0.0,0.0,0.0,0.0,0.0,0.0,0.0,0.0,0.544,0.051,-0.103,1.21846967915e-07,0.0,0.0,0.0,1.21846967915e-07,0.0,0.0,0.0,1.21846967915e-07,0.6864655,0.32361945,7.79628675,9e-08,0.0,0.0,0.0,9e-08,0.0,0.0,0.0,9e-08
1532985295226738267,10030,1532985295226179658,base_link,0.0,0.0,0.0,0.0,-1.0,0.0,0.0,0.0,0.0,0.0,0.0,0.0,0.0,0.646,0.012,-0.137,1.21846967915e-07,0.0,0.0,0.0,1.21846967915e-07,0.0,0.0,0.0,1.21846967915e-07,0.73549875,0.0196133,8.9632781,9e-08,0.0,0.0,0.0,9e-08,0.0,0.0,0.0,9e-08
1532985295346981451,10031,1532985295344773248,base_link,0.0,0.0,0.0,0.0,-1.0,0.0,0.0,0.0,0.0,0.0,0.0,0.0,0.0,0.496,-1.50631556295e-17,-0.123,1.21846967915e-07,0.0,0.0,0.0,1.21846967915e-07,0.0,0.0,0.0,1.21846967915e-07,0.8237586,0.3726527,8.825985,9e-08,0.0,0.0,0.0,9e-08,0.0,0.0,0.0,9e-08
1532985295449386779,10032,1532985295447899790,base_link,0.0,0.0,0.0,0.0,-1.0,0.0,0.0,0.0,0.0,0.0,0.0,0.0,0.0,0.204,-0.016,-0.096,1.21846967915e-07,0.0,0.0,0.0,1.21846967915e-07,0.0,0.0,0.0,1.21846967915e-07,1.0591182,0.59820565,8.433719,9e-08,0.0,0.0,0.0,9e-08,0.0,0.0,0.0,9e-08
1532985295530076139,10033,1532985295526772504,base_link,0.0,0.0,0.0,0.0,-1.0,0.0,0.0,0.0,0.0,0.0,0.0,0.0,0.0,0.269,-0.028,-0.133,1.21846967915e-07,0.0,0.0,0.0,1.21846967915e-07,0.0,0.0,0.0,1.21846967915e-07,1.24544455,0.50013915,9.218251,9e-08,0.0,0.0,0.0,9e-08,0.0,0.0,0.0,9e-08
1532985295650182470,10034,1532985295649491583,base_link,0.0,0.0,0.0,0.0,-1.0,0.0,0.0,0.0,0.0,0.0,0.0,0.0,0.0,0.184,-0.035,-0.143,1.21846967915e-07,0.0,0.0,0.0,1.21846967915e-07,0.0,0.0,0.0,1.21846967915e-07,1.22583125,0.8433719,9.26728425,9e-08,0.0,0.0,0.0,9e-08,0.0,0.0,0.0,9e-08
1532985295738095227,10035,1532985295737462721,base_link,0.0,0.0,0.0,0.0,-1.0,0.0,0.0,0.0,0.0,0.0,0.0,0.0,0.0,0.249,-0.047,-0.197,1.21846967915e-07,0.0,0.0,0.0,1.21846967915e-07,0.0,0.0,0.0,1.21846967915e-07,1.2356379,0.67665885,9.218251,9e-08,0.0,0.0,0.0,9e-08,0.0,0.0,0.0,9e-08
1532985295855800936,10036,1532985295855307395,base_link,0.0,0.0,0.0,0.0,-1.0,0.0,0.0,0.0,0.0,0.0,0.0,0.0,0.0,0.242,-0.075,-0.229,1.21846967915e-07,0.0,0.0,0.0,1.21846967915e-07,0.0,0.0,0.0,1.21846967915e-07,1.3533177,0.4314926,9.03192465,9e-08,0.0,0.0,0.0,9e-08,0.0,0.0,0.0,9e-08
1532985295926501943,10037,1532985295926040936,base_link,0.0,0.0,0.0,0.0,-1.0,0.0,0.0,0.0,0.0,0.0,0.0,0.0,0.0,0.233,-0.095,-0.266,1.21846967915e-07,0.0,0.0,0.0,1.21846967915e-07,0.0,0.0,0.0,1.21846967915e-07,1.30428445,0.1765197,8.54159215,9e-08,0.0,0.0,0.0,9e-08,0.0,0.0,0.0,9e-08
1532985296075577196,10038,1532985296074871911,base_link,0.0,0.0,0.0,0.0,-1.0,0.0,0.0,0.0,0.0,0.0,0.0,0.0,0.0,0.071,-0.183,-0.247,1.21846967915e-07,0.0,0.0,0.0,1.21846967915e-07,0.0,0.0,0.0,1.21846967915e-07,1.2552512,0.5687857,11.18938765,9e-08,0.0,0.0,0.0,9e-08,0.0,0.0,0.0,9e-08
1532985296133448946,10039,1532985296132555496,base_link,0.0,0.0,0.0,0.0,-1.0,0.0,0.0,0.0,0.0,0.0,0.0,0.0,0.0,-0.021,-0.197,-0.239,1.21846967915e-07,0.0,0.0,0.0,1.21846967915e-07,0.0,0.0,0.0,1.21846967915e-07,1.52003075,0.3530394,11.4737805,9e-08,0.0,0.0,0.0,9e-08,0.0,0.0,0.0,9e-08
1532985296250833697,10040,1532985296250405542,base_link,0.0,0.0,0.0,0.0,-1.0,0.0,0.0,0.0,0.0,0.0,0.0,0.0,0.0,0.112,-0.177,-0.254,1.21846967915e-07,0.0,0.0,0.0,1.21846967915e-07,0.0,0.0,0.0,1.21846967915e-07,1.4121576,0.6080123,10.6892485,9e-08,0.0,0.0,0.0,9e-08,0.0,0.0,0.0,9e-08
1532985296334475810,10041,1532985296332952411,base_link,0.0,0.0,0.0,0.0,-1.0,0.0,0.0,0.0,0.0,0.0,0.0,0.0,0.0,0.131,-0.214,-0.249,1.21846967915e-07,0.0,0.0,0.0,1.21846967915e-07,0.0,0.0,0.0,1.21846967915e-07,1.12776475,0.51975245,11.22861425,9e-08,0.0,0.0,0.0,9e-08,0.0,0.0,0.0,9e-08
1532985296421108353,10042,1532985296420511675,base_link,0.0,0.0,0.0,0.0,-1.0,0.0,0.0,0.0,0.0,0.0,0.0,0.0,0.0,0.095,-0.186,-0.257,1.21846967915e-07,0.0,0.0,0.0,1.21846967915e-07,0.0,0.0,0.0,1.21846967915e-07,1.20621795,0.51975245,8.48275225,9e-08,0.0,0.0,0.0,9e-08,0.0,0.0,0.0,9e-08
1532985296538018308,10043,1532985296537514784,base_link,0.0,0.0,0.0,0.0,-1.0,0.0,0.0,0.0,0.0,0.0,0.0,0.0,0.0,0.008,-0.285,-0.259,1.21846967915e-07,0.0,0.0,0.0,1.21846967915e-07,0.0,0.0,0.0,1.21846967915e-07,1.20621795,0.57859235,13.2193642,9e-08,0.0,0.0,0.0,9e-08,0.0,0.0,0.0,9e-08
1532985296640392265,10044,1532985296639696961,base_link,0.0,0.0,0.0,0.0,-1.0,0.0,0.0,0.0,0.0,0.0,0.0,0.0,0.0,0.084,-0.267,-0.268,1.21846967915e-07,0.0,0.0,0.0,1.21846967915e-07,0.0,0.0,0.0,1.21846967915e-07,1.04931155,0.980665,12.9643913,9e-08,0.0,0.0,0.0,9e-08,0.0,0.0,0.0,9e-08
1532985296744106415,10045,1532985296743538175,base_link,0.0,0.0,0.0,0.0,-1.0,0.0,0.0,0.0,0.0,0.0,0.0,0.0,0.0,0.131,-0.288,-0.298,1.21846967915e-07,0.0,0.0,0.0,1.21846967915e-07,0.0,0.0,0.0,1.21846967915e-07,0.87279185,0.6864655,11.54242705,9e-08,0.0,0.0,0.0,9e-08,0.0,0.0,0.0,9e-08
1532985296850135269,10046,1532985296849150967,base_link,0.0,0.0,0.0,0.0,-1.0,0.0,0.0,0.0,0.0,0.0,0.0,0.0,0.0,0.14,-0.309,-0.318,1.21846967915e-07,0.0,0.0,0.0,1.21846967915e-07,0.0,0.0,0.0,1.21846967915e-07,1.01008495,0.08825985,12.11121275,9e-08,0.0,0.0,0.0,9e-08,0.0,0.0,0.0,9e-08
1532985296946337928,10047,1532985296945915147,base_link,0.0,0.0,0.0,0.0,-1.0,0.0,0.0,0.0,0.0,0.0,0.0,0.0,0.0,0.164,-0.322,-0.275,1.21846967915e-07,0.0,0.0,0.0,1.21846967915e-07,0.0,0.0,0.0,1.21846967915e-07,0.9022118,0.3334261,13.46453045,9e-08,0.0,0.0,0.0,9e-08,0.0,0.0,0.0,9e-08
1532985297046358472,10048,1532985297045741030,base_link,0.0,0.0,0.0,0.0,-1.0,0.0,0.0,0.0,0.0,0.0,0.0,0.0,0.0,0.165,-0.316,-0.214,1.21846967915e-07,0.0,0.0,0.0,1.21846967915e-07,0.0,0.0,0.0,1.21846967915e-07,0.7256921,0.95124505,12.48386545,9e-08,0.0,0.0,0.0,9e-08,0.0,0.0,0.0,9e-08
1532985297144296044,10049,1532985297143665262,base_link,0.0,0.0,0.0,0.0,-1.0,0.0,0.0,0.0,0.0,0.0,0.0,0.0,0.0,-0.031,-0.281,-0.261,1.21846967915e-07,0.0,0.0,0.0,1.21846967915e-07,0.0,0.0,0.0,1.21846967915e-07,0.7256921,0.784532,11.79739995,9e-08,0.0,0.0,0.0,9e-08,0.0,0.0,0.0,9e-08
1532985297237227954,10050,1532985297236245409,base_link,0.0,0.0,0.0,0.0,-1.0,0.0,0.0,0.0,0.0,0.0,0.0,0.0,0.0,-0.041,-0.283,-0.32,1.21846967915e-07,0.0,0.0,0.0,1.21846967915e-07,0.0,0.0,0.0,1.21846967915e-07,0.4511059,1.01008495,12.44463885,9e-08,0.0,0.0,0.0,9e-08,0.0,0.0,0.0,9e-08
1532985297369339180,10051,1532985297368733159,base_link,0.0,0.0,0.0,0.0,-1.0,0.0,0.0,0.0,0.0,0.0,0.0,0.0,0.0,-0.075,-0.291,-0.372,1.21846967915e-07,0.0,0.0,0.0,1.21846967915e-07,0.0,0.0,0.0,1.21846967915e-07,0.4314926,0.6668522,12.1014061,9e-08,0.0,0.0,0.0,9e-08,0.0,0.0,0.0,9e-08
1532985297431424126,10052,1532985297430956622,base_link,0.0,0.0,0.0,0.0,-1.0,0.0,0.0,0.0,0.0,0.0,0.0,0.0,0.0,-0.053,-0.344,-0.382,1.21846967915e-07,0.0,0.0,0.0,1.21846967915e-07,0.0,0.0,0.0,1.21846967915e-07,0.30400615,0.51975245,13.89602305,9e-08,0.0,0.0,0.0,9e-08,0.0,0.0,0.0,9e-08
1532985297540139248,10053,1532985297539303697,base_link,0.0,0.0,0.0,0.0,-1.0,0.0,0.0,0.0,0.0,0.0,0.0,0.0,0.0,-0.015,-0.345,-0.343,1.21846967915e-07,0.0,0.0,0.0,1.21846967915e-07,0.0,0.0,0.0,1.21846967915e-07,0.42168595,0.4118793,14.60210185,9e-08,0.0,0.0,0.0,9e-08,0.0,0.0,0.0,9e-08
1532985297649852528,10054,1532985297648237664,base_link,0.0,0.0,0.0,0.0,-1.0,0.0,0.0,0.0,0.0,0.0,0.0,0.0,0.0,-0.225,-0.34,-0.313,1.21846967915e-07,0.0,0.0,0.0,1.21846967915e-07,0.0,0.0,0.0,1.21846967915e-07,0.1372931,0.89240515,12.95458465,9e-08,0.0,0.0,0.0,9e-08,0.0,0.0,0.0,9e-08
1532985297752651421,10055,1532985297751579847,base_link,0.0,0.0,0.0,0.0,-1.0,0.0,0.0,0.0,0.0,0.0,0.0,0.0,0.0,-0.217,-0.377,-0.304,1.21846967915e-07,0.0,0.0,0.0,1.21846967915e-07,0.0,0.0,0.0,1.21846967915e-07,0.28439285,0.2745862,15.17088755,9e-08,0.0,0.0,0.0,9e-08,0.0,0.0,0.0,9e-08
1532985297861274668,10056,1532985297860292346,base_link,0.0,0.0,0.0,0.0,-1.0,0.0,0.0,0.0,0.0,0.0,0.0,0.0,0.0,-0.086,-0.358,-0.299,1.21846967915e-07,0.0,0.0,0.0,1.21846967915e-07,0.0,0.0,0.0,1.21846967915e-07,-0.10787315,0.50013915,15.50431365,9e-08,0.0,0.0,0.0,9e-08,0.0,0.0,0.0,9e-08
1532985297928524938,10057,1532985297927404930,base_link,0.0,0.0,0.0,0.0,-1.0,0.0,0.0,0.0,0.0,0.0,0.0,0.0,0.0,-0.031,-0.34,-0.285,1.21846967915e-07,0.0,0.0,0.0,1.21846967915e-07,0.0,0.0,0.0,1.21846967915e-07,-0.06864655,0.32361945,15.50431365,9e-08,0.0,0.0,0.0,9e-08,0.0,0.0,0.0,9e-08
1532985298062563090,10058,1532985298061702584,base_link,0.0,0.0,0.0,0.0,-1.0,0.0,0.0,0.0,0.0,0.0,0.0,0.0,0.0,-0.193,-0.356,-0.165,1.21846967915e-07,0.0,0.0,0.0,1.21846967915e-07,0.0,0.0,0.0,1.21846967915e-07,-0.2745862,0.53936575,15.17088755,9e-08,0.0,0.0,0.0,9e-08,0.0,0.0,0.0,9e-08
1532985298163750322,10059,1532985298163174305,base_link,0.0,0.0,0.0,0.0,-1.0,0.0,0.0,0.0,0.0,0.0,0.0,0.0,0.0,-0.357,-0.344,-0.141,1.21846967915e-07,0.0,0.0,0.0,1.21846967915e-07,0.0,0.0,0.0,1.21846967915e-07,-0.34323275,0.59820565,14.6511351,9e-08,0.0,0.0,0.0,9e-08,0.0,0.0,0.0,9e-08
1532985298223325573,10060,1532985298222854165,base_link,0.0,0.0,0.0,0.0,-1.0,0.0,0.0,0.0,0.0,0.0,0.0,0.0,0.0,-0.496,-0.302,-0.126,1.21846967915e-07,0.0,0.0,0.0,1.21846967915e-07,0.0,0.0,0.0,1.21846967915e-07,-0.3334261,0.97085835,14.03331615,9e-08,0.0,0.0,0.0,9e-08,0.0,0.0,0.0,9e-08
1532985298331007310,10061,1532985298330541115,base_link,0.0,0.0,0.0,0.0,-1.0,0.0,0.0,0.0,0.0,0.0,0.0,0.0,0.0,-0.523,-0.25,-0.193,1.21846967915e-07,0.0,0.0,0.0,1.21846967915e-07,0.0,0.0,0.0,1.21846967915e-07,-0.48052585,0.69627215,13.7096967,9e-08,0.0,0.0,0.0,9e-08,0.0,0.0,0.0,9e-08
1532985298440179536,10062,1532985298439092891,base_link,0.0,0.0,0.0,0.0,-1.0,0.0,0.0,0.0,0.0,0.0,0.0,0.0,0.0,-0.458,-0.176,-0.22,1.21846967915e-07,0.0,0.0,0.0,1.21846967915e-07,0.0,0.0,0.0,1.21846967915e-07,-0.42168595,0.75511205,12.40541225,9e-08,0.0,0.0,0.0,9e-08,0.0,0.0,0.0,9e-08
1532985298564160666,10063,1532985298563217816,base_link,0.0,0.0,0.0,0.0,-1.0,0.0,0.0,0.0,0.0,0.0,0.0,0.0,0.0,-0.317,-0.146,-0.29,1.21846967915e-07,0.0,0.0,0.0,1.21846967915e-07,0.0,0.0,0.0,1.21846967915e-07,-0.51975245,0.83356525,11.6699135,9e-08,0.0,0.0,0.0,9e-08,0.0,0.0,0.0,9e-08
1532985298648621882,10064,1532985298647318534,base_link,0.0,0.0,0.0,0.0,-1.0,0.0,0.0,0.0,0.0,0.0,0.0,0.0,0.0,-0.768,-0.136,-0.305,1.21846967915e-07,0.0,0.0,0.0,1.21846967915e-07,0.0,0.0,0.0,1.21846967915e-07,-0.1765197,0.10787315,12.8074849,9e-08,0.0,0.0,0.0,9e-08,0.0,0.0,0.0,9e-08
1532985298722558332,10065,1532985298721996007,base_link,0.0,0.0,0.0,0.0,-1.0,0.0,0.0,0.0,0.0,0.0,0.0,0.0,0.0,-0.81,-0.119,-0.254,1.21846967915e-07,0.0,0.0,0.0,1.21846967915e-07,0.0,0.0,0.0,1.21846967915e-07,-0.40207265,0.1765197,12.54270535,9e-08,0.0,0.0,0.0,9e-08,0.0,0.0,0.0,9e-08
1532985298870084139,10066,1532985298869602365,base_link,0.0,0.0,0.0,0.0,-1.0,0.0,0.0,0.0,0.0,0.0,0.0,0.0,0.0,-0.453,-0.068,-0.193,1.21846967915e-07,0.0,0.0,0.0,1.21846967915e-07,0.0,0.0,0.0,1.21846967915e-07,-0.26477955,0.14709975,12.160246,9e-08,0.0,0.0,0.0,9e-08,0.0,0.0,0.0,9e-08
1532985298959403589,10067,1532985298958981574,base_link,0.0,0.0,0.0,0.0,-1.0,0.0,0.0,0.0,0.0,0.0,0.0,0.0,0.0,-0.452,-0.059,-0.131,1.21846967915e-07,0.0,0.0,0.0,1.21846967915e-07,0.0,0.0,0.0,1.21846967915e-07,-0.22555295,-0.10787315,11.32668075,9e-08,0.0,0.0,0.0,9e-08,0.0,0.0,0.0,9e-08
1532985299038435179,10068,1532985299037827458,base_link,0.0,0.0,0.0,0.0,-1.0,0.0,0.0,0.0,0.0,0.0,0.0,0.0,0.0,-0.342,-0.026,-0.068,1.21846967915e-07,0.0,0.0,0.0,1.21846967915e-07,0.0,0.0,0.0,1.21846967915e-07,-0.2941995,-0.0980665,9.79684335,9e-08,0.0,0.0,0.0,9e-08,0.0,0.0,0.0,9e-08
1532985299164934216,10069,1532985299163832755,base_link,0.0,0.0,0.0,0.0,-1.0,0.0,0.0,0.0,0.0,0.0,0.0,0.0,0.0,-0.332,0.061,-0.008,1.21846967915e-07,0.0,0.0,0.0,1.21846967915e-07,0.0,0.0,0.0,1.21846967915e-07,-0.1569064,9.84793967694e-16,8.041453,9e-08,0.0,0.0,0.0,9e-08,0.0,0.0,0.0,9e-08
1532985299251907040,10070,1532985299250057165,base_link,0.0,0.0,0.0,0.0,-1.0,0.0,0.0,0.0,0.0,0.0,0.0,0.0,0.0,-0.282,0.089,0.001,1.21846967915e-07,0.0,0.0,0.0,1.21846967915e-07,0.0,0.0,0.0,1.21846967915e-07,-0.0784532,-0.06864655,7.63938035,9e-08,0.0,0.0,0.0,9e-08,0.0,0.0,0.0,9e-08
1532985299356216277,10071,1532985299355821420,base_link,0.0,0.0,0.0,0.0,-1.0,0.0,0.0,0.0,0.0,0.0,0.0,0.0,0.0,-0.227,0.083,0.021,1.21846967915e-07,0.0,0.0,0.0,1.21846967915e-07,0.0,0.0,0.0,1.21846967915e-07,-0.0196133,0.14709975,8.42391235,9e-08,0.0,0.0,0.0,9e-08,0.0,0.0,0.0,9e-08
1532985299442646896,10072,1532985299441803950,base_link,0.0,0.0,0.0,0.0,-1.0,0.0,0.0,0.0,0.0,0.0,0.0,0.0,0.0,-0.331,0.068,0.048,1.21846967915e-07,0.0,0.0,0.0,1.21846967915e-07,0.0,0.0,0.0,1.21846967915e-07,0.2941995,-0.0784532,9.610517,9e-08,0.0,0.0,0.0,9e-08,0.0,0.0,0.0,9e-08
1532985299538738031,10073,1532985299537880849,base_link,0.0,0.0,0.0,0.0,-1.0,0.0,0.0,0.0,0.0,0.0,0.0,0.0,0.0,-0.304,0.146,0.086,1.21846967915e-07,0.0,0.0,0.0,1.21846967915e-07,0.0,0.0,0.0,1.21846967915e-07,0.588399,0.0784532,8.89463155,9e-08,0.0,0.0,0.0,9e-08,0.0,0.0,0.0,9e-08
1532985299633533461,10074,1532985299632921581,base_link,0.0,0.0,0.0,0.0,-1.0,0.0,0.0,0.0,0.0,0.0,0.0,0.0,0.0,-0.261,0.203,0.1,1.21846967915e-07,0.0,0.0,0.0,1.21846967915e-07,0.0,0.0,0.0,1.21846967915e-07,0.8041453,-0.02941995,7.6099604,9e-08,0.0,0.0,0.0,9e-08,0.0,0.0,0.0,9e-08
1532985299737411084,10075,1532985299734946609,base_link,0.0,0.0,0.0,0.0,-1.0,0.0,0.0,0.0,0.0,0.0,0.0,0.0,0.0,-0.235,0.257,0.105,1.21846967915e-07,0.0,0.0,0.0,1.21846967915e-07,0.0,0.0,0.0,1.21846967915e-07,0.8041453,0.4511059,5.38385085,9e-08,0.0,0.0,0.0,9e-08,0.0,0.0,0.0,9e-08
1532985299826566707,10076,1532985299825850698,base_link,0.0,0.0,0.0,0.0,-1.0,0.0,0.0,0.0,0.0,0.0,0.0,0.0,0.0,-0.392,0.278,0.034,1.21846967915e-07,0.0,0.0,0.0,1.21846967915e-07,0.0,0.0,0.0,1.21846967915e-07,0.65704555,1.08853815,5.3152043,9e-08,0.0,0.0,0.0,9e-08,0.0,0.0,0.0,9e-08
1532985299947210930,10077,1532985299944472426,base_link,0.0,0.0,0.0,0.0,-1.0,0.0,0.0,0.0,0.0,0.0,0.0,0.0,0.0,-0.208,0.309,-0.085,1.21846967915e-07,0.0,0.0,0.0,1.21846967915e-07,0.0,0.0,0.0,1.21846967915e-07,0.77472535,0.9022118,5.85457005,9e-08,0.0,0.0,0.0,9e-08,0.0,0.0,0.0,9e-08
1532985300044853507,10078,1532985300043560004,base_link,0.0,0.0,0.0,0.0,-1.0,0.0,0.0,0.0,0.0,0.0,0.0,0.0,0.0,-0.117,0.304,-0.155,1.21846967915e-07,0.0,0.0,0.0,1.21846967915e-07,0.0,0.0,0.0,1.21846967915e-07,0.5687857,0.40207265,5.099458,9e-08,0.0,0.0,0.0,9e-08,0.0,0.0,0.0,9e-08
1532985300138448568,10079,1532985300137999006,base_link,0.0,0.0,0.0,0.0,-1.0,0.0,0.0,0.0,0.0,0.0,0.0,0.0,0.0,-0.088,0.264,-0.156,1.21846967915e-07,0.0,0.0,0.0,1.21846967915e-07,0.0,0.0,0.0,1.21846967915e-07,1.06892485,-0.4707192,3.6873004,9e-08,0.0,0.0,0.0,9e-08,0.0,0.0,0.0,9e-08
1532985300241384783,10080,1532985300240340518,base_link,0.0,0.0,0.0,0.0,-1.0,0.0,0.0,0.0,0.0,0.0,0.0,0.0,0.0,-0.022,0.152,-0.062,1.21846967915e-07,0.0,0.0,0.0,1.21846967915e-07,0.0,0.0,0.0,1.21846967915e-07,0.81395195,-0.44129925,4.4522191,9e-08,0.0,0.0,0.0,9e-08,0.0,0.0,0.0,9e-08
1532985300336285343,10081,1532985300335585520,base_link,0.0,0.0,0.0,0.0,-1.0,0.0,0.0,0.0,0.0,0.0,0.0,0.0,0.0,0.158,0.17,0.008,1.21846967915e-07,0.0,0.0,0.0,1.21846967915e-07,0.0,0.0,0.0,1.21846967915e-07,1.1571847,-1.01008495,3.7069137,9e-08,0.0,0.0,0.0,9e-08,0.0,0.0,0.0,9e-08
1532985300454926383,10082,1532985300453662984,base_link,0.0,0.0,0.0,0.0,-1.0,0.0,0.0,0.0,0.0,0.0,0.0,0.0,0.0,0.247,0.121,0.124,1.21846967915e-07,0.0,0.0,0.0,1.21846967915e-07,0.0,0.0,0.0,1.21846967915e-07,0.93163175,-0.588399,6.2566427,9e-08,0.0,0.0,0.0,9e-08,0.0,0.0,0.0,9e-08
1532985300535961986,10083,1532985300533737401,base_link,0.0,0.0,0.0,0.0,-1.0,0.0,0.0,0.0,0.0,0.0,0.0,0.0,0.0,0.183,0.076,0.2,1.21846967915e-07,0.0,0.0,0.0,1.21846967915e-07,0.0,0.0,0.0,1.21846967915e-07,1.14737805,-0.5099458,7.6688003,9e-08,0.0,0.0,0.0,9e-08,0.0,0.0,0.0,9e-08
1532985300652532987,10084,1532985300651787417,base_link,0.0,0.0,0.0,0.0,-1.0,0.0,0.0,0.0,0.0,0.0,0.0,0.0,0.0,0.147,0.067,0.245,1.21846967915e-07,0.0,0.0,0.0,1.21846967915e-07,0.0,0.0,0.0,1.21846967915e-07,1.4709975,-0.2941995,7.5315072,9e-08,0.0,0.0,0.0,9e-08,0.0,0.0,0.0,9e-08
1532985300743139947,10085,1532985300742530432,base_link,0.0,0.0,0.0,0.0,-1.0,0.0,0.0,0.0,0.0,0.0,0.0,0.0,0.0,0.019,0.025,0.224,1.21846967915e-07,0.0,0.0,0.0,1.21846967915e-07,0.0,0.0,0.0,1.21846967915e-07,1.10815145,0.3138128,7.4922806,9e-08,0.0,0.0,0.0,9e-08,0.0,0.0,0.0,9e-08
1532985300845595824,10086,1532985300844727411,base_link,0.0,0.0,0.0,0.0,-1.0,0.0,0.0,0.0,0.0,0.0,0.0,0.0,0.0,-0.063,-0.033,0.177,1.21846967915e-07,0.0,0.0,0.0,1.21846967915e-07,0.0,0.0,0.0,1.21846967915e-07,1.16699135,0.3530394,9.28689755,9e-08,0.0,0.0,0.0,9e-08,0.0,0.0,0.0,9e-08
1532985300972743994,10087,1532985300965484013,base_link,0.0,0.0,0.0,0.0,-1.0,0.0,0.0,0.0,0.0,0.0,0.0,0.0,0.0,-0.027,-0.037,0.108,1.21846967915e-07,0.0,0.0,0.0,1.21846967915e-07,0.0,0.0,0.0,1.21846967915e-07,1.06892485,0.4707192,10.2185293,9e-08,0.0,0.0,0.0,9e-08,0.0,0.0,0.0,9e-08
1532985301069684989,10088,1532985301068929915,base_link,0.0,0.0,0.0,0.0,-1.0,0.0,0.0,0.0,0.0,0.0,0.0,0.0,0.0,-0.061,-0.095,0.009,1.21846967915e-07,0.0,0.0,0.0,1.21846967915e-07,0.0,0.0,0.0,1.21846967915e-07,0.83356525,0.392266,11.67972015,9e-08,0.0,0.0,0.0,9e-08,0.0,0.0,0.0,9e-08
1532985301155594736,10089,1532985301154902300,base_link,0.0,0.0,0.0,0.0,-1.0,0.0,0.0,0.0,0.0,0.0,0.0,0.0,0.0,0.051,-0.116,-0.032,1.21846967915e-07,0.0,0.0,0.0,1.21846967915e-07,0.0,0.0,0.0,1.21846967915e-07,0.5687857,0.55897905,11.16977435,9e-08,0.0,0.0,0.0,9e-08,0.0,0.0,0.0,9e-08
1532985301246451249,10090,1532985301245598668,base_link,0.0,0.0,0.0,0.0,-1.0,0.0,0.0,0.0,0.0,0.0,0.0,0.0,0.0,-0.015,-0.144,-0.078,1.21846967915e-07,0.0,0.0,0.0,1.21846967915e-07,0.0,0.0,0.0,1.21846967915e-07,0.14709975,0.69627215,11.64049355,9e-08,0.0,0.0,0.0,9e-08,0.0,0.0,0.0,9e-08
1532985301348334975,10091,1532985301347700250,base_link,0.0,0.0,0.0,0.0,-1.0,0.0,0.0,0.0,0.0,0.0,0.0,0.0,0.0,-0.006,-0.174,-0.088,1.21846967915e-07,0.0,0.0,0.0,1.21846967915e-07,0.0,0.0,0.0,1.21846967915e-07,0.06864655,-0.00980665,11.91507975,9e-08,0.0,0.0,0.0,9e-08,0.0,0.0,0.0,9e-08
1532985301469579362,10092,1532985301468088186,base_link,0.0,0.0,0.0,0.0,-1.0,0.0,0.0,0.0,0.0,0.0,0.0,0.0,0.0,0.4,-0.227,-0.041,1.21846967915e-07,0.0,0.0,0.0,1.21846967915e-07,0.0,0.0,0.0,1.21846967915e-07,-0.0392266,-0.06864655,15.0041745,9e-08,0.0,0.0,0.0,9e-08,0.0,0.0,0.0,9e-08
1532985301534201273,10093,1532985301533447479,base_link,0.0,0.0,0.0,0.0,-1.0,0.0,0.0,0.0,0.0,0.0,0.0,0.0,0.0,0.416,-0.192,0.046,1.21846967915e-07,0.0,0.0,0.0,1.21846967915e-07,0.0,0.0,0.0,1.21846967915e-07,-0.3334261,0.0588399,14.2196425,9e-08,0.0,0.0,0.0,9e-08,0.0,0.0,0.0,9e-08
1532985301656763416,10094,1532985301656065925,base_link,0.0,0.0,0.0,0.0,-1.0,0.0,0.0,0.0,0.0,0.0,0.0,0.0,0.0,0.26,-0.253,0.083,1.21846967915e-07,0.0,0.0,0.0,1.21846967915e-07,0.0,0.0,0.0,1.21846967915e-07,-0.20593965,-0.0980665,15.2787607,9e-08,0.0,0.0,0.0,9e-08,0.0,0.0,0.0,9e-08
1532985301738876298,10095,1532985301735153108,base_link,0.0,0.0,0.0,0.0,-1.0,0.0,0.0,0.0,0.0,0.0,0.0,0.0,0.0,0.211,-0.235,0.091,1.21846967915e-07,0.0,0.0,0.0,1.21846967915e-07,0.0,0.0,0.0,1.21846967915e-07,-0.392266,-0.2941995,14.19022255,9e-08,0.0,0.0,0.0,9e-08,0.0,0.0,0.0,9e-08
1532985301818150657,10096,1532985301817594181,base_link,0.0,0.0,0.0,0.0,-1.0,0.0,0.0,0.0,0.0,0.0,0.0,0.0,0.0,0.048,-0.201,0.137,1.21846967915e-07,0.0,0.0,0.0,1.21846967915e-07,0.0,0.0,0.0,1.21846967915e-07,-0.5099458,-0.12748645,13.09187775,9e-08,0.0,0.0,0.0,9e-08,0.0,0.0,0.0,9e-08
1532985301943324542,10097,1532985301942690521,base_link,0.0,0.0,0.0,0.0,-1.0,0.0,0.0,0.0,0.0,0.0,0.0,0.0,0.0,-0.262,-0.168,0.127,1.21846967915e-07,0.0,0.0,0.0,1.21846967915e-07,0.0,0.0,0.0,1.21846967915e-07,-0.9218251,0.79433865,13.75872995,9e-08,0.0,0.0,0.0,9e-08,0.0,0.0,0.0,9e-08
1532985302036344682,10098,1532985302035865846,base_link,0.0,0.0,0.0,0.0,-1.0,0.0,0.0,0.0,0.0,0.0,0.0,0.0,0.0,-0.343,-0.113,0.042,1.21846967915e-07,0.0,0.0,0.0,1.21846967915e-07,0.0,0.0,0.0,1.21846967915e-07,-0.9414384,0.40207265,12.4544455,9e-08,0.0,0.0,0.0,9e-08,0.0,0.0,0.0,9e-08
1532985302121971194,10099,1532985302121145899,base_link,0.0,0.0,0.0,0.0,-1.0,0.0,0.0,0.0,0.0,0.0,0.0,0.0,0.0,-0.241,-0.139,-0.005,1.21846967915e-07,0.0,0.0,0.0,1.21846967915e-07,0.0,0.0,0.0,1.21846967915e-07,-0.9218251,0.3138128,12.67999845,9e-08,0.0,0.0,0.0,9e-08,0.0,0.0,0.0,9e-08
1532985302274837805,10100,1532985302267980125,base_link,0.0,0.0,0.0,0.0,-1.0,0.0,0.0,0.0,0.0,0.0,0.0,0.0,0.0,0.08,-0.106,-0.013,1.21846967915e-07,0.0,0.0,0.0,1.21846967915e-07,0.0,0.0,0.0,1.21846967915e-07,-0.73549875,0.2941995,12.75845165,9e-08,0.0,0.0,0.0,9e-08,0.0,0.0,0.0,9e-08
1532985302363060136,10101,1532985302362405606,base_link,0.0,0.0,0.0,0.0,-1.0,0.0,0.0,0.0,0.0,0.0,0.0,0.0,0.0,0.046,-0.067,-0.021,1.21846967915e-07,0.0,0.0,0.0,1.21846967915e-07,0.0,0.0,0.0,1.21846967915e-07,-1.0198916,-0.0196133,10.28717585,9e-08,0.0,0.0,0.0,9e-08,0.0,0.0,0.0,9e-08
1532985302449911378,10102,1532985302449465012,base_link,0.0,0.0,0.0,0.0,-1.0,0.0,0.0,0.0,0.0,0.0,0.0,0.0,0.0,0.026,-0.051,-0.015,1.21846967915e-07,0.0,0.0,0.0,1.21846967915e-07,0.0,0.0,0.0,1.21846967915e-07,-0.87279185,0.0196133,10.32640245,9e-08,0.0,0.0,0.0,9e-08,0.0,0.0,0.0,9e-08
1532985302548343435,10103,1532985302545125238,base_link,0.0,0.0,0.0,0.0,-1.0,0.0,0.0,0.0,0.0,0.0,0.0,0.0,0.0,0.16,-0.028,-0.017,1.21846967915e-07,0.0,0.0,0.0,1.21846967915e-07,0.0,0.0,0.0,1.21846967915e-07,-1.0002783,-0.0588399,9.97336305,9e-08,0.0,0.0,0.0,9e-08,0.0,0.0,0.0,9e-08
1532985302654854479,10104,1532985302654117190,base_link,0.0,0.0,0.0,0.0,-1.0,0.0,0.0,0.0,0.0,0.0,0.0,0.0,0.0,0.111,-0.033,0.001,1.21846967915e-07,0.0,0.0,0.0,1.21846967915e-07,0.0,0.0,0.0,1.21846967915e-07,-1.0002783,-0.04903325,9.83606995,9e-08,0.0,0.0,0.0,9e-08,0.0,0.0,0.0,9e-08
1532985302730159426,10105,1532985302729122640,base_link,0.0,0.0,0.0,0.0,-1.0,0.0,0.0,0.0,0.0,0.0,0.0,0.0,0.0,0.158,-0.024,0.006,1.21846967915e-07,0.0,0.0,0.0,1.21846967915e-07,0.0,0.0,0.0,1.21846967915e-07,-0.79433865,-0.12748645,10.1204628,9e-08,0.0,0.0,0.0,9e-08,0.0,0.0,0.0,9e-08
1532985302869700100,10106,1532985302869238698,base_link,0.0,0.0,0.0,0.0,-1.0,0.0,0.0,0.0,0.0,0.0,0.0,0.0,0.0,0.04,0.02,0.023,1.21846967915e-07,0.0,0.0,0.0,1.21846967915e-07,0.0,0.0,0.0,1.21846967915e-07,-0.7256921,-0.0588399,10.38524235,9e-08,0.0,0.0,0.0,9e-08,0.0,0.0,0.0,9e-08
1532985302970402342,10107,1532985302969762305,base_link,0.0,0.0,0.0,0.0,-1.0,0.0,0.0,0.0,0.0,0.0,0.0,0.0,0.0,0.087,0.034,0.054,1.21846967915e-07,0.0,0.0,0.0,1.21846967915e-07,0.0,0.0,0.0,1.21846967915e-07,-0.81395195,0.42168595,9.60071035,9e-08,0.0,0.0,0.0,9e-08,0.0,0.0,0.0,9e-08
1532985303034037926,10108,1532985303033406140,base_link,0.0,0.0,0.0,0.0,-1.0,0.0,0.0,0.0,0.0,0.0,0.0,0.0,0.0,0.074,0.054,0.018,1.21846967915e-07,0.0,0.0,0.0,1.21846967915e-07,0.0,0.0,0.0,1.21846967915e-07,-0.7453054,0.4511059,8.93385815,9e-08,0.0,0.0,0.0,9e-08,0.0,0.0,0.0,9e-08
1532985303146895722,10109,1532985303144487745,base_link,0.0,0.0,0.0,0.0,-1.0,0.0,0.0,0.0,0.0,0.0,0.0,0.0,0.0,0.003,0.037,-0.031,1.21846967915e-07,0.0,0.0,0.0,1.21846967915e-07,0.0,0.0,0.0,1.21846967915e-07,-0.5687857,0.44129925,9.414384,9e-08,0.0,0.0,0.0,9e-08,0.0,0.0,0.0,9e-08
1532985303226933806,10110,1532985303226469684,base_link,0.0,0.0,0.0,0.0,-1.0,0.0,0.0,0.0,0.0,0.0,0.0,0.0,0.0,0.066,0.089,-0.06,1.21846967915e-07,0.0,0.0,0.0,1.21846967915e-07,0.0,0.0,0.0,1.21846967915e-07,-0.4314926,0.28439285,7.9826131,9e-08,0.0,0.0,0.0,9e-08,0.0,0.0,0.0,9e-08
1532985303328280748,10111,1532985303327127609,base_link,0.0,0.0,0.0,0.0,-1.0,0.0,0.0,0.0,0.0,0.0,0.0,0.0,0.0,0.044,0.079,-0.072,1.21846967915e-07,0.0,0.0,0.0,1.21846967915e-07,0.0,0.0,0.0,1.21846967915e-07,-0.4707192,0.392266,8.3944924,9e-08,0.0,0.0,0.0,9e-08,0.0,0.0,0.0,9e-08
1532985303482930227,10112,1532985303482218912,base_link,0.0,0.0,0.0,0.0,-1.0,0.0,0.0,0.0,0.0,0.0,0.0,0.0,0.0,0.052,0.135,-0.105,1.21846967915e-07,0.0,0.0,0.0,1.21846967915e-07,0.0,0.0,0.0,1.21846967915e-07,-0.51975245,0.18632635,6.71755525,9e-08,0.0,0.0,0.0,9e-08,0.0,0.0,0.0,9e-08
1532985303533457308,10113,1532985303529755048,base_link,0.0,0.0,0.0,0.0,-1.0,0.0,0.0,0.0,0.0,0.0,0.0,0.0,0.0,0.063,0.137,-0.103,1.21846967915e-07,0.0,0.0,0.0,1.21846967915e-07,0.0,0.0,0.0,1.21846967915e-07,-0.44129925,0.1372931,6.7273619,9e-08,0.0,0.0,0.0,9e-08,0.0,0.0,0.0,9e-08
1532985303655446101,10114,1532985303652102394,base_link,0.0,0.0,0.0,0.0,-1.0,0.0,0.0,0.0,0.0,0.0,0.0,0.0,0.0,0.123,0.138,-0.068,1.21846967915e-07,0.0,0.0,0.0,1.21846967915e-07,0.0,0.0,0.0,1.21846967915e-07,-0.2353596,0.1176798,7.03136805,9e-08,0.0,0.0,0.0,9e-08,0.0,0.0,0.0,9e-08
1532985303722695556,10115,1532985303719057342,base_link,0.0,0.0,0.0,0.0,-1.0,0.0,0.0,0.0,0.0,0.0,0.0,0.0,0.0,0.095,0.131,-0.06,1.21846967915e-07,0.0,0.0,0.0,1.21846967915e-07,0.0,0.0,0.0,1.21846967915e-07,0.0784532,-0.16671305,7.1784678,9e-08,0.0,0.0,0.0,9e-08,0.0,0.0,0.0,9e-08
1532985303833201774,10116,1532985303831702943,base_link,0.0,0.0,0.0,0.0,-1.0,0.0,0.0,0.0,0.0,0.0,0.0,0.0,0.0,0.074,0.11,-0.031,1.21846967915e-07,0.0,0.0,0.0,1.21846967915e-07,0.0,0.0,0.0,1.21846967915e-07,0.08825985,-0.20593965,7.3746008,9e-08,0.0,0.0,0.0,9e-08,0.0,0.0,0.0,9e-08
1532985303927009868,10117,1532985303926264164,base_link,0.0,0.0,0.0,0.0,-1.0,0.0,0.0,0.0,0.0,0.0,0.0,0.0,0.0,0.085,0.108,-1.32261854308e-17,1.21846967915e-07,0.0,0.0,0.0,1.21846967915e-07,0.0,0.0,0.0,1.21846967915e-07,0.2745862,-0.12748645,7.5118939,9e-08,0.0,0.0,0.0,9e-08,0.0,0.0,0.0,9e-08
1532985304029547206,10118,1532985304029082059,base_link,0.0,0.0,0.0,0.0,-1.0,0.0,0.0,0.0,0.0,0.0,0.0,0.0,0.0,0.061,0.129,-1.5797943709e-17,1.21846967915e-07,0.0,0.0,0.0,1.21846967915e-07,0.0,0.0,0.0,1.21846967915e-07,-0.28439285,0.1372931,7.42363405,9e-08,0.0,0.0,0.0,9e-08,0.0,0.0,0.0,9e-08
1532985304147453184,10119,1532985304145613070,base_link,0.0,0.0,0.0,0.0,-1.0,0.0,0.0,0.0,0.0,0.0,0.0,0.0,0.0,-0.019,0.091,0.036,1.21846967915e-07,0.0,0.0,0.0,1.21846967915e-07,0.0,0.0,0.0,1.21846967915e-07,0.2941995,-0.38245935,8.1199062,9e-08,0.0,0.0,0.0,9e-08,0.0,0.0,0.0,9e-08
1532985304241389336,10120,1532985304240901155,base_link,0.0,0.0,0.0,0.0,-1.0,0.0,0.0,0.0,0.0,0.0,0.0,0.0,0.0,-0.099,0.106,0.083,1.21846967915e-07,0.0,0.0,0.0,1.21846967915e-07,0.0,0.0,0.0,1.21846967915e-07,-0.0980665,0.1765197,7.58054045,9e-08,0.0,0.0,0.0,9e-08,0.0,0.0,0.0,9e-08
1532985304330411115,10121,1532985304329741066,base_link,0.0,0.0,0.0,0.0,-1.0,0.0,0.0,0.0,0.0,0.0,0.0,0.0,0.0,0.026,0.094,0.077,1.21846967915e-07,0.0,0.0,0.0,1.21846967915e-07,0.0,0.0,0.0,1.21846967915e-07,0.0980665,0.0980665,6.7862018,9e-08,0.0,0.0,0.0,9e-08,0.0,0.0,0.0,9e-08
1532985304425993932,10122,1532985304425457061,base_link,0.0,0.0,0.0,0.0,-1.0,0.0,0.0,0.0,0.0,0.0,0.0,0.0,0.0,0.192,0.11,0.063,1.21846967915e-07,0.0,0.0,0.0,1.21846967915e-07,0.0,0.0,0.0,1.21846967915e-07,0.30400615,0.10787315,5.491724,9e-08,0.0,0.0,0.0,9e-08,0.0,0.0,0.0,9e-08
1532985304556983566,10123,1532985304556359328,base_link,0.0,0.0,0.0,0.0,-1.0,0.0,0.0,0.0,0.0,0.0,0.0,0.0,0.0,-0.072,0.043,-0.01,1.21846967915e-07,0.0,0.0,0.0,1.21846967915e-07,0.0,0.0,0.0,1.21846967915e-07,0.0980665,0.2745862,6.83523505,9e-08,0.0,0.0,0.0,9e-08,0.0,0.0,0.0,9e-08
1532985304634709147,10124,1532985304627486729,base_link,0.0,0.0,0.0,0.0,-1.0,0.0,0.0,0.0,0.0,0.0,0.0,0.0,0.0,-0.048,0.053,-0.049,1.21846967915e-07,0.0,0.0,0.0,1.21846967915e-07,0.0,0.0,0.0,1.21846967915e-07,0.1765197,-0.02941995,7.1980811,9e-08,0.0,0.0,0.0,9e-08,0.0,0.0,0.0,9e-08
1532985304769114766,10125,1532985304768486433,base_link,0.0,0.0,0.0,0.0,-1.0,0.0,0.0,0.0,0.0,0.0,0.0,0.0,0.0,-0.009,0.005,-0.031,1.21846967915e-07,0.0,0.0,0.0,1.21846967915e-07,0.0,0.0,0.0,1.21846967915e-07,0.18632635,-0.18632635,7.69822025,9e-08,0.0,0.0,0.0,9e-08,0.0,0.0,0.0,9e-08
1532985304837760411,10126,1532985304836973276,base_link,0.0,0.0,0.0,0.0,-1.0,0.0,0.0,0.0,0.0,0.0,0.0,0.0,0.0,-0.032,-0.014,-0.029,1.21846967915e-07,0.0,0.0,0.0,1.21846967915e-07,0.0,0.0,0.0,1.21846967915e-07,0.22555295,0.2157463,9.2574776,9e-08,0.0,0.0,0.0,9e-08,0.0,0.0,0.0,9e-08
1532985304957795286,10127,1532985304957253968,base_link,0.0,0.0,0.0,0.0,-1.0,0.0,0.0,0.0,0.0,0.0,0.0,0.0,0.0,-0.157,-0.027,-0.058,1.21846967915e-07,0.0,0.0,0.0,1.21846967915e-07,0.0,0.0,0.0,1.21846967915e-07,0.1569064,0.04903325,9.414384,9e-08,0.0,0.0,0.0,9e-08,0.0,0.0,0.0,9e-08
1532985305066196620,10128,1532985305064834093,base_link,0.0,0.0,0.0,0.0,-1.0,0.0,0.0,0.0,0.0,0.0,0.0,0.0,0.0,-0.305,-0.04,-0.04,1.21846967915e-07,0.0,0.0,0.0,1.21846967915e-07,0.0,0.0,0.0,1.21846967915e-07,-0.0980665,0.20593965,8.71811185,9e-08,0.0,0.0,0.0,9e-08,0.0,0.0,0.0,9e-08
1532985305102718525,10129,1532985305102377149,base_link,0.0,0.0,0.0,0.0,-1.0,0.0,0.0,0.0,0.0,0.0,0.0,0.0,0.0,-0.349,-0.058,0.006,1.21846967915e-07,0.0,0.0,0.0,1.21846967915e-07,0.0,0.0,0.0,1.21846967915e-07,-0.0784532,-0.14709975,9.7870367,9e-08,0.0,0.0,0.0,9e-08,0.0,0.0,0.0,9e-08
1532985305230510227,10130,1532985305229752393,base_link,0.0,0.0,0.0,0.0,-1.0,0.0,0.0,0.0,0.0,0.0,0.0,0.0,0.0,-0.26,-0.101,0.034,1.21846967915e-07,0.0,0.0,0.0,1.21846967915e-07,0.0,0.0,0.0,1.21846967915e-07,0.0784532,-0.4118793,9.83606995,9e-08,0.0,0.0,0.0,9e-08,0.0,0.0,0.0,9e-08
1532985305326444339,10131,1532985305325420244,base_link,0.0,0.0,0.0,0.0,-1.0,0.0,0.0,0.0,0.0,0.0,0.0,0.0,0.0,-0.15,-0.099,0.099,1.21846967915e-07,0.0,0.0,0.0,1.21846967915e-07,0.0,0.0,0.0,1.21846967915e-07,0.20593965,-0.3334261,11.50320045,9e-08,0.0,0.0,0.0,9e-08,0.0,0.0,0.0,9e-08
1532985305424027840,10132,1532985305423388117,base_link,0.0,0.0,0.0,0.0,-1.0,0.0,0.0,0.0,0.0,0.0,0.0,0.0,0.0,0.035,-0.065,0.09,1.21846967915e-07,0.0,0.0,0.0,1.21846967915e-07,0.0,0.0,0.0,1.21846967915e-07,0.1176798,-0.2157463,10.4146623,9e-08,0.0,0.0,0.0,9e-08,0.0,0.0,0.0,9e-08
1532985305526034091,10133,1532985305525346158,base_link,0.0,0.0,0.0,0.0,-1.0,0.0,0.0,0.0,0.0,0.0,0.0,0.0,0.0,0.023,-0.075,0.091,1.21846967915e-07,0.0,0.0,0.0,1.21846967915e-07,0.0,0.0,0.0,1.21846967915e-07,0.0588399,0.18632635,10.5323421,9e-08,0.0,0.0,0.0,9e-08,0.0,0.0,0.0,9e-08
1532985305627987238,10134,1532985305627152370,base_link,0.0,0.0,0.0,0.0,-1.0,0.0,0.0,0.0,0.0,0.0,0.0,0.0,0.0,0.119,-0.059,0.036,1.21846967915e-07,0.0,0.0,0.0,1.21846967915e-07,0.0,0.0,0.0,1.21846967915e-07,0.0980665,0.7453054,10.1204628,9e-08,0.0,0.0,0.0,9e-08,0.0,0.0,0.0,9e-08
1532985305721355514,10135,1532985305720191075,base_link,0.0,0.0,0.0,0.0,-1.0,0.0,0.0,0.0,0.0,0.0,0.0,0.0,0.0,-0.002,-0.068,-0.024,1.21846967915e-07,0.0,0.0,0.0,1.21846967915e-07,0.0,0.0,0.0,1.21846967915e-07,0.0588399,0.2549729,11.64049355,9e-08,0.0,0.0,0.0,9e-08,0.0,0.0,0.0,9e-08
1532985305847755514,10136,1532985305847238348,base_link,0.0,0.0,0.0,0.0,-1.0,0.0,0.0,0.0,0.0,0.0,0.0,0.0,0.0,0.146,-0.079,-0.06,1.21846967915e-07,0.0,0.0,0.0,1.21846967915e-07,0.0,0.0,0.0,1.21846967915e-07,-0.08825985,0.08825985,10.1204628,9e-08,0.0,0.0,0.0,9e-08,0.0,0.0,0.0,9e-08
1532985305943151569,10137,1532985305942110391,base_link,0.0,0.0,0.0,0.0,-1.0,0.0,0.0,0.0,0.0,0.0,0.0,0.0,0.0,-0.009,-0.112,-0.082,1.21846967915e-07,0.0,0.0,0.0,1.21846967915e-07,0.0,0.0,0.0,1.21846967915e-07,-0.2549729,0.3530394,10.9049948,9e-08,0.0,0.0,0.0,9e-08,0.0,0.0,0.0,9e-08
1532985306029328806,10138,1532985306028511947,base_link,0.0,0.0,0.0,0.0,-1.0,0.0,0.0,0.0,0.0,0.0,0.0,0.0,0.0,0.034,-0.11,-0.107,1.21846967915e-07,0.0,0.0,0.0,1.21846967915e-07,0.0,0.0,0.0,1.21846967915e-07,-0.3726527,0.5099458,11.26784085,9e-08,0.0,0.0,0.0,9e-08,0.0,0.0,0.0,9e-08
1532985306133857507,10139,1532985306130284490,base_link,0.0,0.0,0.0,0.0,-1.0,0.0,0.0,0.0,0.0,0.0,0.0,0.0,0.0,0.21,-0.09,-0.148,1.21846967915e-07,0.0,0.0,0.0,1.21846967915e-07,0.0,0.0,0.0,1.21846967915e-07,-0.40207265,0.46091255,10.38524235,9e-08,0.0,0.0,0.0,9e-08,0.0,0.0,0.0,9e-08
1532985306231212790,10140,1532985306230476899,base_link,0.0,0.0,0.0,0.0,-1.0,0.0,0.0,0.0,0.0,0.0,0.0,0.0,0.0,0.226,-0.111,-0.112,1.21846967915e-07,0.0,0.0,0.0,1.21846967915e-07,0.0,0.0,0.0,1.21846967915e-07,-0.0196133,-0.4314926,10.48330885,9e-08,0.0,0.0,0.0,9e-08,0.0,0.0,0.0,9e-08
1532985306336030754,10141,1532985306335486266,base_link,0.0,0.0,0.0,0.0,-1.0,0.0,0.0,0.0,0.0,0.0,0.0,0.0,0.0,0.202,-0.104,-0.045,1.21846967915e-07,0.0,0.0,0.0,1.21846967915e-07,0.0,0.0,0.0,1.21846967915e-07,-0.48052585,-0.1372931,10.44408225,9e-08,0.0,0.0,0.0,9e-08,0.0,0.0,0.0,9e-08
1532985306432772352,10142,1532985306431205749,base_link,0.0,0.0,0.0,0.0,-1.0,0.0,0.0,0.0,0.0,0.0,0.0,0.0,0.0,0.138,-0.105,-0.006,1.21846967915e-07,0.0,0.0,0.0,1.21846967915e-07,0.0,0.0,0.0,1.21846967915e-07,-0.3334261,-0.28439285,10.9442214,9e-08,0.0,0.0,0.0,9e-08,0.0,0.0,0.0,9e-08
1532985306534814100,10143,1532985306533669460,base_link,0.0,0.0,0.0,0.0,-1.0,0.0,0.0,0.0,0.0,0.0,0.0,0.0,0.0,0.02,-0.17,0.072,1.21846967915e-07,0.0,0.0,0.0,1.21846967915e-07,0.0,0.0,0.0,1.21846967915e-07,0.0,-0.7453054,12.20927925,9e-08,0.0,0.0,0.0,9e-08,0.0,0.0,0.0,9e-08
1532985306609711404,10144,1532985306609244974,base_link,0.0,0.0,0.0,0.0,-1.0,0.0,0.0,0.0,0.0,0.0,0.0,0.0,0.0,0.052,-0.168,0.124,1.21846967915e-07,0.0,0.0,0.0,1.21846967915e-07,0.0,0.0,0.0,1.21846967915e-07,0.08825985,-0.4903325,13.62143685,9e-08,0.0,0.0,0.0,9e-08,0.0,0.0,0.0,9e-08
1532985306721983348,10145,1532985306720463901,base_link,0.0,0.0,0.0,0.0,-1.0,0.0,0.0,0.0,0.0,0.0,0.0,0.0,0.0,0.376,-0.088,0.175,1.21846967915e-07,0.0,0.0,0.0,1.21846967915e-07,0.0,0.0,0.0,1.21846967915e-07,0.10787315,-0.04903325,12.69961175,9e-08,0.0,0.0,0.0,9e-08,0.0,0.0,0.0,9e-08
1532985306830740787,10146,1532985306828706988,base_link,0.0,0.0,0.0,0.0,-1.0,0.0,0.0,0.0,0.0,0.0,0.0,0.0,0.0,0.305,-0.109,0.124,1.21846967915e-07,0.0,0.0,0.0,1.21846967915e-07,0.0,0.0,0.0,1.21846967915e-07,0.0392266,0.38245935,12.40541225,9e-08,0.0,0.0,0.0,9e-08,0.0,0.0,0.0,9e-08
1532985306948484994,10147,1532985306947846580,base_link,0.0,0.0,0.0,0.0,-1.0,0.0,0.0,0.0,0.0,0.0,0.0,0.0,0.0,0.163,-0.049,0.037,1.21846967915e-07,0.0,0.0,0.0,1.21846967915e-07,0.0,0.0,0.0,1.21846967915e-07,-0.0588399,0.980665,11.1599677,9e-08,0.0,0.0,0.0,9e-08,0.0,0.0,0.0,9e-08
1532985307040051191,10148,1532985307039238552,base_link,0.0,0.0,0.0,0.0,-1.0,0.0,0.0,0.0,0.0,0.0,0.0,0.0,0.0,-0.063,-0.034,-0.032,1.21846967915e-07,0.0,0.0,0.0,1.21846967915e-07,0.0,0.0,0.0,1.21846967915e-07,0.02941995,0.8041453,10.5715687,9e-08,0.0,0.0,0.0,9e-08,0.0,0.0,0.0,9e-08
1532985307141648342,10149,1532985307140566337,base_link,0.0,0.0,0.0,0.0,-1.0,0.0,0.0,0.0,0.0,0.0,0.0,0.0,0.0,-0.212,-0.044,-0.102,1.21846967915e-07,0.0,0.0,0.0,1.21846967915e-07,0.0,0.0,0.0,1.21846967915e-07,0.0392266,0.2353596,11.22861425,9e-08,0.0,0.0,0.0,9e-08,0.0,0.0,0.0,9e-08
1532985307250525016,10150,1532985307250110219,base_link,0.0,0.0,0.0,0.0,-1.0,0.0,0.0,0.0,0.0,0.0,0.0,0.0,0.0,-0.016,0.001,-0.118,1.21846967915e-07,0.0,0.0,0.0,1.21846967915e-07,0.0,0.0,0.0,1.21846967915e-07,-0.26477955,0.71588545,9.83606995,9e-08,0.0,0.0,0.0,9e-08,0.0,0.0,0.0,9e-08
1532985307325825439,10151,1532985307324871431,base_link,0.0,0.0,0.0,0.0,-1.0,0.0,0.0,0.0,0.0,0.0,0.0,0.0,0.0,-0.093,-0.013,-0.121,1.21846967915e-07,0.0,0.0,0.0,1.21846967915e-07,0.0,0.0,0.0,1.21846967915e-07,0.0784532,-0.1176798,8.65927195,9e-08,0.0,0.0,0.0,9e-08,0.0,0.0,0.0,9e-08
1532985307438617286,10152,1532985307437131041,base_link,0.0,0.0,0.0,0.0,-1.0,0.0,0.0,0.0,0.0,0.0,0.0,0.0,0.0,-0.141,-0.013,-0.059,1.21846967915e-07,0.0,0.0,0.0,1.21846967915e-07,0.0,0.0,0.0,1.21846967915e-07,-0.2353596,0.16671305,8.56120545,9e-08,0.0,0.0,0.0,9e-08,0.0,0.0,0.0,9e-08
1532985307543112324,10153,1532985307542436383,base_link,0.0,0.0,0.0,0.0,-1.0,0.0,0.0,0.0,0.0,0.0,0.0,0.0,0.0,0.101,-0.007,-0.078,1.21846967915e-07,0.0,0.0,0.0,1.21846967915e-07,0.0,0.0,0.0,1.21846967915e-07,0.00980665,-0.20593965,8.95347145,9e-08,0.0,0.0,0.0,9e-08,0.0,0.0,0.0,9e-08
1532985307686407959,10154,1532985307683595233,base_link,0.0,0.0,0.0,0.0,-1.0,0.0,0.0,0.0,0.0,0.0,0.0,0.0,0.0,0.198,-0.021,-0.01,1.21846967915e-07,0.0,0.0,0.0,1.21846967915e-07,0.0,0.0,0.0,1.21846967915e-07,-0.0196133,0.0784532,10.13026945,9e-08,0.0,0.0,0.0,9e-08,0.0,0.0,0.0,9e-08
1532985307743668092,10155,1532985307742565005,base_link,0.0,0.0,0.0,0.0,-1.0,0.0,0.0,0.0,0.0,0.0,0.0,0.0,0.0,0.105,-0.026,0.011,1.21846967915e-07,0.0,0.0,0.0,1.21846967915e-07,0.0,0.0,0.0,1.21846967915e-07,0.24516625,-0.2353596,9.7674234,9e-08,0.0,0.0,0.0,9e-08,0.0,0.0,0.0,9e-08
1532985307844295239,10156,1532985307843782101,base_link,0.0,0.0,0.0,0.0,-1.0,0.0,0.0,0.0,0.0,0.0,0.0,0.0,0.0,0.112,-0.003,0.056,1.21846967915e-07,0.0,0.0,0.0,1.21846967915e-07,0.0,0.0,0.0,1.21846967915e-07,0.3138128,0.06864655,8.8652116,9e-08,0.0,0.0,0.0,9e-08,0.0,0.0,0.0,9e-08
1532985307954928419,10157,1532985307952631902,base_link,0.0,0.0,0.0,0.0,-1.0,0.0,0.0,0.0,0.0,0.0,0.0,0.0,0.0,0.053,0.008,0.01,1.21846967915e-07,0.0,0.0,0.0,1.21846967915e-07,0.0,0.0,0.0,1.21846967915e-07,0.46091255,0.24516625,9.81645665,9e-08,0.0,0.0,0.0,9e-08,0.0,0.0,0.0,9e-08
1532985308050821915,10158,1532985308050213730,base_link,0.0,0.0,0.0,0.0,-1.0,0.0,0.0,0.0,0.0,0.0,0.0,0.0,0.0,0.218,0.023,-0.047,1.21846967915e-07,0.0,0.0,0.0,1.21846967915e-07,0.0,0.0,0.0,1.21846967915e-07,0.34323275,0.32361945,9.5516771,9e-08,0.0,0.0,0.0,9e-08,0.0,0.0,0.0,9e-08
1532985308142242599,10159,1532985308139881293,base_link,0.0,0.0,0.0,0.0,-1.0,0.0,0.0,0.0,0.0,0.0,0.0,0.0,0.0,0.345,0.015,-0.072,1.21846967915e-07,0.0,0.0,0.0,1.21846967915e-07,0.0,0.0,0.0,1.21846967915e-07,0.3726527,0.28439285,9.0417313,9e-08,0.0,0.0,0.0,9e-08,0.0,0.0,0.0,9e-08
1532985308245421122,10160,1532985308244484418,base_link,0.0,0.0,0.0,0.0,-1.0,0.0,0.0,0.0,0.0,0.0,0.0,0.0,0.0,0.168,0.025,-0.108,1.21846967915e-07,0.0,0.0,0.0,1.21846967915e-07,0.0,0.0,0.0,1.21846967915e-07,0.588399,0.28439285,8.7867584,9e-08,0.0,0.0,0.0,9e-08,0.0,0.0,0.0,9e-08
1532985308334461816,10161,1532985308327020556,base_link,0.0,0.0,0.0,0.0,-1.0,0.0,0.0,0.0,0.0,0.0,0.0,0.0,0.0,0.293,0.031,-0.148,1.21846967915e-07,0.0,0.0,0.0,1.21846967915e-07,0.0,0.0,0.0,1.21846967915e-07,0.38245935,0.20593965,8.79656505,9e-08,0.0,0.0,0.0,9e-08,0.0,0.0,0.0,9e-08
1532985308462535576,10162,1532985308461555140,base_link,0.0,0.0,0.0,0.0,-1.0,0.0,0.0,0.0,0.0,0.0,0.0,0.0,0.0,0.34,0.036,-0.177,1.21846967915e-07,0.0,0.0,0.0,1.21846967915e-07,0.0,0.0,0.0,1.21846967915e-07,0.42168595,0.2745862,6.75678185,9e-08,0.0,0.0,0.0,9e-08,0.0,0.0,0.0,9e-08
1532985308540407230,10163,1532985308539544203,base_link,0.0,0.0,0.0,0.0,-1.0,0.0,0.0,0.0,0.0,0.0,0.0,0.0,0.0,0.414,-0.005,-0.22,1.21846967915e-07,0.0,0.0,0.0,1.21846967915e-07,0.0,0.0,0.0,1.21846967915e-07,0.02941995,0.06864655,8.05125965,9e-08,0.0,0.0,0.0,9e-08,0.0,0.0,0.0,9e-08
1532985308643009335,10164,1532985308642578029,base_link,0.0,0.0,0.0,0.0,-1.0,0.0,0.0,0.0,0.0,0.0,0.0,0.0,0.0,0.443,-0.056,-0.185,1.21846967915e-07,0.0,0.0,0.0,1.21846967915e-07,0.0,0.0,0.0,1.21846967915e-07,0.2549729,-0.0392266,10.44408225,9e-08,0.0,0.0,0.0,9e-08,0.0,0.0,0.0,9e-08
1532985308735010532,10165,1532985308734036398,base_link,0.0,0.0,0.0,0.0,-1.0,0.0,0.0,0.0,0.0,0.0,0.0,0.0,0.0,0.695,-0.092,-0.143,1.21846967915e-07,0.0,0.0,0.0,1.21846967915e-07,0.0,0.0,0.0,1.21846967915e-07,0.3334261,-0.196133,9.50264385,9e-08,0.0,0.0,0.0,9e-08,0.0,0.0,0.0,9e-08
1532985308830434408,10166,1532985308829707887,base_link,0.0,0.0,0.0,0.0,-1.0,0.0,0.0,0.0,0.0,0.0,0.0,0.0,0.0,0.523,-0.098,-0.087,1.21846967915e-07,0.0,0.0,0.0,1.21846967915e-07,0.0,0.0,0.0,1.21846967915e-07,0.14709975,0.5295591,8.93385815,9e-08,0.0,0.0,0.0,9e-08,0.0,0.0,0.0,9e-08
1532985308949713997,10167,1532985308948857400,base_link,0.0,0.0,0.0,0.0,-1.0,0.0,0.0,0.0,0.0,0.0,0.0,0.0,0.0,0.31,-0.15,-0.129,1.21846967915e-07,0.0,0.0,0.0,1.21846967915e-07,0.0,0.0,0.0,1.21846967915e-07,0.14709975,0.4118793,9.4536106,9e-08,0.0,0.0,0.0,9e-08,0.0,0.0,0.0,9e-08
1532985309056413496,10168,1532985309054637337,base_link,0.0,0.0,0.0,0.0,-1.0,0.0,0.0,0.0,0.0,0.0,0.0,0.0,0.0,0.328,-0.182,-0.169,1.21846967915e-07,0.0,0.0,0.0,1.21846967915e-07,0.0,0.0,0.0,1.21846967915e-07,0.12748645,0.18632635,10.85596155,9e-08,0.0,0.0,0.0,9e-08,0.0,0.0,0.0,9e-08
1532985309143712300,10169,1532985309142920162,base_link,0.0,0.0,0.0,0.0,-1.0,0.0,0.0,0.0,0.0,0.0,0.0,0.0,0.0,0.214,-0.252,-0.172,1.21846967915e-07,0.0,0.0,0.0,1.21846967915e-07,0.0,0.0,0.0,1.21846967915e-07,0.22555295,0.0196133,11.99353295,9e-08,0.0,0.0,0.0,9e-08,0.0,0.0,0.0,9e-08
1532985309239945325,10170,1532985309239183003,base_link,0.0,0.0,0.0,0.0,-1.0,0.0,0.0,0.0,0.0,0.0,0.0,0.0,0.0,0.243,-0.23,-0.15,1.21846967915e-07,0.0,0.0,0.0,1.21846967915e-07,0.0,0.0,0.0,1.21846967915e-07,0.0,0.3530394,12.1406327,9e-08,0.0,0.0,0.0,9e-08,0.0,0.0,0.0,9e-08
1532985309365062085,10171,1532985309361720109,base_link,0.0,0.0,0.0,0.0,-1.0,0.0,0.0,0.0,0.0,0.0,0.0,0.0,0.0,0.116,-0.236,-0.196,1.21846967915e-07,0.0,0.0,0.0,1.21846967915e-07,0.0,0.0,0.0,1.21846967915e-07,-0.32361945,0.93163175,12.1798593,9e-08,0.0,0.0,0.0,9e-08,0.0,0.0,0.0,9e-08
1532985309430494934,10172,1532985309429869376,base_link,0.0,0.0,0.0,0.0,-1.0,0.0,0.0,0.0,0.0,0.0,0.0,0.0,0.0,0.239,-0.23,-0.267,1.21846967915e-07,0.0,0.0,0.0,1.21846967915e-07,0.0,0.0,0.0,1.21846967915e-07,-0.4903325,0.7060788,11.3561007,9e-08,0.0,0.0,0.0,9e-08,0.0,0.0,0.0,9e-08
1532985309528657325,10173,1532985309528180334,base_link,0.0,0.0,0.0,0.0,-1.0,0.0,0.0,0.0,0.0,0.0,0.0,0.0,0.0,0.208,-0.236,-0.277,1.21846967915e-07,0.0,0.0,0.0,1.21846967915e-07,0.0,0.0,0.0,1.21846967915e-07,-0.32361945,0.40207265,11.81701325,9e-08,0.0,0.0,0.0,9e-08,0.0,0.0,0.0,9e-08
1532985309696232737,10174,1532985309695443670,base_link,0.0,0.0,0.0,0.0,-1.0,0.0,0.0,0.0,0.0,0.0,0.0,0.0,0.0,-0.012,-0.339,-0.249,1.21846967915e-07,0.0,0.0,0.0,1.21846967915e-07,0.0,0.0,0.0,1.21846967915e-07,-0.32361945,0.48052585,13.18994425,9e-08,0.0,0.0,0.0,9e-08,0.0,0.0,0.0,9e-08
1532985309742310281,10175,1532985309740413035,base_link,0.0,0.0,0.0,0.0,-1.0,0.0,0.0,0.0,0.0,0.0,0.0,0.0,0.0,-0.033,-0.326,-0.23,1.21846967915e-07,0.0,0.0,0.0,1.21846967915e-07,0.0,0.0,0.0,1.21846967915e-07,-0.42168595,0.3726527,12.5917386,9e-08,0.0,0.0,0.0,9e-08,0.0,0.0,0.0,9e-08
1532985309864015900,10176,1532985309862029398,base_link,0.0,0.0,0.0,0.0,-1.0,0.0,0.0,0.0,0.0,0.0,0.0,0.0,0.0,-0.119,-0.324,-0.264,1.21846967915e-07,0.0,0.0,0.0,1.21846967915e-07,0.0,0.0,0.0,1.21846967915e-07,-0.392266,0.53936575,13.7881499,9e-08,0.0,0.0,0.0,9e-08,0.0,0.0,0.0,9e-08
1532985309934407408,10177,1532985309933945485,base_link,0.0,0.0,0.0,0.0,-1.0,0.0,0.0,0.0,0.0,0.0,0.0,0.0,0.0,-0.086,-0.286,-0.276,1.21846967915e-07,0.0,0.0,0.0,1.21846967915e-07,0.0,0.0,0.0,1.21846967915e-07,-0.51975245,0.8237586,13.97447625,9e-08,0.0,0.0,0.0,9e-08,0.0,0.0,0.0,9e-08
1532985310030693162,10178,1532985310029774112,base_link,0.0,0.0,0.0,0.0,-1.0,0.0,0.0,0.0,0.0,0.0,0.0,0.0,0.0,-0.15,-0.281,-0.295,1.21846967915e-07,0.0,0.0,0.0,1.21846967915e-07,0.0,0.0,0.0,1.21846967915e-07,-0.2353596,0.65704555,14.34712895,9e-08,0.0,0.0,0.0,9e-08,0.0,0.0,0.0,9e-08
1532985310141273282,10179,1532985310140820923,base_link,0.0,0.0,0.0,0.0,-1.0,0.0,0.0,0.0,0.0,0.0,0.0,0.0,0.0,-0.051,-0.288,-0.332,1.21846967915e-07,0.0,0.0,0.0,1.21846967915e-07,0.0,0.0,0.0,1.21846967915e-07,-0.30400615,0.40207265,14.3765489,9e-08,0.0,0.0,0.0,9e-08,0.0,0.0,0.0,9e-08
1532985310230871820,10180,1532985310230525225,base_link,0.0,0.0,0.0,0.0,-1.0,0.0,0.0,0.0,0.0,0.0,0.0,0.0,0.0,-0.018,-0.308,-0.306,1.21846967915e-07,0.0,0.0,0.0,1.21846967915e-07,0.0,0.0,0.0,1.21846967915e-07,-0.63743225,0.5491724,13.8862164,9e-08,0.0,0.0,0.0,9e-08,0.0,0.0,0.0,9e-08
1532985310324486498,10181,1532985310324011746,base_link,0.0,0.0,0.0,0.0,-1.0,0.0,0.0,0.0,0.0,0.0,0.0,0.0,0.0,0.025,-0.285,-0.304,1.21846967915e-07,0.0,0.0,0.0,1.21846967915e-07,0.0,0.0,0.0,1.21846967915e-07,-0.59820565,0.4118793,13.4154972,9e-08,0.0,0.0,0.0,9e-08,0.0,0.0,0.0,9e-08
1532985310437255280,10182,1532985310436636598,base_link,0.0,0.0,0.0,0.0,-1.0,0.0,0.0,0.0,0.0,0.0,0.0,0.0,0.0,-0.022,-0.319,-0.277,1.21846967915e-07,0.0,0.0,0.0,1.21846967915e-07,0.0,0.0,0.0,1.21846967915e-07,-0.7060788,0.55897905,13.6508568,9e-08,0.0,0.0,0.0,9e-08,0.0,0.0,0.0,9e-08
1532985310533131977,10183,1532985310531731648,base_link,0.0,0.0,0.0,0.0,-1.0,0.0,0.0,0.0,0.0,0.0,0.0,0.0,0.0,0.0,-0.322,-0.274,1.21846967915e-07,0.0,0.0,0.0,1.21846967915e-07,0.0,0.0,0.0,1.21846967915e-07,-0.63743225,0.30400615,13.9842829,9e-08,0.0,0.0,0.0,9e-08,0.0,0.0,0.0,9e-08
1532985310625787968,10184,1532985310624503928,base_link,0.0,0.0,0.0,0.0,-1.0,0.0,0.0,0.0,0.0,0.0,0.0,0.0,0.0,-0.043,-0.304,-0.233,1.21846967915e-07,0.0,0.0,0.0,1.21846967915e-07,0.0,0.0,0.0,1.21846967915e-07,-0.79433865,0.57859235,13.09187775,9e-08,0.0,0.0,0.0,9e-08,0.0,0.0,0.0,9e-08
1532985310726221077,10185,1532985310725329316,base_link,0.0,0.0,0.0,0.0,-1.0,0.0,0.0,0.0,0.0,0.0,0.0,0.0,0.0,-0.014,-0.27,-0.241,1.21846967915e-07,0.0,0.0,0.0,1.21846967915e-07,0.0,0.0,0.0,1.21846967915e-07,-0.59820565,0.06864655,12.71922505,9e-08,0.0,0.0,0.0,9e-08,0.0,0.0,0.0,9e-08
1532985310830242697,10186,1532985310829486387,base_link,0.0,0.0,0.0,0.0,-1.0,0.0,0.0,0.0,0.0,0.0,0.0,0.0,0.0,-0.087,-0.273,-0.208,1.21846967915e-07,0.0,0.0,0.0,1.21846967915e-07,0.0,0.0,0.0,1.21846967915e-07,-0.59820565,0.28439285,12.71922505,9e-08,0.0,0.0,0.0,9e-08,0.0,0.0,0.0,9e-08
1532985310934498238,10187,1532985310933316315,base_link,0.0,0.0,0.0,0.0,-1.0,0.0,0.0,0.0,0.0,0.0,0.0,0.0,0.0,-0.013,-0.246,-0.215,1.21846967915e-07,0.0,0.0,0.0,1.21846967915e-07,0.0,0.0,0.0,1.21846967915e-07,-0.55897905,0.38245935,11.16977435,9e-08,0.0,0.0,0.0,9e-08,0.0,0.0,0.0,9e-08
1532985311040263778,10188,1532985311039879048,base_link,0.0,0.0,0.0,0.0,-1.0,0.0,0.0,0.0,0.0,0.0,0.0,0.0,0.0,-0.008,-0.221,-0.245,1.21846967915e-07,0.0,0.0,0.0,1.21846967915e-07,0.0,0.0,0.0,1.21846967915e-07,-0.6668522,0.34323275,9.30651085,9e-08,0.0,0.0,0.0,9e-08,0.0,0.0,0.0,9e-08
1532985311125830842,10189,1532985311125259890,base_link,0.0,0.0,0.0,0.0,-1.0,0.0,0.0,0.0,0.0,0.0,0.0,0.0,0.0,-0.203,-0.247,-0.251,1.21846967915e-07,0.0,0.0,0.0,1.21846967915e-07,0.0,0.0,0.0,1.21846967915e-07,-0.53936575,0.46091255,11.8856598,9e-08,0.0,0.0,0.0,9e-08,0.0,0.0,0.0,9e-08
1532985311237270574,10190,1532985311235724519,base_link,0.0,0.0,0.0,0.0,-1.0,0.0,0.0,0.0,0.0,0.0,0.0,0.0,0.0,-0.212,-0.242,-0.239,1.21846967915e-07,0.0,0.0,0.0,1.21846967915e-07,0.0,0.0,0.0,1.21846967915e-07,-0.30400615,0.5491724,14.26867575,9e-08,0.0,0.0,0.0,9e-08,0.0,0.0,0.0,9e-08
1532985311337629848,10191,1532985311332914425,base_link,0.0,0.0,0.0,0.0,-1.0,0.0,0.0,0.0,0.0,0.0,0.0,0.0,0.0,-0.089,-0.19,-0.254,1.21846967915e-07,0.0,0.0,0.0,1.21846967915e-07,0.0,0.0,0.0,1.21846967915e-07,-0.30400615,0.392266,13.1605243,9e-08,0.0,0.0,0.0,9e-08,0.0,0.0,0.0,9e-08
1532985311457583036,10192,1532985311456225252,base_link,0.0,0.0,0.0,0.0,-1.0,0.0,0.0,0.0,0.0,0.0,0.0,0.0,0.0,0.047,-0.21,-0.276,1.21846967915e-07,0.0,0.0,0.0,1.21846967915e-07,0.0,0.0,0.0,1.21846967915e-07,-0.4314926,0.4314926,12.18966595,9e-08,0.0,0.0,0.0,9e-08,0.0,0.0,0.0,9e-08
1532985311560855011,10193,1532985311560133378,base_link,0.0,0.0,0.0,0.0,-1.0,0.0,0.0,0.0,0.0,0.0,0.0,0.0,0.0,-0.076,-0.208,-0.244,1.21846967915e-07,0.0,0.0,0.0,1.21846967915e-07,0.0,0.0,0.0,1.21846967915e-07,-0.28439285,0.3530394,12.1798593,9e-08,0.0,0.0,0.0,9e-08,0.0,0.0,0.0,9e-08
1532985311645804766,10194,1532985311645440639,base_link,0.0,0.0,0.0,0.0,-1.0,0.0,0.0,0.0,0.0,0.0,0.0,0.0,0.0,-0.074,-0.192,-0.233,1.21846967915e-07,0.0,0.0,0.0,1.21846967915e-07,0.0,0.0,0.0,1.21846967915e-07,-0.20593965,0.2353596,11.69933345,9e-08,0.0,0.0,0.0,9e-08,0.0,0.0,0.0,9e-08
1532985311732440187,10195,1532985311731718170,base_link,0.0,0.0,0.0,0.0,-1.0,0.0,0.0,0.0,0.0,0.0,0.0,0.0,0.0,-0.163,-0.21,-0.209,1.21846967915e-07,0.0,0.0,0.0,1.21846967915e-07,0.0,0.0,0.0,1.21846967915e-07,-0.2745862,0.42168595,11.73856005,9e-08,0.0,0.0,0.0,9e-08,0.0,0.0,0.0,9e-08
1532985311823013829,10196,1532985311822151018,base_link,0.0,0.0,0.0,0.0,-1.0,0.0,0.0,0.0,0.0,0.0,0.0,0.0,0.0,-0.148,-0.192,-0.193,1.21846967915e-07,0.0,0.0,0.0,1.21846967915e-07,0.0,0.0,0.0,1.21846967915e-07,-0.0588399,0.6080123,13.15071765,9e-08,0.0,0.0,0.0,9e-08,0.0,0.0,0.0,9e-08
1532985311939221386,10197,1532985311938539710,base_link,0.0,0.0,0.0,0.0,-1.0,0.0,0.0,0.0,0.0,0.0,0.0,0.0,0.0,-0.253,-0.128,-0.197,1.21846967915e-07,0.0,0.0,0.0,1.21846967915e-07,0.0,0.0,0.0,1.21846967915e-07,0.0196133,0.46091255,12.4152189,9e-08,0.0,0.0,0.0,9e-08,0.0,0.0,0.0,9e-08
1532985312046673693,10198,1532985312046342324,base_link,0.0,0.0,0.0,0.0,-1.0,0.0,0.0,0.0,0.0,0.0,0.0,0.0,0.0,-0.363,-0.085,-0.206,1.21846967915e-07,0.0,0.0,0.0,1.21846967915e-07,0.0,0.0,0.0,1.21846967915e-07,-0.10787315,0.3138128,10.22833595,9e-08,0.0,0.0,0.0,9e-08,0.0,0.0,0.0,9e-08
1532985312137484941,10199,1532985312136372112,base_link,0.0,0.0,0.0,0.0,-1.0,0.0,0.0,0.0,0.0,0.0,0.0,0.0,0.0,-0.318,-0.072,-0.21,1.21846967915e-07,0.0,0.0,0.0,1.21846967915e-07,0.0,0.0,0.0,1.21846967915e-07,-0.2157463,0.26477955,9.3359308,9e-08,0.0,0.0,0.0,9e-08,0.0,0.0,0.0,9e-08
1532985312226472506,10200,1532985312226128084,base_link,0.0,0.0,0.0,0.0,-1.0,0.0,0.0,0.0,0.0,0.0,0.0,0.0,0.0,-0.274,-0.084,-0.193,1.21846967915e-07,0.0,0.0,0.0,1.21846967915e-07,0.0,0.0,0.0,1.21846967915e-07,-0.26477955,0.50013915,9.3947707,9e-08,0.0,0.0,0.0,9e-08,0.0,0.0,0.0,9e-08
1532985312324195094,10201,1532985312323149704,base_link,0.0,0.0,0.0,0.0,-1.0,0.0,0.0,0.0,0.0,0.0,0.0,0.0,0.0,-0.239,-0.04,-0.203,1.21846967915e-07,0.0,0.0,0.0,1.21846967915e-07,0.0,0.0,0.0,1.21846967915e-07,-0.22555295,0.3334261,8.629852,9e-08,0.0,0.0,0.0,9e-08,0.0,0.0,0.0,9e-08
1532985312440854417,10202,1532985312440450043,base_link,0.0,0.0,0.0,0.0,-1.0,0.0,0.0,0.0,0.0,0.0,0.0,0.0,0.0,-0.382,-0.011,-0.202,1.21846967915e-07,0.0,0.0,0.0,1.21846967915e-07,0.0,0.0,0.0,1.21846967915e-07,-0.28439285,0.30400615,8.73772515,9e-08,0.0,0.0,0.0,9e-08,0.0,0.0,0.0,9e-08
1532985312556404495,10203,1532985312555742045,base_link,0.0,0.0,0.0,0.0,-1.0,0.0,0.0,0.0,0.0,0.0,0.0,0.0,0.0,-0.446,-0.028,-0.191,1.21846967915e-07,0.0,0.0,0.0,1.21846967915e-07,0.0,0.0,0.0,1.21846967915e-07,-0.2157463,0.48052585,9.87529655,9e-08,0.0,0.0,0.0,9e-08,0.0,0.0,0.0,9e-08
1532985312660931829,10204,1532985312660315190,base_link,0.0,0.0,0.0,0.0,-1.0,0.0,0.0,0.0,0.0,0.0,0.0,0.0,0.0,-0.402,-0.013,-0.181,1.21846967915e-07,0.0,0.0,0.0,1.21846967915e-07,0.0,0.0,0.0,1.21846967915e-07,-0.2353596,0.48052585,10.14988275,9e-08,0.0,0.0,0.0,9e-08,0.0,0.0,0.0,9e-08
1532985312734847407,10205,1532985312732437222,base_link,0.0,0.0,0.0,0.0,-1.0,0.0,0.0,0.0,0.0,0.0,0.0,0.0,0.0,-0.391,0.032,-0.183,1.21846967915e-07,0.0,0.0,0.0,1.21846967915e-07,0.0,0.0,0.0,1.21846967915e-07,-0.1176798,0.46091255,9.36535075,9e-08,0.0,0.0,0.0,9e-08,0.0,0.0,0.0,9e-08
1532985312843384218,10206,1532985312842683954,base_link,0.0,0.0,0.0,0.0,-1.0,0.0,0.0,0.0,0.0,0.0,0.0,0.0,0.0,-0.311,0.055,-0.209,1.21846967915e-07,0.0,0.0,0.0,1.21846967915e-07,0.0,0.0,0.0,1.21846967915e-07,-0.10787315,0.42168595,8.62004535,9e-08,0.0,0.0,0.0,9e-08,0.0,0.0,0.0,9e-08
1532985312962340475,10207,1532985312961304779,base_link,0.0,0.0,0.0,0.0,-1.0,0.0,0.0,0.0,0.0,0.0,0.0,0.0,0.0,-0.232,0.031,-0.224,1.21846967915e-07,0.0,0.0,0.0,1.21846967915e-07,0.0,0.0,0.0,1.21846967915e-07,-0.2549729,0.32361945,8.3944924,9e-08,0.0,0.0,0.0,9e-08,0.0,0.0,0.0,9e-08
1532985313024177198,10208,1532985313023110946,base_link,0.0,0.0,0.0,0.0,-1.0,0.0,0.0,0.0,0.0,0.0,0.0,0.0,0.0,-0.194,0.021,-0.216,1.21846967915e-07,0.0,0.0,0.0,1.21846967915e-07,0.0,0.0,0.0,1.21846967915e-07,-0.02941995,-0.10787315,8.9828914,9e-08,0.0,0.0,0.0,9e-08,0.0,0.0,0.0,9e-08
1532985313153653531,10209,1532985313151767779,base_link,0.0,0.0,0.0,0.0,-1.0,0.0,0.0,0.0,0.0,0.0,0.0,0.0,0.0,-0.053,0.017,-0.165,1.21846967915e-07,0.0,0.0,0.0,1.21846967915e-07,0.0,0.0,0.0,1.21846967915e-07,0.0,-0.38245935,9.16921775,9e-08,0.0,0.0,0.0,9e-08,0.0,0.0,0.0,9e-08
1532985313289807557,10210,1532985313289297033,base_link,0.0,0.0,0.0,0.0,-1.0,0.0,0.0,0.0,0.0,0.0,0.0,0.0,0.0,-0.129,-0.001,-0.022,1.21846967915e-07,0.0,0.0,0.0,1.21846967915e-07,0.0,0.0,0.0,1.21846967915e-07,0.0196133,-0.08825985,9.28689755,9e-08,0.0,0.0,0.0,9e-08,0.0,0.0,0.0,9e-08
1532985313344976875,10211,1532985313344372392,base_link,0.0,0.0,0.0,0.0,-1.0,0.0,0.0,0.0,0.0,0.0,0.0,0.0,0.0,-0.144,-0.007,-0.005,1.21846967915e-07,0.0,0.0,0.0,1.21846967915e-07,0.0,0.0,0.0,1.21846967915e-07,0.1569064,-0.0588399,9.6889702,9e-08,0.0,0.0,0.0,9e-08,0.0,0.0,0.0,9e-08
1532985313430982202,10212,1532985313428208936,base_link,0.0,0.0,0.0,0.0,-1.0,0.0,0.0,0.0,0.0,0.0,0.0,0.0,0.0,-0.168,0.011,0.029,1.21846967915e-07,0.0,0.0,0.0,1.21846967915e-07,0.0,0.0,0.0,1.21846967915e-07,0.1176798,0.3334261,8.5710121,9e-08,0.0,0.0,0.0,9e-08,0.0,0.0,0.0,9e-08
1532985313525004555,10213,1532985313524527430,base_link,0.0,0.0,0.0,0.0,-1.0,0.0,0.0,0.0,0.0,0.0,0.0,0.0,0.0,-0.201,0.052,0.007,1.21846967915e-07,0.0,0.0,0.0,1.21846967915e-07,0.0,0.0,0.0,1.21846967915e-07,-0.04903325,0.5295591,7.30595425,9e-08,0.0,0.0,0.0,9e-08,0.0,0.0,0.0,9e-08
1532985313640859458,10214,1532985313640502046,base_link,0.0,0.0,0.0,0.0,-1.0,0.0,0.0,0.0,0.0,0.0,0.0,0.0,0.0,-0.342,0.047,-0.011,1.21846967915e-07,0.0,0.0,0.0,1.21846967915e-07,0.0,0.0,0.0,1.21846967915e-07,-0.1372931,0.42168595,8.20816605,9e-08,0.0,0.0,0.0,9e-08,0.0,0.0,0.0,9e-08
1532985313751229862,10215,1532985313750391199,base_link,0.0,0.0,0.0,0.0,-1.0,0.0,0.0,0.0,0.0,0.0,0.0,0.0,0.0,-0.303,0.04,-0.025,1.21846967915e-07,0.0,0.0,0.0,1.21846967915e-07,0.0,0.0,0.0,1.21846967915e-07,0.06864655,0.2745862,8.5121722,9e-08,0.0,0.0,0.0,9e-08,0.0,0.0,0.0,9e-08
1532985313840916379,10216,1532985313838959222,base_link,0.0,0.0,0.0,0.0,-1.0,0.0,0.0,0.0,0.0,0.0,0.0,0.0,0.0,-0.305,0.052,-0.021,1.21846967915e-07,0.0,0.0,0.0,1.21846967915e-07,0.0,0.0,0.0,1.21846967915e-07,-0.0980665,0.22555295,7.97280645,9e-08,0.0,0.0,0.0,9e-08,0.0,0.0,0.0,9e-08
1532985313954301394,10217,1532985313953717545,base_link,0.0,0.0,0.0,0.0,-1.0,0.0,0.0,0.0,0.0,0.0,0.0,0.0,0.0,-0.299,0.04,-0.031,1.21846967915e-07,0.0,0.0,0.0,1.21846967915e-07,0.0,0.0,0.0,1.21846967915e-07,0.3138128,0.1765197,9.01231135,9e-08,0.0,0.0,0.0,9e-08,0.0,0.0,0.0,9e-08
1532985314028757370,10218,1532985314024187694,base_link,0.0,0.0,0.0,0.0,-1.0,0.0,0.0,0.0,0.0,0.0,0.0,0.0,0.0,-0.28,0.04,-0.017,1.21846967915e-07,0.0,0.0,0.0,1.21846967915e-07,0.0,0.0,0.0,1.21846967915e-07,0.0980665,0.02941995,8.32584585,9e-08,0.0,0.0,0.0,9e-08,0.0,0.0,0.0,9e-08
1532985314162484467,10219,1532985314161888683,base_link,0.0,0.0,0.0,0.0,-1.0,0.0,0.0,0.0,0.0,0.0,0.0,0.0,0.0,-0.106,0.014,0.006,1.21846967915e-07,0.0,0.0,0.0,1.21846967915e-07,0.0,0.0,0.0,1.21846967915e-07,0.1765197,0.04903325,8.48275225,9e-08,0.0,0.0,0.0,9e-08,0.0,0.0,0.0,9e-08
1532985314265812444,10220,1532985314264529284,base_link,0.0,0.0,0.0,0.0,-1.0,0.0,0.0,0.0,0.0,0.0,0.0,0.0,0.0,-0.145,0.024,0.041,1.21846967915e-07,0.0,0.0,0.0,1.21846967915e-07,0.0,0.0,0.0,1.21846967915e-07,0.2745862,-0.04903325,8.6886919,9e-08,0.0,0.0,0.0,9e-08,0.0,0.0,0.0,9e-08
1532985314322564168,10221,1532985314322073957,base_link,0.0,0.0,0.0,0.0,-1.0,0.0,0.0,0.0,0.0,0.0,0.0,0.0,0.0,-0.115,0.016,0.051,1.21846967915e-07,0.0,0.0,0.0,1.21846967915e-07,0.0,0.0,0.0,1.21846967915e-07,0.3726527,-0.10787315,8.6886919,9e-08,0.0,0.0,0.0,9e-08,0.0,0.0,0.0,9e-08
1532985314460918878,10222,1532985314458854863,base_link,0.0,0.0,0.0,0.0,-1.0,0.0,0.0,0.0,0.0,0.0,0.0,0.0,0.0,-0.031,-0.008,0.093,1.21846967915e-07,0.0,0.0,0.0,1.21846967915e-07,0.0,0.0,0.0,1.21846967915e-07,0.2353596,0.0392266,8.8652116,9e-08,0.0,0.0,0.0,9e-08,0.0,0.0,0.0,9e-08
1532985314521460063,10223,1532985314518870871,base_link,0.0,0.0,0.0,0.0,-1.0,0.0,0.0,0.0,0.0,0.0,0.0,0.0,0.0,-0.007,-0.017,0.106,1.21846967915e-07,0.0,0.0,0.0,1.21846967915e-07,0.0,0.0,0.0,1.21846967915e-07,0.57859235,-0.26477955,9.11037785,9e-08,0.0,0.0,0.0,9e-08,0.0,0.0,0.0,9e-08
1532985314645735950,10224,1532985314644679229,base_link,0.0,0.0,0.0,0.0,-1.0,0.0,0.0,0.0,0.0,0.0,0.0,0.0,0.0,0.08,-0.044,0.141,1.21846967915e-07,0.0,0.0,0.0,1.21846967915e-07,0.0,0.0,0.0,1.21846967915e-07,0.1765197,-0.00980665,9.1201845,9e-08,0.0,0.0,0.0,9e-08,0.0,0.0,0.0,9e-08
1532985314727184512,10225,1532985314726625551,base_link,0.0,0.0,0.0,0.0,-1.0,0.0,0.0,0.0,0.0,0.0,0.0,0.0,0.0,0.055,-0.057,0.145,1.21846967915e-07,0.0,0.0,0.0,1.21846967915e-07,0.0,0.0,0.0,1.21846967915e-07,0.65704555,-0.16671305,9.3555441,9e-08,0.0,0.0,0.0,9e-08,0.0,0.0,0.0,9e-08
1532985314836784737,10226,1532985314836272356,base_link,0.0,0.0,0.0,0.0,-1.0,0.0,0.0,0.0,0.0,0.0,0.0,0.0,0.0,-0.003,-0.055,0.162,1.21846967915e-07,0.0,0.0,0.0,1.21846967915e-07,0.0,0.0,0.0,1.21846967915e-07,0.7256921,-0.0392266,9.67916355,9e-08,0.0,0.0,0.0,9e-08,0.0,0.0,0.0,9e-08
1532985314933365195,10227,1532985314930380073,base_link,0.0,0.0,0.0,0.0,-1.0,0.0,0.0,0.0,0.0,0.0,0.0,0.0,0.0,0.03,-0.079,0.129,1.21846967915e-07,0.0,0.0,0.0,1.21846967915e-07,0.0,0.0,0.0,1.21846967915e-07,0.59820565,0.0588399,10.71866845,9e-08,0.0,0.0,0.0,9e-08,0.0,0.0,0.0,9e-08
1532985315036808693,10228,1532985315034938639,base_link,0.0,0.0,0.0,0.0,-1.0,0.0,0.0,0.0,0.0,0.0,0.0,0.0,0.0,0.004,-0.073,0.134,1.21846967915e-07,0.0,0.0,0.0,1.21846967915e-07,0.0,0.0,0.0,1.21846967915e-07,0.85317855,1.30425152307e-15,10.6500219,9e-08,0.0,0.0,0.0,9e-08,0.0,0.0,0.0,9e-08
1532985315160240566,10229,1532985315159735062,base_link,0.0,0.0,0.0,0.0,-1.0,0.0,0.0,0.0,0.0,0.0,0.0,0.0,0.0,0.052,-0.098,0.133,1.21846967915e-07,0.0,0.0,0.0,1.21846967915e-07,0.0,0.0,0.0,1.21846967915e-07,0.57859235,0.18632635,11.9444997,9e-08,0.0,0.0,0.0,9e-08,0.0,0.0,0.0,9e-08
1532985315242795571,10230,1532985315242289076,base_link,0.0,0.0,0.0,0.0,-1.0,0.0,0.0,0.0,0.0,0.0,0.0,0.0,0.0,0.172,-0.079,0.113,1.21846967915e-07,0.0,0.0,0.0,1.21846967915e-07,0.0,0.0,0.0,1.21846967915e-07,0.8629852,0.42168595,11.6895268,9e-08,0.0,0.0,0.0,9e-08,0.0,0.0,0.0,9e-08
1532985315355361687,10231,1532985315354366675,base_link,0.0,0.0,0.0,0.0,-1.0,0.0,0.0,0.0,0.0,0.0,0.0,0.0,0.0,0.082,-0.064,0.054,1.21846967915e-07,0.0,0.0,0.0,1.21846967915e-07,0.0,0.0,0.0,1.21846967915e-07,0.69627215,0.3334261,11.44436055,9e-08,0.0,0.0,0.0,9e-08,0.0,0.0,0.0,9e-08
1532985315437649944,10232,1532985315437242239,base_link,0.0,0.0,0.0,0.0,-1.0,0.0,0.0,0.0,0.0,0.0,0.0,0.0,0.0,0.05,-0.08,0.022,1.21846967915e-07,0.0,0.0,0.0,1.21846967915e-07,0.0,0.0,0.0,1.21846967915e-07,0.18632635,0.392266,11.3561007,9e-08,0.0,0.0,0.0,9e-08,0.0,0.0,0.0,9e-08
1532985315526766485,10233,1532985315523673509,base_link,0.0,0.0,0.0,0.0,-1.0,0.0,0.0,0.0,0.0,0.0,0.0,0.0,0.0,0.089,-0.067,0.032,1.21846967915e-07,0.0,0.0,0.0,1.21846967915e-07,0.0,0.0,0.0,1.21846967915e-07,0.5491724,0.0196133,10.8069283,9e-08,0.0,0.0,0.0,9e-08,0.0,0.0,0.0,9e-08
1532985315634936244,10234,1532985315632684079,base_link,0.0,0.0,0.0,0.0,-1.0,0.0,0.0,0.0,0.0,0.0,0.0,0.0,0.0,0.036,-0.061,0.033,1.21846967915e-07,0.0,0.0,0.0,1.21846967915e-07,0.0,0.0,0.0,1.21846967915e-07,0.4707192,-0.0784532,10.2185293,9e-08,0.0,0.0,0.0,9e-08,0.0,0.0,0.0,9e-08
1532985315723949931,10235,1532985315723201449,base_link,0.0,0.0,0.0,0.0,-1.0,0.0,0.0,0.0,0.0,0.0,0.0,0.0,0.0,0.097,-0.06,0.053,1.21846967915e-07,0.0,0.0,0.0,1.21846967915e-07,0.0,0.0,0.0,1.21846967915e-07,0.00980665,0.22555295,10.01258965,9e-08,0.0,0.0,0.0,9e-08,0.0,0.0,0.0,9e-08
1532985315851872122,10236,1532985315851096030,base_link,0.0,0.0,0.0,0.0,-1.0,0.0,0.0,0.0,0.0,0.0,0.0,0.0,0.0,0.167,-0.092,0.058,1.21846967915e-07,0.0,0.0,0.0,1.21846967915e-07,0.0,0.0,0.0,1.21846967915e-07,0.08825985,0.2549729,10.50292215,9e-08,0.0,0.0,0.0,9e-08,0.0,0.0,0.0,9e-08
1532985315947357128,10237,1532985315946781082,base_link,0.0,0.0,0.0,0.0,-1.0,0.0,0.0,0.0,0.0,0.0,0.0,0.0,0.0,-0.012,-0.107,0.076,1.21846967915e-07,0.0,0.0,0.0,1.21846967915e-07,0.0,0.0,0.0,1.21846967915e-07,0.4118793,0.32361945,10.95402805,9e-08,0.0,0.0,0.0,9e-08,0.0,0.0,0.0,9e-08
1532985316031666104,10238,1532985316030981636,base_link,0.0,0.0,0.0,0.0,-1.0,0.0,0.0,0.0,0.0,0.0,0.0,0.0,0.0,-0.106,-0.11,0.089,1.21846967915e-07,0.0,0.0,0.0,1.21846967915e-07,0.0,0.0,0.0,1.21846967915e-07,0.2549729,0.77472535,11.3953273,9e-08,0.0,0.0,0.0,9e-08,0.0,0.0,0.0,9e-08
1532985316133875929,10239,1532985316132200222,base_link,0.0,0.0,0.0,0.0,-1.0,0.0,0.0,0.0,0.0,0.0,0.0,0.0,0.0,-0.128,-0.057,0.03,1.21846967915e-07,0.0,0.0,0.0,1.21846967915e-07,0.0,0.0,0.0,1.21846967915e-07,0.5687857,0.53936575,11.375714,9e-08,0.0,0.0,0.0,9e-08,0.0,0.0,0.0,9e-08
1532985316251505280,10240,1532985316249775858,base_link,0.0,0.0,0.0,0.0,-1.0,0.0,0.0,0.0,0.0,0.0,0.0,0.0,0.0,-0.028,-0.041,-0.052,1.21846967915e-07,0.0,0.0,0.0,1.21846967915e-07,0.0,0.0,0.0,1.21846967915e-07,0.392266,0.77472535,11.1599677,9e-08,0.0,0.0,0.0,9e-08,0.0,0.0,0.0,9e-08
1532985316364886480,10241,1532985316364212313,base_link,0.0,0.0,0.0,0.0,-1.0,0.0,0.0,0.0,0.0,0.0,0.0,0.0,0.0,0.141,-0.019,-0.122,1.21846967915e-07,0.0,0.0,0.0,1.21846967915e-07,0.0,0.0,0.0,1.21846967915e-07,0.3334261,0.67665885,10.42446895,9e-08,0.0,0.0,0.0,9e-08,0.0,0.0,0.0,9e-08
1532985316444107989,10242,1532985316443117486,base_link,0.0,0.0,0.0,0.0,-1.0,0.0,0.0,0.0,0.0,0.0,0.0,0.0,0.0,0.196,-0.057,-0.139,1.21846967915e-07,0.0,0.0,0.0,1.21846967915e-07,0.0,0.0,0.0,1.21846967915e-07,0.61781895,0.20593965,12.22889255,9e-08,0.0,0.0,0.0,9e-08,0.0,0.0,0.0,9e-08
1532985316531163951,10243,1532985316529919463,base_link,0.0,0.0,0.0,0.0,-1.0,0.0,0.0,0.0,0.0,0.0,0.0,0.0,0.0,0.247,-0.022,-0.081,1.21846967915e-07,0.0,0.0,0.0,1.21846967915e-07,0.0,0.0,0.0,1.21846967915e-07,0.3334261,0.2941995,10.7480884,9e-08,0.0,0.0,0.0,9e-08,0.0,0.0,0.0,9e-08
1532985316633822207,10244,1532985316629716293,base_link,0.0,0.0,0.0,0.0,-1.0,0.0,0.0,0.0,0.0,0.0,0.0,0.0,0.0,0.193,-0.034,-0.054,1.21846967915e-07,0.0,0.0,0.0,1.21846967915e-07,0.0,0.0,0.0,1.21846967915e-07,0.4707192,-0.06864655,9.7674234,9e-08,0.0,0.0,0.0,9e-08,0.0,0.0,0.0,9e-08
1532985316739416016,10245,1532985316728505856,base_link,0.0,0.0,0.0,0.0,-1.0,0.0,0.0,0.0,0.0,0.0,0.0,0.0,0.0,0.43,-0.012,-0.015,1.21846967915e-07,0.0,0.0,0.0,1.21846967915e-07,0.0,0.0,0.0,1.21846967915e-07,0.24516625,0.1765197,10.03220295,9e-08,0.0,0.0,0.0,9e-08,0.0,0.0,0.0,9e-08
1532985316869132415,10246,1532985316868639515,base_link,0.0,0.0,0.0,0.0,-1.0,0.0,0.0,0.0,0.0,0.0,0.0,0.0,0.0,0.489,-0.032,0.045,1.21846967915e-07,0.0,0.0,0.0,1.21846967915e-07,0.0,0.0,0.0,1.21846967915e-07,0.8237586,-0.10787315,12.01314625,9e-08,0.0,0.0,0.0,9e-08,0.0,0.0,0.0,9e-08
1532985316936041365,10247,1532985316935197832,base_link,0.0,0.0,0.0,0.0,-1.0,0.0,0.0,0.0,0.0,0.0,0.0,0.0,0.0,0.214,-0.031,0.088,1.21846967915e-07,0.0,0.0,0.0,1.21846967915e-07,0.0,0.0,0.0,1.21846967915e-07,0.73549875,-0.14709975,11.58165365,9e-08,0.0,0.0,0.0,9e-08,0.0,0.0,0.0,9e-08
1532985317073850362,10248,1532985317071150776,base_link,0.0,0.0,0.0,0.0,-1.0,0.0,0.0,0.0,0.0,0.0,0.0,0.0,0.0,-0.259,-0.006,0.116,1.21846967915e-07,0.0,0.0,0.0,1.21846967915e-07,0.0,0.0,0.0,1.21846967915e-07,0.57859235,-0.14709975,8.63965865,9e-08,0.0,0.0,0.0,9e-08,0.0,0.0,0.0,9e-08
1532985317127723177,10249,1532985317125543686,base_link,0.0,0.0,0.0,0.0,-1.0,0.0,0.0,0.0,0.0,0.0,0.0,0.0,0.0,-0.285,-0.006,0.14,1.21846967915e-07,0.0,0.0,0.0,1.21846967915e-07,0.0,0.0,0.0,1.21846967915e-07,0.5295591,0.1765197,8.38468575,9e-08,0.0,0.0,0.0,9e-08,0.0,0.0,0.0,9e-08
1532985317214488986,10250,1532985317213883088,base_link,0.0,0.0,0.0,0.0,-1.0,0.0,0.0,0.0,0.0,0.0,0.0,0.0,0.0,-0.164,-0.037,0.104,1.21846967915e-07,0.0,0.0,0.0,1.21846967915e-07,0.0,0.0,0.0,1.21846967915e-07,0.69627215,0.2745862,10.0420096,9e-08,0.0,0.0,0.0,9e-08,0.0,0.0,0.0,9e-08
1532985317325694334,10251,1532985317322350939,base_link,0.0,0.0,0.0,0.0,-1.0,0.0,0.0,0.0,0.0,0.0,0.0,0.0,0.0,-0.017,0.042,0.037,1.21846967915e-07,0.0,0.0,0.0,1.21846967915e-07,0.0,0.0,0.0,1.21846967915e-07,0.6080123,0.50013915,8.67888525,9e-08,0.0,0.0,0.0,9e-08,0.0,0.0,0.0,9e-08
1532985317428968912,10252,1532985317428290712,base_link,0.0,0.0,0.0,0.0,-1.0,0.0,0.0,0.0,0.0,0.0,0.0,0.0,0.0,-0.014,0.04,-0.028,1.21846967915e-07,0.0,0.0,0.0,1.21846967915e-07,0.0,0.0,0.0,1.21846967915e-07,0.57859235,0.3138128,8.28661925,9e-08,0.0,0.0,0.0,9e-08,0.0,0.0,0.0,9e-08
1532985317520022618,10253,1532985317519302028,base_link,0.0,0.0,0.0,0.0,-1.0,0.0,0.0,0.0,0.0,0.0,0.0,0.0,0.0,0.195,0.054,-0.074,1.21846967915e-07,0.0,0.0,0.0,1.21846967915e-07,0.0,0.0,0.0,1.21846967915e-07,0.6668522,0.10787315,7.9041599,9e-08,0.0,0.0,0.0,9e-08,0.0,0.0,0.0,9e-08
1532985317643481918,10254,1532985317640561874,base_link,0.0,0.0,0.0,0.0,-1.0,0.0,0.0,0.0,0.0,0.0,0.0,0.0,0.0,0.158,0.084,-0.075,1.21846967915e-07,0.0,0.0,0.0,1.21846967915e-07,0.0,0.0,0.0,1.21846967915e-07,0.4707192,0.3334261,6.63910205,9e-08,0.0,0.0,0.0,9e-08,0.0,0.0,0.0,9e-08
1532985317705171386,10255,1532985317704502560,base_link,0.0,0.0,0.0,0.0,-1.0,0.0,0.0,0.0,0.0,0.0,0.0,0.0,0.0,0.055,0.034,-0.079,1.21846967915e-07,0.0,0.0,0.0,1.21846967915e-07,0.0,0.0,0.0,1.21846967915e-07,0.3726527,0.50013915,9.50264385,9e-08,0.0,0.0,0.0,9e-08,0.0,0.0,0.0,9e-08
1532985317850991253,10256,1532985317847875898,base_link,0.0,0.0,0.0,0.0,-1.0,0.0,0.0,0.0,0.0,0.0,0.0,0.0,0.0,0.177,0.022,-0.119,1.21846967915e-07,0.0,0.0,0.0,1.21846967915e-07,0.0,0.0,0.0,1.21846967915e-07,0.4118793,0.196133,8.40429905,9e-08,0.0,0.0,0.0,9e-08,0.0,0.0,0.0,9e-08
1532985317929973968,10257,1532985317925942744,base_link,0.0,0.0,0.0,0.0,-1.0,0.0,0.0,0.0,0.0,0.0,0.0,0.0,0.0,0.142,0.032,-0.082,1.21846967915e-07,0.0,0.0,0.0,1.21846967915e-07,0.0,0.0,0.0,1.21846967915e-07,0.9218251,0.0392266,7.9433865,9e-08,0.0,0.0,0.0,9e-08,0.0,0.0,0.0,9e-08
1532985318013027254,10258,1532985318011555935,base_link,0.0,0.0,0.0,0.0,-1.0,0.0,0.0,0.0,0.0,0.0,0.0,0.0,0.0,0.029,0.055,-0.044,1.21846967915e-07,0.0,0.0,0.0,1.21846967915e-07,0.0,0.0,0.0,1.21846967915e-07,0.7256921,0.48052585,8.03164635,9e-08,0.0,0.0,0.0,9e-08,0.0,0.0,0.0,9e-08
1532985318123080484,10259,1532985318120809873,base_link,0.0,0.0,0.0,0.0,-1.0,0.0,0.0,0.0,0.0,0.0,0.0,0.0,0.0,-0.066,0.012,-0.055,1.21846967915e-07,0.0,0.0,0.0,1.21846967915e-07,0.0,0.0,0.0,1.21846967915e-07,0.4707192,0.40207265,8.42391235,9e-08,0.0,0.0,0.0,9e-08,0.0,0.0,0.0,9e-08
1532985318230279311,10260,1532985318229798181,base_link,0.0,0.0,0.0,0.0,-1.0,0.0,0.0,0.0,0.0,0.0,0.0,0.0,0.0,-0.086,0.013,-0.061,1.21846967915e-07,0.0,0.0,0.0,1.21846967915e-07,0.0,0.0,0.0,1.21846967915e-07,0.91201845,1.01842107879e-15,8.3160392,9e-08,0.0,0.0,0.0,9e-08,0.0,0.0,0.0,9e-08
