%time,field.header.seq,field.header.stamp,field.header.frame_id,field.orientation.x,field.orientation.y,field.orientation.z,field.orientation.w,field.orientation_covariance0,field.orientation_covariance1,field.orientation_covariance2,field.orientation_covariance3,field.orientation_covariance4,field.orientation_covariance5,field.orientation_covariance6,field.orientation_covariance7,field.orientation_covariance8,field.angular_velocity.x,field.angular_velocity.y,field.angular_velocity.z,field.angular_velocity_covariance0,field.angular_velocity_covariance1,field.angular_velocity_covariance2,field.angular_velocity_covariance3,field.angular_velocity_covariance4,field.angular_velocity_covariance5,field.angular_velocity_covariance6,field.angular_velocity_covariance7,field.angular_velocity_covariance8,field.linear_acceleration.x,field.linear_acceleration.y,field.linear_acceleration.z,field.linear_acceleration_covariance0,field.linear_acceleration_covariance1,field.linear_acceleration_covariance2,field.linear_acceleration_covariance3,field.linear_acceleration_covariance4,field.linear_acceleration_covariance5,field.linear_acceleration_covariance6,field.linear_acceleration_covariance7,field.linear_acceleration_covariance8
1532985276354921740,2812,1532985276353864510,base_link,0.0425283003741,-0.201223647186,-0.977950952401,0.0362259876066,1.0,0.0,0.0,0.0,1.0,0.0,0.0,0.0,1.0,0.443846970797,-0.0796924382448,-0.107486724854,1.21846967915e-07,0.0,0.0,0.0,1.21846967915e-07,0.0,0.0,0.0,1.21846967915e-07,0.6668522,0.38245935,8.65927195,9e-08,0.0,0.0,0.0,9e-08,0.0,0.0,0.0,9e-08
1532985276709103475,2813,1532985276708833658,base_link,0.0342040496365,-0.271450518526,-0.961843782434,0.00111228262954,1.0,0.0,0.0,0.0,1.0,0.0,0.0,0.0,1.0,0.461463868618,-0.0484782271087,-0.237451165915,1.21846967915e-07,0.0,0.0,0.0,1.21846967915e-07,0.0,0.0,0.0,1.21846967915e-07,2.02997655,0.50013915,11.46397385,9e-08,0.0,0.0,0.0,9e-08,0.0,0.0,0.0,9e-08
1532985277103569037,2814,1532985277103315245,base_link,0.0318900232254,-0.327975441215,-0.942888077021,-0.0487566466353,1.0,0.0,0.0,0.0,1.0,0.0,0.0,0.0,1.0,0.228168830276,-0.16190187633,-0.239901319146,1.21846967915e-07,0.0,0.0,0.0,1.21846967915e-07,0.0,0.0,0.0,1.21846967915e-07,1.0002783,0.2941995,11.4345539,9e-08,0.0,0.0,0.0,9e-08,0.0,0.0,0.0,9e-08
1532985277463609645,2815,1532985277463143517,base_link,0.0119665340817,-0.313039663739,-0.945407676237,-0.0898181312505,1.0,0.0,0.0,0.0,1.0,0.0,0.0,0.0,1.0,-0.205055192113,-0.17532505095,-0.246189489961,1.21846967915e-07,0.0,0.0,0.0,1.21846967915e-07,0.0,0.0,0.0,1.21846967915e-07,-0.55897905,1.1571847,7.649187,9e-08,0.0,0.0,0.0,9e-08,0.0,0.0,0.0,9e-08
1532985277849868402,2816,1532985277849490880,base_link,-0.00550418310544,-0.312916773369,-0.931579108894,-0.184967999355,1.0,0.0,0.0,0.0,1.0,0.0,0.0,0.0,1.0,0.356415838003,-0.25047108531,-0.402486979961,1.21846967915e-07,0.0,0.0,0.0,1.21846967915e-07,0.0,0.0,0.0,1.21846967915e-07,-1.24544455,-0.02941995,12.9251647,9e-08,0.0,0.0,0.0,9e-08,0.0,0.0,0.0,9e-08
1532985278195217601,2817,1532985278194555416,base_link,-0.0406611464753,-0.314299646247,-0.919714349425,-0.231706536375,1.0,0.0,0.0,0.0,1.0,0.0,0.0,0.0,1.0,-0.247937113047,-0.280909359455,-0.0321223847568,1.21846967915e-07,0.0,0.0,0.0,1.21846967915e-07,0.0,0.0,0.0,1.21846967915e-07,-1.32389775,-0.6276256,12.60154525,9e-08,0.0,0.0,0.0,9e-08,0.0,0.0,0.0,9e-08
1532985278562446664,2818,1532985278562081680,base_link,-0.0492961090821,-0.209723759973,-0.939428423257,-0.266570958114,1.0,0.0,0.0,0.0,1.0,0.0,0.0,0.0,1.0,-0.610737204552,-0.0951533988118,-0.193855971098,1.21846967915e-07,0.0,0.0,0.0,1.21846967915e-07,0.0,0.0,0.0,1.21846967915e-07,-1.3533177,1.12776475,11.20900095,9e-08,0.0,0.0,0.0,9e-08,0.0,0.0,0.0,9e-08
1532985278955955488,2819,1532985278955474899,base_link,-0.0157046728934,-0.110943170963,-0.940738456449,-0.320087695209,1.0,0.0,0.0,0.0,1.0,0.0,0.0,0.0,1.0,-0.546631813049,0.0156708005816,-0.215997606516,1.21846967915e-07,0.0,0.0,0.0,1.21846967915e-07,0.0,0.0,0.0,1.21846967915e-07,-1.4317709,0.34323275,10.0420096,9e-08,0.0,0.0,0.0,9e-08,0.0,0.0,0.0,9e-08
1532985279263168490,2820,1532985279262867097,base_link,0.0135227655594,-0.0513455979505,-0.936744126836,-0.345964167539,1.0,0.0,0.0,0.0,1.0,0.0,0.0,0.0,1.0,-0.263838857412,0.0661619976163,-0.0755189731717,1.21846967915e-07,0.0,0.0,0.0,1.21846967915e-07,0.0,0.0,0.0,1.21846967915e-07,-1.3140911,-0.6080123,8.7671451,9e-08,0.0,0.0,0.0,9e-08,0.0,0.0,0.0,9e-08
1532985279520007352,2821,1532985279519511983,base_link,0.0306481811974,-0.0273534993392,-0.93827538519,-0.343441081716,1.0,0.0,0.0,0.0,1.0,0.0,0.0,0.0,1.0,-0.294224470854,0.07854783535,0.0917230993509,1.21846967915e-07,0.0,0.0,0.0,1.21846967915e-07,0.0,0.0,0.0,1.21846967915e-07,-1.36312435,0.04903325,8.7083052,9e-08,0.0,0.0,0.0,9e-08,0.0,0.0,0.0,9e-08
1532985280008158495,2822,1532985280006660259,base_link,0.0795906085169,0.0238340396679,-0.9446760498,-0.317308106615,1.0,0.0,0.0,0.0,1.0,0.0,0.0,0.0,1.0,-0.248012632132,0.178721651435,0.079392619431,1.21846967915e-07,0.0,0.0,0.0,1.21846967915e-07,0.0,0.0,0.0,1.21846967915e-07,-1.3925443,-0.28439285,7.0411747,9e-08,0.0,0.0,0.0,9e-08,0.0,0.0,0.0,9e-08
1532985280368300706,2823,1532985280368019177,base_link,0.120140538871,0.0491374877354,-0.944728200106,-0.301065418378,1.0,0.0,0.0,0.0,1.0,0.0,0.0,0.0,1.0,-0.0271101277322,0.127802431583,0.0786714181304,1.21846967915e-07,0.0,0.0,0.0,1.21846967915e-07,0.0,0.0,0.0,1.21846967915e-07,-1.4317709,-0.04903325,6.8450417,9e-08,0.0,0.0,0.0,9e-08,0.0,0.0,0.0,9e-08
1532985280727693208,2824,1532985280726907831,base_link,0.152925312324,0.0539991642389,-0.942567409324,-0.292001058206,1.0,0.0,0.0,0.0,1.0,0.0,0.0,0.0,1.0,0.0558713153005,0.157245829701,0.0281463824213,1.21846967915e-07,0.0,0.0,0.0,1.21846967915e-07,0.0,0.0,0.0,1.21846967915e-07,-1.4906108,0.1176798,7.060788,9e-08,0.0,0.0,0.0,9e-08,0.0,0.0,0.0,9e-08
1532985281111941399,2825,1532985281111425586,base_link,0.16658769958,0.0292361636707,-0.939561104012,-0.297688960007,1.0,0.0,0.0,0.0,1.0,0.0,0.0,0.0,1.0,0.179705917835,0.0567938238382,0.00589137524366,1.21846967915e-07,0.0,0.0,0.0,1.21846967915e-07,0.0,0.0,0.0,1.21846967915e-07,-1.569064,-0.0392266,5.7859235,9e-08,0.0,0.0,0.0,9e-08,0.0,0.0,0.0,9e-08
1532985281502805641,2826,1532985281497260929,base_link,0.158603525275,-0.0257126801627,-0.941528339361,-0.296155644941,1.0,0.0,0.0,0.0,1.0,0.0,0.0,0.0,1.0,0.217205047607,0.0104284826666,0.165522754192,1.21846967915e-07,0.0,0.0,0.0,1.21846967915e-07,0.0,0.0,0.0,1.21846967915e-07,-1.69655045,0.0196133,7.56092715,9e-08,0.0,0.0,0.0,9e-08,0.0,0.0,0.0,9e-08
1532985281816714360,2827,1532985281816457301,base_link,0.144508596402,-0.0486155384765,-0.945333142546,-0.28826904896,1.0,0.0,0.0,0.0,1.0,0.0,0.0,0.0,1.0,0.193530157208,-0.0670586526394,0.0859254822135,1.21846967915e-07,0.0,0.0,0.0,1.21846967915e-07,0.0,0.0,0.0,1.21846967915e-07,-1.7455837,0.1372931,10.9442214,9e-08,0.0,0.0,0.0,9e-08,0.0,0.0,0.0,9e-08
1532985282122849752,2828,1532985282121953529,base_link,0.130115673885,-0.0598258854028,-0.943388483738,-0.299180453231,1.0,0.0,0.0,0.0,1.0,0.0,0.0,0.0,1.0,0.0475672334433,-0.0955591276288,-0.0522585771978,1.21846967915e-07,0.0,0.0,0.0,1.21846967915e-07,0.0,0.0,0.0,1.21846967915e-07,-1.73577705,-0.16671305,9.52225715,9e-08,0.0,0.0,0.0,9e-08,0.0,0.0,0.0,9e-08
1532985282362923871,2829,1532985282362512659,base_link,0.117929429963,-0.0635158817132,-0.941622483889,-0.308877775427,1.0,0.0,0.0,0.0,1.0,0.0,0.0,0.0,1.0,0.0543265491724,-0.110184550285,-0.032956674695,1.21846967915e-07,0.0,0.0,0.0,1.21846967915e-07,0.0,0.0,0.0,1.21846967915e-07,-1.8044236,0.22555295,10.05181625,9e-08,0.0,0.0,0.0,9e-08,0.0,0.0,0.0,9e-08
1532985282808059703,2830,1532985282807781755,base_link,0.0897497451459,-0.0776809492696,-0.941003493865,-0.316896004867,1.0,0.0,0.0,0.0,1.0,0.0,0.0,0.0,1.0,0.0813645124435,-0.0926959961653,0.0783680230379,1.21846967915e-07,0.0,0.0,0.0,1.21846967915e-07,0.0,0.0,0.0,1.21846967915e-07,-1.6867438,-0.10787315,13.0624578,9e-08,0.0,0.0,0.0,9e-08,0.0,0.0,0.0,9e-08
1532985283173581941,2831,1532985283172930524,base_link,0.0755861788267,-0.076120484918,-0.941907254848,-0.318281517858,1.0,0.0,0.0,0.0,1.0,0.0,0.0,0.0,1.0,-0.0331824794412,-0.0686412975192,-0.031194543466,1.21846967915e-07,0.0,0.0,0.0,1.21846967915e-07,0.0,0.0,0.0,1.21846967915e-07,-1.71616375,0.12748645,10.8265416,9e-08,0.0,0.0,0.0,9e-08,0.0,0.0,0.0,9e-08
1532985283548635992,2832,1532985283548398221,base_link,0.066083612504,-0.0707430116537,-0.935663834265,-0.33935464003,1.0,0.0,0.0,0.0,1.0,0.0,0.0,0.0,1.0,-0.0461903400719,-0.0517578981817,-0.142669692636,1.21846967915e-07,0.0,0.0,0.0,1.21846967915e-07,0.0,0.0,0.0,1.21846967915e-07,-1.6867438,-0.2157463,11.60126695,9e-08,0.0,0.0,0.0,9e-08,0.0,0.0,0.0,9e-08
1532985283849382657,2833,1532985283848970100,base_link,0.0504988279245,-0.103851181831,-0.925667127035,-0.36028484611,1.0,0.0,0.0,0.0,1.0,0.0,0.0,0.0,1.0,0.597688794136,-0.027510099113,-0.0640702918172,1.21846967915e-07,0.0,0.0,0.0,1.21846967915e-07,0.0,0.0,0.0,1.21846967915e-07,-1.569064,0.2549729,11.4737805,9e-08,0.0,0.0,0.0,9e-08,0.0,0.0,0.0,9e-08
1532985284171028057,2834,1532985284170509551,base_link,0.0273513254262,-0.157758557587,-0.913771507059,-0.373344044271,1.0,0.0,0.0,0.0,1.0,0.0,0.0,0.0,1.0,0.309045374393,-0.0476240888238,-0.111020773649,1.21846967915e-07,0.0,0.0,0.0,1.21846967915e-07,0.0,0.0,0.0,1.21846967915e-07,-1.765197,0.2745862,10.787315,9e-08,0.0,0.0,0.0,9e-08,0.0,0.0,0.0,9e-08
1532985284518263301,2835,1532985284507110004,base_link,-0.0117332267367,-0.231453571168,-0.881054390608,-0.412352684695,1.0,0.0,0.0,0.0,1.0,0.0,0.0,0.0,1.0,0.52571028471,-0.104371041059,-0.261577904224,1.21846967915e-07,0.0,0.0,0.0,1.21846967915e-07,0.0,0.0,0.0,1.21846967915e-07,-1.6671305,0.4903325,9.7281968,9e-08,0.0,0.0,0.0,9e-08,0.0,0.0,0.0,9e-08
1532985284916917439,2836,1532985284911708229,base_link,-0.0559300673392,-0.30017740508,-0.823297800693,-0.47848310777,1.0,0.0,0.0,0.0,1.0,0.0,0.0,0.0,1.0,0.196482598782,-0.178268194199,-0.362935811281,1.21846967915e-07,0.0,0.0,0.0,1.21846967915e-07,0.0,0.0,0.0,1.21846967915e-07,-1.569064,0.6472389,8.63965865,9e-08,0.0,0.0,0.0,9e-08,0.0,0.0,0.0,9e-08
1532985285384215257,2837,1532985285383800585,base_link,-0.105589236283,-0.32745124229,-0.754855140407,-0.558408733909,1.0,0.0,0.0,0.0,1.0,0.0,0.0,0.0,1.0,0.304978221655,-0.293955117464,-0.279425263405,1.21846967915e-07,0.0,0.0,0.0,1.21846967915e-07,0.0,0.0,0.0,1.21846967915e-07,-1.63771055,0.00980665,11.0815145,9e-08,0.0,0.0,0.0,9e-08,0.0,0.0,0.0,9e-08
1532985285765500015,2838,1532985285762167415,base_link,-0.158640116447,-0.328293118726,-0.704745609735,-0.60859721262,1.0,0.0,0.0,0.0,1.0,0.0,0.0,0.0,1.0,-0.0453316494823,-0.313279658556,-0.253120720387,1.21846967915e-07,0.0,0.0,0.0,1.21846967915e-07,0.0,0.0,0.0,1.21846967915e-07,-1.569064,0.34323275,11.89546645,9e-08,0.0,0.0,0.0,9e-08,0.0,0.0,0.0,9e-08
1532985286073542848,2839,1532985286073166786,base_link,-0.173758835927,-0.300393929747,-0.670231426738,-0.656019198288,1.0,0.0,0.0,0.0,1.0,0.0,0.0,0.0,1.0,6.55297189951e-05,-0.302166938782,-0.30844181776,1.21846967915e-07,0.0,0.0,0.0,1.21846967915e-07,0.0,0.0,0.0,1.21846967915e-07,-1.5102241,0.89240515,13.05265115,9e-08,0.0,0.0,0.0,9e-08,0.0,0.0,0.0,9e-08
1532985286404018281,2840,1532985286403632654,base_link,-0.222322591856,-0.303032266589,-0.600954153887,-0.705406418656,1.0,0.0,0.0,0.0,1.0,0.0,0.0,0.0,1.0,0.474312454462,-0.369485259056,-0.348106592894,1.21846967915e-07,0.0,0.0,0.0,1.21846967915e-07,0.0,0.0,0.0,1.21846967915e-07,-1.30428445,-0.1176798,14.19022255,9e-08,0.0,0.0,0.0,9e-08,0.0,0.0,0.0,9e-08
1532985286903193486,2841,1532985286900224620,base_link,-0.31132057766,-0.269303562723,-0.523912473309,-0.745701555142,1.0,0.0,0.0,0.0,1.0,0.0,0.0,0.0,1.0,0.0345094129443,-0.452403724194,-0.206107124686,1.21846967915e-07,0.0,0.0,0.0,1.21846967915e-07,0.0,0.0,0.0,1.21846967915e-07,-0.85317855,1.3533177,13.8862164,9e-08,0.0,0.0,0.0,9e-08,0.0,0.0,0.0,9e-08
1532985287209599302,2842,1532985287208886777,base_link,-0.312860393382,-0.23128665268,-0.472120962449,-0.791028858741,1.0,0.0,0.0,0.0,1.0,0.0,0.0,0.0,1.0,-0.248272031546,-0.392431229353,-0.439932912588,1.21846967915e-07,0.0,0.0,0.0,1.21846967915e-07,0.0,0.0,0.0,1.21846967915e-07,-0.30400615,1.04931155,13.7096967,9e-08,0.0,0.0,0.0,9e-08,0.0,0.0,0.0,9e-08
1532985287655855051,2843,1532985287655596771,base_link,-0.336439573354,-0.184096714535,-0.354248818766,-0.852891896773,1.0,0.0,0.0,0.0,1.0,0.0,0.0,0.0,1.0,-0.0286713112146,-0.490629583597,-0.385794848204,1.21846967915e-07,0.0,0.0,0.0,1.21846967915e-07,0.0,0.0,0.0,1.21846967915e-07,-0.1176798,0.6080123,15.30818065,9e-08,0.0,0.0,0.0,9e-08,0.0,0.0,0.0,9e-08
1532985288079298615,2844,1532985288078800607,base_link,-0.357497890007,-0.108482079875,-0.259994097657,-0.890409998916,1.0,0.0,0.0,0.0,1.0,0.0,0.0,0.0,1.0,-0.0361316725612,-0.509512066841,-0.249254986644,1.21846967915e-07,0.0,0.0,0.0,1.21846967915e-07,0.0,0.0,0.0,1.21846967915e-07,0.34323275,0.61781895,16.81840475,9e-08,0.0,0.0,0.0,9e-08,0.0,0.0,0.0,9e-08
1532985288459937722,2845,1532985288459116591,base_link,-0.36917511903,-0.0520127714685,-0.181399064068,-0.909999331125,1.0,0.0,0.0,0.0,1.0,0.0,0.0,0.0,1.0,-0.0725999176502,-0.42777967453,-0.323339939117,1.21846967915e-07,0.0,0.0,0.0,1.21846967915e-07,0.0,0.0,0.0,1.21846967915e-07,0.2549729,0.79433865,14.0823494,9e-08,0.0,0.0,0.0,9e-08,0.0,0.0,0.0,9e-08
1532985289003424803,2846,1532985289003106734,base_link,-0.361931328094,0.00728478859924,-0.0531085571472,-0.930662197984,1.0,0.0,0.0,0.0,1.0,0.0,0.0,0.0,1.0,-0.0853615999222,-0.376206845045,-0.385288596153,1.21846967915e-07,0.0,0.0,0.0,1.21846967915e-07,0.0,0.0,0.0,1.21846967915e-07,0.71588545,0.6472389,13.89602305,9e-08,0.0,0.0,0.0,9e-08,0.0,0.0,0.0,9e-08
1532985289409164357,2847,1532985289408902397,base_link,-0.374449197624,0.0540688324279,0.0316101073356,-0.92512980758,1.0,0.0,0.0,0.0,1.0,0.0,0.0,0.0,1.0,0.0919175893068,-0.381691485643,-0.289970576763,1.21846967915e-07,0.0,0.0,0.0,1.21846967915e-07,0.0,0.0,0.0,1.21846967915e-07,1.30428445,0.34323275,14.13138265,9e-08,0.0,0.0,0.0,9e-08,0.0,0.0,0.0,9e-08
1532985289902066004,2848,1532985289901813704,base_link,-0.380383789363,0.112639962987,0.137562921251,-0.907577464586,1.0,0.0,0.0,0.0,1.0,0.0,0.0,0.0,1.0,0.0551177151501,-0.373407751322,-0.375658333302,1.21846967915e-07,0.0,0.0,0.0,1.21846967915e-07,0.0,0.0,0.0,1.21846967915e-07,1.46119085,0.97085835,14.66094175,9e-08,0.0,0.0,0.0,9e-08,0.0,0.0,0.0,9e-08
1532985290346928480,2849,1532985290346456156,base_link,-0.323178365305,0.133198353055,0.25469242875,-0.901635020216,1.0,0.0,0.0,0.0,1.0,0.0,0.0,0.0,1.0,-0.311429411173,-0.369986176491,-0.384894043207,1.21846967915e-07,0.0,0.0,0.0,1.21846967915e-07,0.0,0.0,0.0,1.21846967915e-07,1.01008495,0.588399,14.6511351,9e-08,0.0,0.0,0.0,9e-08,0.0,0.0,0.0,9e-08
1532985290629549850,2850,1532985290629186642,base_link,-0.267716388582,0.14690986718,0.317173261983,-0.89785664117,1.0,0.0,0.0,0.0,1.0,0.0,0.0,0.0,1.0,-0.47115701437,-0.320367634296,-0.276763558388,1.21846967915e-07,0.0,0.0,0.0,1.21846967915e-07,0.0,0.0,0.0,1.21846967915e-07,0.57859235,0.3334261,14.2000292,9e-08,0.0,0.0,0.0,9e-08,0.0,0.0,0.0,9e-08
1532985291142810886,2851,1532985291142347294,base_link,-0.101243039311,0.117520756214,0.39658992676,-0.90479563927,1.0,0.0,0.0,0.0,1.0,0.0,0.0,0.0,1.0,-0.66896802187,-0.0684187039733,-0.164949864149,1.21846967915e-07,0.0,0.0,0.0,1.21846967915e-07,0.0,0.0,0.0,1.21846967915e-07,-0.00980665,0.53936575,12.20927925,9e-08,0.0,0.0,0.0,9e-08,0.0,0.0,0.0,9e-08
1532985291567752892,2852,1532985291562014258,base_link,0.00293289005682,0.0624945809026,0.429601120167,-0.900848879149,1.0,0.0,0.0,0.0,1.0,0.0,0.0,0.0,1.0,-0.56340098381,0.0557881444693,-0.0549202226102,1.21846967915e-07,0.0,0.0,0.0,1.21846967915e-07,0.0,0.0,0.0,1.21846967915e-07,0.53936575,-0.04903325,9.5712904,9e-08,0.0,0.0,0.0,9e-08,0.0,0.0,0.0,9e-08
1532985291888780765,2853,1532985291888403576,base_link,0.0674495757642,0.0172117531134,0.426387306322,-0.901858179145,1.0,0.0,0.0,0.0,1.0,0.0,0.0,0.0,1.0,-0.366767287254,0.110210224986,0.112449467182,1.21846967915e-07,0.0,0.0,0.0,1.21846967915e-07,0.0,0.0,0.0,1.21846967915e-07,1.04931155,0.08825985,9.5909037,9e-08,0.0,0.0,0.0,9e-08,0.0,0.0,0.0,9e-08
1532985292299355057,2854,1532985292298629692,base_link,0.12707229207,-0.0382396977972,0.402729734219,-0.905648452368,1.0,0.0,0.0,0.0,1.0,0.0,0.0,0.0,1.0,-0.301009863615,0.107809364796,0.122707158327,1.21846967915e-07,0.0,0.0,0.0,1.21846967915e-07,0.0,0.0,0.0,1.21846967915e-07,1.44157755,-0.06864655,8.2571993,9e-08,0.0,0.0,0.0,9e-08,0.0,0.0,0.0,9e-08
1532985292674588087,2855,1532985292667856922,base_link,0.141695695644,-0.0674190987221,0.378739743782,-0.912103722963,1.0,0.0,0.0,0.0,1.0,0.0,0.0,0.0,1.0,0.0897814929485,0.0974131673574,0.149710863829,1.21846967915e-07,0.0,0.0,0.0,1.21846967915e-07,0.0,0.0,0.0,1.21846967915e-07,1.81423025,0.04903325,7.0215614,9e-08,0.0,0.0,0.0,9e-08,0.0,0.0,0.0,9e-08
1532985293135921487,2856,1532985293135529836,base_link,0.150157179603,-0.0791213289427,0.358678476672,-0.917901076964,1.0,0.0,0.0,0.0,1.0,0.0,0.0,0.0,1.0,-0.125722646713,0.00544010102749,0.0795399397612,1.21846967915e-07,0.0,0.0,0.0,1.21846967915e-07,0.0,0.0,0.0,1.21846967915e-07,1.75539035,-0.12748645,9.63993695,9e-08,0.0,0.0,0.0,9e-08,0.0,0.0,0.0,9e-08
1532985293563909387,2857,1532985293563204013,base_link,0.160849997571,-0.066693979905,0.321034058273,-0.930922297915,1.0,0.0,0.0,0.0,1.0,0.0,0.0,0.0,1.0,0.0645680949092,-0.158528700471,0.164754599333,1.21846967915e-07,0.0,0.0,0.0,1.21846967915e-07,0.0,0.0,0.0,1.21846967915e-07,1.372931,-0.10787315,11.2384209,9e-08,0.0,0.0,0.0,9e-08,0.0,0.0,0.0,9e-08
1532985293823083482,2858,1532985293822634026,base_link,0.158005101049,-0.0497503582151,0.294378316074,-0.941222979387,1.0,0.0,0.0,0.0,1.0,0.0,0.0,0.0,1.0,0.132096454501,-0.16145311296,0.193326443434,1.21846967915e-07,0.0,0.0,0.0,1.21846967915e-07,0.0,0.0,0.0,1.21846967915e-07,0.81395195,0.0588399,11.79739995,9e-08,0.0,0.0,0.0,9e-08,0.0,0.0,0.0,9e-08
1532985294284412730,2859,1532985294284045838,base_link,0.0672900543972,0.00698024899134,0.248588645821,-0.966243763174,1.0,0.0,0.0,0.0,1.0,0.0,0.0,0.0,1.0,0.658344686031,-0.0897317901254,0.145217522979,1.21846967915e-07,0.0,0.0,0.0,1.21846967915e-07,0.0,0.0,0.0,1.21846967915e-07,0.5295591,0.40207265,12.28773245,9e-08,0.0,0.0,0.0,9e-08,0.0,0.0,0.0,9e-08
1532985294657725687,2860,1532985294657298271,base_link,-0.0214690720468,0.0373124305055,0.234133295578,-0.971250977542,1.0,0.0,0.0,0.0,1.0,0.0,0.0,0.0,1.0,0.476579785347,-0.0123384930193,-0.0440075583756,1.21846967915e-07,0.0,0.0,0.0,1.21846967915e-07,0.0,0.0,0.0,1.21846967915e-07,0.73549875,0.44129925,9.6693569,9e-08,0.0,0.0,0.0,9e-08,0.0,0.0,0.0,9e-08
1532985295069232123,2861,1532985295068485510,base_link,-0.122617242174,0.0548881060861,0.250352273293,-0.958788843797,1.0,0.0,0.0,0.0,1.0,0.0,0.0,0.0,1.0,0.611965715885,0.0598339065909,-0.15925000608,1.21846967915e-07,0.0,0.0,0.0,1.21846967915e-07,0.0,0.0,0.0,1.21846967915e-07,0.87279185,-0.0784532,8.87501825,9e-08,0.0,0.0,0.0,9e-08,0.0,0.0,0.0,9e-08
1532985295358236926,2862,1532985295357503428,base_link,-0.206106770998,0.0681958306578,0.26014802003,-0.940846605619,1.0,0.0,0.0,0.0,1.0,0.0,0.0,0.0,1.0,0.42695876956,0.0239319950342,-0.118168219924,1.21846967915e-07,0.0,0.0,0.0,1.21846967915e-07,0.0,0.0,0.0,1.21846967915e-07,0.8237586,0.3726527,8.825985,9e-08,0.0,0.0,0.0,9e-08,0.0,0.0,0.0,9e-08
1532985295753723761,2863,1532985295752438469,base_link,-0.252747668191,0.0793585033475,0.283087823486,-0.921782039511,1.0,0.0,0.0,0.0,1.0,0.0,0.0,0.0,1.0,0.223241075873,-0.035449296236,-0.210722133517,1.21846967915e-07,0.0,0.0,0.0,1.21846967915e-07,0.0,0.0,0.0,1.21846967915e-07,1.2356379,0.67665885,9.218251,9e-08,0.0,0.0,0.0,9e-08,0.0,0.0,0.0,9e-08
1532985296083555677,2864,1532985296081819833,base_link,-0.284779929254,0.0920873646386,0.31975017328,-0.89898839584,1.0,0.0,0.0,0.0,1.0,0.0,0.0,0.0,1.0,0.063377968967,-0.166229248047,-0.252870649099,1.21846967915e-07,0.0,0.0,0.0,1.21846967915e-07,0.0,0.0,0.0,1.21846967915e-07,1.2552512,0.5687857,11.18938765,9e-08,0.0,0.0,0.0,9e-08,0.0,0.0,0.0,9e-08
1532985296451021557,2865,1532985296450634733,base_link,-0.291167896251,0.113546027759,0.368731324173,-0.875423192717,1.0,0.0,0.0,0.0,1.0,0.0,0.0,0.0,1.0,0.0735686570406,-0.239573255181,-0.264269202948,1.21846967915e-07,0.0,0.0,0.0,1.21846967915e-07,0.0,0.0,0.0,1.21846967915e-07,1.20621795,0.51975245,8.48275225,9e-08,0.0,0.0,0.0,9e-08,0.0,0.0,0.0,9e-08
1532985296857804119,2866,1532985296855700996,base_link,-0.293785519419,0.149607631732,0.427736844159,-0.841634610301,1.0,0.0,0.0,0.0,1.0,0.0,0.0,0.0,1.0,0.13210567832,-0.291975438595,-0.323851406574,1.21846967915e-07,0.0,0.0,0.0,1.21846967915e-07,0.0,0.0,0.0,1.21846967915e-07,1.01008495,0.08825985,12.11121275,9e-08,0.0,0.0,0.0,9e-08,0.0,0.0,0.0,9e-08
1532985297181276995,2867,1532985297181079680,base_link,-0.296034140064,0.188531145734,0.475984555134,-0.806386072721,1.0,0.0,0.0,0.0,1.0,0.0,0.0,0.0,1.0,-0.0622746869922,-0.269203424454,-0.291157305241,1.21846967915e-07,0.0,0.0,0.0,1.21846967915e-07,0.0,0.0,0.0,1.21846967915e-07,0.7256921,0.784532,11.79739995,9e-08,0.0,0.0,0.0,9e-08,0.0,0.0,0.0,9e-08
1532985297607223617,2868,1532985297604068683,base_link,-0.270723770213,0.214667044858,0.553803772653,-0.757580412556,1.0,0.0,0.0,0.0,1.0,0.0,0.0,0.0,1.0,-0.101249858737,-0.296849697828,-0.346076399088,1.21846967915e-07,0.0,0.0,0.0,1.21846967915e-07,0.0,0.0,0.0,1.21846967915e-07,0.42168595,0.4118793,14.60210185,9e-08,0.0,0.0,0.0,9e-08,0.0,0.0,0.0,9e-08
1532985297947819422,2869,1532985297947547602,base_link,-0.229883580149,0.234350463316,0.614527269875,-0.71734903255,1.0,0.0,0.0,0.0,1.0,0.0,0.0,0.0,1.0,-0.0627788007259,-0.341203480959,-0.292949527502,1.21846967915e-07,0.0,0.0,0.0,1.21846967915e-07,0.0,0.0,0.0,1.21846967915e-07,-0.06864655,0.32361945,15.50431365,9e-08,0.0,0.0,0.0,9e-08,0.0,0.0,0.0,9e-08
1532985298360022034,2870,1532985298359596308,base_link,-0.149054589795,0.223005098525,0.666927575595,-0.695168371119,1.0,0.0,0.0,0.0,1.0,0.0,0.0,0.0,1.0,-0.488119632006,-0.223601579666,-0.209040388465,1.21846967915e-07,0.0,0.0,0.0,1.21846967915e-07,0.0,0.0,0.0,1.21846967915e-07,-0.48052585,0.69627215,13.7096967,9e-08,0.0,0.0,0.0,9e-08,0.0,0.0,0.0,9e-08
1532985298835348754,2871,1532985298834931153,base_link,0.0509940573366,-0.144209458062,-0.734459528449,0.661190168856,1.0,0.0,0.0,0.0,1.0,0.0,0.0,0.0,1.0,-0.4821857512,-0.0440586283803,-0.212033823133,1.21846967915e-07,0.0,0.0,0.0,1.21846967915e-07,0.0,0.0,0.0,1.21846967915e-07,-0.40207265,0.1765197,12.54270535,9e-08,0.0,0.0,0.0,9e-08,0.0,0.0,0.0,9e-08
1532985299258767247,2872,1532985299257797906,base_link,0.00386787454219,-0.0856970165255,-0.752641294654,0.652818613772,1.0,0.0,0.0,0.0,1.0,0.0,0.0,0.0,1.0,-0.29046857357,0.106212712824,-0.00321762752719,1.21846967915e-07,0.0,0.0,0.0,1.21846967915e-07,0.0,0.0,0.0,1.21846967915e-07,-0.0784532,-0.06864655,7.63938035,9e-08,0.0,0.0,0.0,9e-08,0.0,0.0,0.0,9e-08
1532985299602579292,2873,1532985299602335557,base_link,-0.0195449742317,-0.0316272876303,-0.749724791547,0.660704507022,1.0,0.0,0.0,0.0,1.0,0.0,0.0,0.0,1.0,-0.283537834883,0.18555624783,0.0872556194663,1.21846967915e-07,0.0,0.0,0.0,1.21846967915e-07,0.0,0.0,0.0,1.21846967915e-07,0.588399,0.0784532,8.89463155,9e-08,0.0,0.0,0.0,9e-08,0.0,0.0,0.0,9e-08
1532985300052944057,2874,1532985300052287996,base_link,-0.0153399740381,0.0553257292047,-0.749450739662,0.659566022248,1.0,0.0,0.0,0.0,1.0,0.0,0.0,0.0,1.0,-0.124946415424,0.321451842785,-0.159873485565,1.21846967915e-07,0.0,0.0,0.0,1.21846967915e-07,0.0,0.0,0.0,1.21846967915e-07,0.5687857,0.40207265,5.099458,9e-08,0.0,0.0,0.0,9e-08,0.0,0.0,0.0,9e-08
1532985300466719318,2875,1532985300466471744,base_link,0.017733986964,0.0772608002088,-0.754721159219,0.651239008571,1.0,0.0,0.0,0.0,1.0,0.0,0.0,0.0,1.0,0.239090144634,0.138294279575,0.120184794068,1.21846967915e-07,0.0,0.0,0.0,1.21846967915e-07,0.0,0.0,0.0,1.21846967915e-07,0.93163175,-0.588399,6.2566427,9e-08,0.0,0.0,0.0,9e-08,0.0,0.0,0.0,9e-08
1532985300749692491,2876,1532985300749243632,base_link,0.0426577496268,0.0699468944623,-0.73344136632,0.674797384792,1.0,0.0,0.0,0.0,1.0,0.0,0.0,0.0,1.0,0.011097388342,0.0422294959426,0.219992086291,1.21846967915e-07,0.0,0.0,0.0,1.21846967915e-07,0.0,0.0,0.0,1.21846967915e-07,1.10815145,0.3138128,7.4922806,9e-08,0.0,0.0,0.0,9e-08,0.0,0.0,0.0,9e-08
1532985301074670079,2877,1532985301074369272,base_link,0.0369776485461,0.0730914624875,-0.717493509751,0.691732141139,1.0,0.0,0.0,0.0,1.0,0.0,0.0,0.0,1.0,-0.0692279860377,-0.0783874094486,0.0043080560863,1.21846967915e-07,0.0,0.0,0.0,1.21846967915e-07,0.0,0.0,0.0,1.21846967915e-07,0.83356525,0.392266,11.67972015,9e-08,0.0,0.0,0.0,9e-08,0.0,0.0,0.0,9e-08
1532985301484030271,2878,1532985301483614553,base_link,0.0270749248155,0.0413426719386,-0.725471266142,0.68647590921,1.0,0.0,0.0,0.0,1.0,0.0,0.0,0.0,1.0,0.420926809311,-0.201298639178,-0.0335165783763,1.21846967915e-07,0.0,0.0,0.0,1.21846967915e-07,0.0,0.0,0.0,1.21846967915e-07,-0.0392266,-0.06864655,15.0041745,9e-08,0.0,0.0,0.0,9e-08,0.0,0.0,0.0,9e-08
1532985301879313428,2879,1532985301878956925,base_link,0.026850902613,-0.0158382090713,-0.713371477066,0.700092362386,1.0,0.0,0.0,0.0,1.0,0.0,0.0,0.0,1.0,-0.10507786274,-0.191573530436,0.154139459133,1.21846967915e-07,0.0,0.0,0.0,1.21846967915e-07,0.0,0.0,0.0,1.21846967915e-07,-0.5099458,-0.12748645,13.09187775,9e-08,0.0,0.0,0.0,9e-08,0.0,0.0,0.0,9e-08
1532985302204770243,2880,1532985302204462108,base_link,-0.014053284539,-0.00252375114891,-0.708258340422,0.705808939513,1.0,0.0,0.0,0.0,1.0,0.0,0.0,0.0,1.0,0.103915020823,-0.10133061558,-0.0362511314452,1.21846967915e-07,0.0,0.0,0.0,1.21846967915e-07,0.0,0.0,0.0,1.21846967915e-07,-0.9218251,0.3138128,12.67999845,9e-08,0.0,0.0,0.0,9e-08,0.0,0.0,0.0,9e-08
1532985302670547790,2881,1532985302664018782,base_link,-0.0106487612929,-0.021545286494,-0.70862033181,0.705180565429,1.0,0.0,0.0,0.0,1.0,0.0,0.0,0.0,1.0,0.103597104549,-0.0160890929401,-0.00297446874902,1.21846967915e-07,0.0,0.0,0.0,1.21846967915e-07,0.0,0.0,0.0,1.21846967915e-07,-1.0002783,-0.04903325,9.83606995,9e-08,0.0,0.0,0.0,9e-08,0.0,0.0,0.0,9e-08
1532985302981529241,2882,1532985302981032426,base_link,0.000408388172673,0.0296580004824,0.704274890865,-0.709307489262,1.0,0.0,0.0,0.0,1.0,0.0,0.0,0.0,1.0,0.081171579659,0.0309423655272,0.0417962297797,1.21846967915e-07,0.0,0.0,0.0,1.21846967915e-07,0.0,0.0,0.0,1.21846967915e-07,-0.81395195,0.42168595,9.60071035,9e-08,0.0,0.0,0.0,9e-08,0.0,0.0,0.0,9e-08
1532985303295685867,2883,1532985303295297211,base_link,-0.012290032876,0.0262598820747,0.70649176262,-0.707127119432,1.0,0.0,0.0,0.0,1.0,0.0,0.0,0.0,1.0,0.0601515322924,0.0960704088211,-0.073637843132,1.21846967915e-07,0.0,0.0,0.0,1.21846967915e-07,0.0,0.0,0.0,1.21846967915e-07,-0.4314926,0.28439285,7.9826131,9e-08,0.0,0.0,0.0,9e-08,0.0,0.0,0.0,9e-08
1532985303692073482,2884,1532985303691656802,base_link,0.039159632926,-0.016648743884,-0.716380438419,0.696411092622,1.0,0.0,0.0,0.0,1.0,0.0,0.0,0.0,1.0,0.107819028199,0.128029167652,-0.0736200809479,1.21846967915e-07,0.0,0.0,0.0,1.21846967915e-07,0.0,0.0,0.0,1.21846967915e-07,-0.2353596,0.1176798,7.03136805,9e-08,0.0,0.0,0.0,9e-08,0.0,0.0,0.0,9e-08
1532985304182786902,2885,1532985304182516836,base_link,0.0701183759414,-0.00418370820193,-0.715157202548,0.695425111413,1.0,0.0,0.0,0.0,1.0,0.0,0.0,0.0,1.0,-0.0190063305199,0.0900694280863,0.0592448972166,1.21846967915e-07,0.0,0.0,0.0,1.21846967915e-07,0.0,0.0,0.0,1.21846967915e-07,0.2941995,-0.38245935,8.1199062,9e-08,0.0,0.0,0.0,9e-08,0.0,0.0,0.0,9e-08
1532985304582498264,2886,1532985304582210218,base_link,-0.0861846521123,-0.0111234645557,0.703998394523,-0.704865047216,1.0,0.0,0.0,0.0,1.0,0.0,0.0,0.0,1.0,-0.10481942445,0.0821133553982,-0.0241059344262,1.21846967915e-07,0.0,0.0,0.0,1.21846967915e-07,0.0,0.0,0.0,1.21846967915e-07,0.0980665,0.2745862,6.83523505,9e-08,0.0,0.0,0.0,9e-08,0.0,0.0,0.0,9e-08
1532985304982917488,2887,1532985304981402784,base_link,0.0812653135226,0.0256966028441,-0.70820982509,0.700838410096,1.0,0.0,0.0,0.0,1.0,0.0,0.0,0.0,1.0,-0.241741761565,0.023819418624,-0.0709711313248,1.21846967915e-07,0.0,0.0,0.0,1.21846967915e-07,0.0,0.0,0.0,1.21846967915e-07,0.1569064,0.04903325,9.414384,9e-08,0.0,0.0,0.0,9e-08,0.0,0.0,0.0,9e-08
1532985305382706874,2888,1532985305382093064,base_link,-0.036475640354,-0.0566472347618,0.703577960977,-0.707416900619,1.0,0.0,0.0,0.0,1.0,0.0,0.0,0.0,1.0,-0.130277171731,-0.103687465191,0.0989911332726,1.21846967915e-07,0.0,0.0,0.0,1.21846967915e-07,0.0,0.0,0.0,1.21846967915e-07,0.20593965,-0.3334261,11.50320045,9e-08,0.0,0.0,0.0,9e-08,0.0,0.0,0.0,9e-08
1532985305697140628,2889,1532985305695933993,base_link,-0.0339716056426,-0.0478776864015,0.695826624348,-0.715806514362,1.0,0.0,0.0,0.0,1.0,0.0,0.0,0.0,1.0,-0.00435792980716,-0.0573258772492,-0.0116795375943,1.21846967915e-07,0.0,0.0,0.0,1.21846967915e-07,0.0,0.0,0.0,1.21846967915e-07,0.0980665,0.7453054,10.1204628,9e-08,0.0,0.0,0.0,9e-08,0.0,0.0,0.0,9e-08
1532985306114478029,2890,1532985306114176961,base_link,0.0303676243427,0.0296643490019,-0.706763362168,0.706175179178,1.0,0.0,0.0,0.0,1.0,0.0,0.0,0.0,1.0,0.163340777159,-0.0815690308809,-0.14554092288,1.21846967915e-07,0.0,0.0,0.0,1.21846967915e-07,0.0,0.0,0.0,1.21846967915e-07,-0.3726527,0.5099458,11.26784085,9e-08,0.0,0.0,0.0,9e-08,0.0,0.0,0.0,9e-08
1532985306381488223,2891,1532985306381239045,base_link,0.0412218336428,0.00218526701106,-0.717244914246,0.695597382131,1.0,0.0,0.0,0.0,1.0,0.0,0.0,0.0,1.0,0.169537067413,-0.0890513062477,-0.0467232353985,1.21846967915e-07,0.0,0.0,0.0,1.21846967915e-07,0.0,0.0,0.0,1.21846967915e-07,-0.48052585,-0.1372931,10.44408225,9e-08,0.0,0.0,0.0,9e-08,0.0,0.0,0.0,9e-08
1532985306806251857,2892,1532985306806006293,base_link,-0.0507210588983,0.0395180093972,0.702468365488,-0.708804554589,1.0,0.0,0.0,0.0,1.0,0.0,0.0,0.0,1.0,0.333229243755,-0.0749120786786,0.139119595289,1.21846967915e-07,0.0,0.0,0.0,1.21846967915e-07,0.0,0.0,0.0,1.21846967915e-07,0.10787315,-0.04903325,12.69961175,9e-08,0.0,0.0,0.0,9e-08,0.0,0.0,0.0,9e-08
1532985307159465910,2893,1532985307159013652,base_link,-0.0490927923209,0.0493106156182,0.701326505373,-0.709436039253,1.0,0.0,0.0,0.0,1.0,0.0,0.0,0.0,1.0,-0.220608904958,-0.0278538279235,-0.106881774962,1.21846967915e-07,0.0,0.0,0.0,1.21846967915e-07,0.0,0.0,0.0,1.21846967915e-07,0.0392266,0.2353596,11.22861425,9e-08,0.0,0.0,0.0,9e-08,0.0,0.0,0.0,9e-08
1532985307495710329,2894,1532985307492758410,base_link,0.0389366615115,-0.0361140668393,-0.71448307318,0.697634323056,1.0,0.0,0.0,0.0,1.0,0.0,0.0,0.0,1.0,-0.0125651424751,-0.0058000087738,-0.0887884050608,1.21846967915e-07,0.0,0.0,0.0,1.21846967915e-07,0.0,0.0,0.0,1.21846967915e-07,-0.2353596,0.16671305,8.56120545,9e-08,0.0,0.0,0.0,9e-08,0.0,0.0,0.0,9e-08
1532985307853196074,2895,1532985307850623793,base_link,0.0547381854077,-0.05369160152,-0.714715074845,0.69520019043,1.0,0.0,0.0,0.0,1.0,0.0,0.0,0.0,1.0,0.104406759143,0.0131306033581,0.0521436855197,1.21846967915e-07,0.0,0.0,0.0,1.21846967915e-07,0.0,0.0,0.0,1.21846967915e-07,0.3138128,0.06864655,8.8652116,9e-08,0.0,0.0,0.0,9e-08,0.0,0.0,0.0,9e-08
1532985308147747141,2896,1532985308147458516,base_link,0.0727649001767,-0.0665829858831,-0.715367025891,0.691752841383,1.0,0.0,0.0,0.0,1.0,0.0,0.0,0.0,1.0,0.337794482708,0.0324752703309,-0.0772260278463,1.21846967915e-07,0.0,0.0,0.0,1.21846967915e-07,0.0,0.0,0.0,1.21846967915e-07,0.3726527,0.28439285,9.0417313,9e-08,0.0,0.0,0.0,9e-08,0.0,0.0,0.0,9e-08
1532985308544926378,2897,1532985308544662706,base_link,0.123215453631,-0.10118512884,-0.729336459437,0.665317856836,1.0,0.0,0.0,0.0,1.0,0.0,0.0,0.0,1.0,0.40674328804,0.0110964477062,-0.224563375115,1.21846967915e-07,0.0,0.0,0.0,1.21846967915e-07,0.0,0.0,0.0,1.21846967915e-07,0.02941995,0.06864655,8.05125965,9e-08,0.0,0.0,0.0,9e-08,0.0,0.0,0.0,9e-08
1532985308960995039,2898,1532985308960581232,base_link,0.180046888157,-0.179104333134,-0.736804872744,0.626596628955,1.0,0.0,0.0,0.0,1.0,0.0,0.0,0.0,1.0,0.302168488503,-0.133716642857,-0.133723959327,1.21846967915e-07,0.0,0.0,0.0,1.21846967915e-07,0.0,0.0,0.0,1.21846967915e-07,0.14709975,0.4118793,9.4536106,9e-08,0.0,0.0,0.0,9e-08,0.0,0.0,0.0,9e-08
1532985309246540148,2899,1532985309245549440,base_link,0.189600098295,-0.223585500214,-0.748754099607,0.594498633424,1.0,0.0,0.0,0.0,1.0,0.0,0.0,0.0,1.0,0.235572233796,-0.21357640624,-0.154519587755,1.21846967915e-07,0.0,0.0,0.0,1.21846967915e-07,0.0,0.0,0.0,1.21846967915e-07,0.0,0.3530394,12.1406327,9e-08,0.0,0.0,0.0,9e-08,0.0,0.0,0.0,9e-08
1532985309598631762,2900,1532985309598262774,base_link,0.190243476079,-0.265435525594,-0.77185825485,0.545514652398,1.0,0.0,0.0,0.0,1.0,0.0,0.0,0.0,1.0,0.21428053081,-0.264652758837,-0.272507160902,1.21846967915e-07,0.0,0.0,0.0,1.21846967915e-07,0.0,0.0,0.0,1.21846967915e-07,-0.32361945,0.40207265,11.81701325,9e-08,0.0,0.0,0.0,9e-08,0.0,0.0,0.0,9e-08
1532985310039833947,2901,1532985310036849242,base_link,0.150040377365,-0.279628703244,-0.816166257277,0.482875050053,1.0,0.0,0.0,0.0,1.0,0.0,0.0,0.0,1.0,-0.158173114061,-0.264151185751,-0.300336390734,1.21846967915e-07,0.0,0.0,0.0,1.21846967915e-07,0.0,0.0,0.0,1.21846967915e-07,-0.2353596,0.65704555,14.34712895,9e-08,0.0,0.0,0.0,9e-08,0.0,0.0,0.0,9e-08
1532985310506116235,2902,1532985310505818810,base_link,0.112452989114,-0.29396209556,-0.858880270011,0.404061002077,1.0,0.0,0.0,0.0,1.0,0.0,0.0,0.0,1.0,0.0341235511005,-0.293580323458,-0.30070027709,1.21846967915e-07,0.0,0.0,0.0,1.21846967915e-07,0.0,0.0,0.0,1.21846967915e-07,-0.7060788,0.55897905,13.6508568,9e-08,0.0,0.0,0.0,9e-08,0.0,0.0,0.0,9e-08
1532985310899629814,2903,1532985310897485045,base_link,0.0780187620511,-0.302956869724,-0.883971290846,0.347454982429,1.0,0.0,0.0,0.0,1.0,0.0,0.0,0.0,1.0,-0.0740257948637,-0.248098552227,-0.217073068023,1.21846967915e-07,0.0,0.0,0.0,1.21846967915e-07,0.0,0.0,0.0,1.21846967915e-07,-0.59820565,0.28439285,12.71922505,9e-08,0.0,0.0,0.0,9e-08,0.0,0.0,0.0,9e-08
1532985311161934016,2904,1532985311161644268,base_link,0.0567549806482,-0.303437756473,-0.899993649192,0.307759372778,1.0,0.0,0.0,0.0,1.0,0.0,0.0,0.0,1.0,-0.269623726606,-0.238234579563,-0.244114294648,1.21846967915e-07,0.0,0.0,0.0,1.21846967915e-07,0.0,0.0,0.0,1.21846967915e-07,-0.53936575,0.46091255,11.8856598,9e-08,0.0,0.0,0.0,9e-08,0.0,0.0,0.0,9e-08
1532985311615427980,2905,1532985311614377730,base_link,0.0258124371858,-0.294760595175,-0.924398214472,0.240702826531,1.0,0.0,0.0,0.0,1.0,0.0,0.0,0.0,1.0,-0.0851655304432,-0.199816152453,-0.240055069327,1.21846967915e-07,0.0,0.0,0.0,1.21846967915e-07,0.0,0.0,0.0,1.21846967915e-07,-0.28439285,0.3530394,12.1798593,9e-08,0.0,0.0,0.0,9e-08,0.0,0.0,0.0,9e-08
1532985312061739602,2906,1532985312061506031,base_link,-0.00309185496625,-0.261283891197,-0.947490989719,0.184342054441,1.0,0.0,0.0,0.0,1.0,0.0,0.0,0.0,1.0,-0.371305048466,-0.0685292780399,-0.211259976029,1.21846967915e-07,0.0,0.0,0.0,1.21846967915e-07,0.0,0.0,0.0,1.21846967915e-07,-0.10787315,0.3138128,10.22833595,9e-08,0.0,0.0,0.0,9e-08,0.0,0.0,0.0,9e-08
1532985312453790452,2907,1532985312453416502,base_link,-0.0132304904496,-0.199362013241,-0.97040165424,0.135647968089,1.0,0.0,0.0,0.0,1.0,0.0,0.0,0.0,1.0,-0.417713046074,-0.014244293794,-0.192934393883,1.21846967915e-07,0.0,0.0,0.0,1.21846967915e-07,0.0,0.0,0.0,1.21846967915e-07,-0.28439285,0.30400615,8.73772515,9e-08,0.0,0.0,0.0,9e-08,0.0,0.0,0.0,9e-08
1532985312846630887,2908,1532985312846435227,base_link,-0.0122756958989,-0.123187349704,-0.987824879851,0.0942135388895,1.0,0.0,0.0,0.0,1.0,0.0,0.0,0.0,1.0,-0.31992200017,0.0724155306816,-0.214014783502,1.21846967915e-07,0.0,0.0,0.0,1.21846967915e-07,0.0,0.0,0.0,1.21846967915e-07,-0.10787315,0.42168595,8.62004535,9e-08,0.0,0.0,0.0,9e-08,0.0,0.0,0.0,9e-08
1532985313320948510,2909,1532985313320608886,base_link,-0.0052355514353,-0.0851767847363,-0.99503265379,0.0512593624077,1.0,0.0,0.0,0.0,1.0,0.0,0.0,0.0,1.0,-0.144553229213,-0.00315310433507,-0.0157217793167,1.21846967915e-07,0.0,0.0,0.0,1.21846967915e-07,0.0,0.0,0.0,1.21846967915e-07,0.0196133,-0.08825985,9.28689755,9e-08,0.0,0.0,0.0,9e-08,0.0,0.0,0.0,9e-08
1532985313584169222,2910,1532985313583831517,base_link,-0.000289521530844,-0.056188160844,-0.997137101159,0.0506004767755,1.0,0.0,0.0,0.0,1.0,0.0,0.0,0.0,1.0,-0.316002994776,0.0783777162433,-0.00876729842275,1.21846967915e-07,0.0,0.0,0.0,1.21846967915e-07,0.0,0.0,0.0,1.21846967915e-07,-0.04903325,0.5295591,7.30595425,9e-08,0.0,0.0,0.0,9e-08,0.0,0.0,0.0,9e-08
1532985313889993388,2911,1532985313889723346,base_link,0.00748997802625,-0.00755861916602,-0.998928010242,0.0450510583624,1.0,0.0,0.0,0.0,1.0,0.0,0.0,0.0,1.0,-0.325450569391,0.0539025403559,-0.0271752756089,1.21846967915e-07,0.0,0.0,0.0,1.21846967915e-07,0.0,0.0,0.0,1.21846967915e-07,-0.0980665,0.22555295,7.97280645,9e-08,0.0,0.0,0.0,9e-08,0.0,0.0,0.0,9e-08
1532985314290968139,2912,1532985314290656475,base_link,0.0141355073844,0.033051061778,-0.998480808027,0.0417599179713,1.0,0.0,0.0,0.0,1.0,0.0,0.0,0.0,1.0,-0.142092764378,0.0106628406793,0.0442063435912,1.21846967915e-07,0.0,0.0,0.0,1.21846967915e-07,0.0,0.0,0.0,1.21846967915e-07,0.2745862,-0.04903325,8.6886919,9e-08,0.0,0.0,0.0,9e-08,0.0,0.0,0.0,9e-08
1532985314724055106,2913,1532985314723740402,base_link,0.0131159467087,0.0387772962081,-0.997277578145,0.0613329061004,1.0,0.0,0.0,0.0,1.0,0.0,0.0,0.0,1.0,0.0474349558353,-0.0407271012664,0.141170814633,1.21846967915e-07,0.0,0.0,0.0,1.21846967915e-07,0.0,0.0,0.0,1.21846967915e-07,0.1765197,-0.00980665,9.1201845,9e-08,0.0,0.0,0.0,9e-08,0.0,0.0,0.0,9e-08
1532985315089431799,2914,1532985315089001540,base_link,0.00624512593514,0.0379481820904,-0.995547710639,0.0860563171426,1.0,0.0,0.0,0.0,1.0,0.0,0.0,0.0,1.0,-0.00858709029853,-0.0427653044462,0.135904923081,1.21846967915e-07,0.0,0.0,0.0,1.21846967915e-07,0.0,0.0,0.0,1.21846967915e-07,0.85317855,1.30425152307e-15,10.6500219,9e-08,0.0,0.0,0.0,9e-08,0.0,0.0,0.0,9e-08
1532985315534850835,2915,1532985315534551455,base_link,-0.00410729925693,0.0185231090863,-0.994619264295,0.101845685311,1.0,0.0,0.0,0.0,1.0,0.0,0.0,0.0,1.0,0.0749884843826,-0.0597831383348,0.0397834293544,1.21846967915e-07,0.0,0.0,0.0,1.21846967915e-07,0.0,0.0,0.0,1.21846967915e-07,0.5491724,0.0196133,10.8069283,9e-08,0.0,0.0,0.0,9e-08,0.0,0.0,0.0,9e-08
1532985315948649633,2916,1532985315948365289,base_link,-0.0133410370454,-0.000264747130241,-0.993873984075,0.109710757992,1.0,0.0,0.0,0.0,1.0,0.0,0.0,0.0,1.0,-0.0205209795386,-0.0906706303358,0.0722033903003,1.21846967915e-07,0.0,0.0,0.0,1.21846967915e-07,0.0,0.0,0.0,1.21846967915e-07,0.4118793,0.32361945,10.95402805,9e-08,0.0,0.0,0.0,9e-08,0.0,0.0,0.0,9e-08
1532985316453345001,2917,1532985316451518771,base_link,-0.0235383590151,0.00546358236747,-0.994511312542,0.101800511535,1.0,0.0,0.0,0.0,1.0,0.0,0.0,0.0,1.0,0.18890479207,-0.0400493741035,-0.143820926547,1.21846967915e-07,0.0,0.0,0.0,1.21846967915e-07,0.0,0.0,0.0,1.21846967915e-07,0.61781895,0.20593965,12.22889255,9e-08,0.0,0.0,0.0,9e-08,0.0,0.0,0.0,9e-08
1532985316856889821,2918,1532985316854996312,base_link,-0.0199047685253,-0.0627558997023,-0.993539147539,0.0924416548385,1.0,0.0,0.0,0.0,1.0,0.0,0.0,0.0,1.0,0.47195237875,-0.029025061056,0.0269674062729,1.21846967915e-07,0.0,0.0,0.0,1.21846967915e-07,0.0,0.0,0.0,1.21846967915e-07,0.24516625,0.1765197,10.03220295,9e-08,0.0,0.0,0.0,9e-08,0.0,0.0,0.0,9e-08
1532985317168570838,2919,1532985317167741476,base_link,-0.0209449713523,-0.0566679347899,-0.99240751016,0.107132567967,1.0,0.0,0.0,0.0,1.0,0.0,0.0,0.0,1.0,-0.276465177536,0.019755449146,0.131483435631,1.21846967915e-07,0.0,0.0,0.0,1.21846967915e-07,0.0,0.0,0.0,1.21846967915e-07,0.5295591,0.1765197,8.38468575,9e-08,0.0,0.0,0.0,9e-08,0.0,0.0,0.0,9e-08
1532985317586293414,2920,1532985317585940221,base_link,-0.0123413165369,-0.0550953885311,-0.99248022514,0.10860567561,1.0,0.0,0.0,0.0,1.0,0.0,0.0,0.0,1.0,0.196549504995,0.0711968839169,-0.0696087554097,1.21846967915e-07,0.0,0.0,0.0,1.21846967915e-07,0.0,0.0,0.0,1.21846967915e-07,0.6668522,0.10787315,7.9041599,9e-08,0.0,0.0,0.0,9e-08,0.0,0.0,0.0,9e-08
1532985317935754647,2921,1532985317930714361,base_link,0.00153672425155,-0.0758506740729,-0.992951971908,0.091053254773,1.0,0.0,0.0,0.0,1.0,0.0,0.0,0.0,1.0,0.0800118595362,0.0478098466992,-0.0696144849062,1.21846967915e-07,0.0,0.0,0.0,1.21846967915e-07,0.0,0.0,0.0,1.21846967915e-07,0.9218251,0.0392266,7.9433865,9e-08,0.0,0.0,0.0,9e-08,0.0,0.0,0.0,9e-08
1532985318241263017,2922,1532985318240732651,base_link,0.0078718239685,-0.0708344524635,-0.994055099707,0.0823102270591,1.0,0.0,0.0,0.0,1.0,0.0,0.0,0.0,1.0,-0.0941594839096,0.030597101897,-0.0667424872518,1.21846967915e-07,0.0,0.0,0.0,1.21846967915e-07,0.0,0.0,0.0,1.21846967915e-07,0.91201845,1.01842107879e-15,8.3160392,9e-08,0.0,0.0,0.0,9e-08,0.0,0.0,0.0,9e-08
1532985318548185656,2923,1532985318547855881,base_link,0.00950740670633,-0.062171480184,-0.995361148534,0.0728045345967,1.0,0.0,0.0,0.0,1.0,0.0,0.0,0.0,1.0,-0.0931824147701,0.0374018140137,-0.0267566069961,1.21846967915e-07,0.0,0.0,0.0,1.21846967915e-07,0.0,0.0,0.0,1.21846967915e-07,0.8629852,0.1569064,8.9044382,9e-08,0.0,0.0,0.0,9e-08,0.0,0.0,0.0,9e-08
1532985318975137638,2924,1532985318974503074,base_link,0.00715144109322,-0.034484791995,-0.997644264171,0.0588691615177,1.0,0.0,0.0,0.0,1.0,0.0,0.0,0.0,1.0,-0.164039880037,-0.029303111136,-0.0771460607648,1.21846967915e-07,0.0,0.0,0.0,1.21846967915e-07,0.0,0.0,0.0,1.21846967915e-07,0.2353596,0.2941995,9.77723005,9e-08,0.0,0.0,0.0,9e-08,0.0,0.0,0.0,9e-08
1532985319267865981,2925,1532985319267397774,base_link,-0.00440472637943,-0.0204195199499,-0.998317428848,0.0540920775021,1.0,0.0,0.0,0.0,1.0,0.0,0.0,0.0,1.0,-0.0704616010189,-0.111780002713,0.02796863392,1.21846967915e-07,0.0,0.0,0.0,1.21846967915e-07,0.0,0.0,0.0,1.21846967915e-07,0.69627215,-0.24516625,11.1403544,9e-08,0.0,0.0,0.0,9e-08,0.0,0.0,0.0,9e-08
1532985319780437712,2926,1532985319778089961,base_link,-0.0255901110843,0.000964379590048,-0.996939077744,0.0738694216356,1.0,0.0,0.0,0.0,1.0,0.0,0.0,0.0,1.0,-0.151176959276,-0.0511061288416,0.0869382694364,1.21846967915e-07,0.0,0.0,0.0,1.21846967915e-07,0.0,0.0,0.0,1.21846967915e-07,0.30400615,0.3530394,10.89518815,9e-08,0.0,0.0,0.0,9e-08,0.0,0.0,0.0,9e-08
1532985320173589462,2927,1532985320173337810,base_link,-0.0308101724127,0.028676410813,-0.996417008543,0.0733589928006,1.0,0.0,0.0,0.0,1.0,0.0,0.0,0.0,1.0,-0.0909798666835,0.00740589015186,-0.0278359707445,1.21846967915e-07,0.0,0.0,0.0,1.21846967915e-07,0.0,0.0,0.0,1.21846967915e-07,0.48052585,0.63743225,7.9433865,9e-08,0.0,0.0,0.0,9e-08,0.0,0.0,0.0,9e-08
1532985320605961298,2928,1532985320605671415,base_link,-0.0308793403119,0.0301839254788,-0.997206745077,0.0609434537743,1.0,0.0,0.0,0.0,1.0,0.0,0.0,0.0,1.0,-0.0356000810862,-0.0574485883117,0.00554910907522,1.21846967915e-07,0.0,0.0,0.0,1.21846967915e-07,0.0,0.0,0.0,1.21846967915e-07,1.4906108,0.9022118,12.36618565,9e-08,0.0,0.0,0.0,9e-08,0.0,0.0,0.0,9e-08
1532985321079665026,2929,1532985321079445846,base_link,-0.0322364592141,-0.00489632370092,-0.998704933724,0.0390549877394,1.0,0.0,0.0,0.0,1.0,0.0,0.0,0.0,1.0,0.186645716429,-0.0422885939479,-0.01383507438,1.21846967915e-07,0.0,0.0,0.0,1.21846967915e-07,0.0,0.0,0.0,1.21846967915e-07,0.93163175,-0.38245935,11.0815145,9e-08,0.0,0.0,0.0,9e-08,0.0,0.0,0.0,9e-08
1532985321540476997,2930,1532985321540028911,base_link,-0.0389286202226,-0.0264382145017,-0.99764951743,0.049809875655,1.0,0.0,0.0,0.0,1.0,0.0,0.0,0.0,1.0,0.0862524807453,0.0234293304384,-0.00375466654077,1.21846967915e-07,0.0,0.0,0.0,1.21846967915e-07,0.0,0.0,0.0,1.21846967915e-07,0.30400615,0.38245935,8.40429905,9e-08,0.0,0.0,0.0,9e-08,0.0,0.0,0.0,9e-08
1532985322019236788,2931,1532985322018939290,base_link,-0.0315447947578,-0.0598875156274,-0.996525583958,0.0485301134656,1.0,0.0,0.0,0.0,1.0,0.0,0.0,0.0,1.0,0.0361873544753,-0.0177210904658,0.0670311972499,1.21846967915e-07,0.0,0.0,0.0,1.21846967915e-07,0.0,0.0,0.0,1.21846967915e-07,0.8041453,-0.53936575,8.3748791,9e-08,0.0,0.0,0.0,9e-08,0.0,0.0,0.0,9e-08
1532985322270861384,2932,1532985322270673652,base_link,-0.0306596564801,-0.0356767965306,-0.997278179734,0.0567748525274,1.0,0.0,0.0,0.0,1.0,0.0,0.0,0.0,1.0,-0.452821016312,0.0189999621361,0.0872873812914,1.21846967915e-07,0.0,0.0,0.0,1.21846967915e-07,0.0,0.0,0.0,1.21846967915e-07,0.67665885,0.10787315,7.5707338,9e-08,0.0,0.0,0.0,9e-08,0.0,0.0,0.0,9e-08
1532985322645744524,2933,1532985322645498277,base_link,-0.027751140205,0.0249497656894,-0.997362751409,0.0622488996816,1.0,0.0,0.0,0.0,1.0,0.0,0.0,0.0,1.0,0.0142219318077,0.0243528708816,0.0546453669667,1.21846967915e-07,0.0,0.0,0.0,1.21846967915e-07,0.0,0.0,0.0,1.21846967915e-07,1.4317709,0.6276256,11.9248864,9e-08,0.0,0.0,0.0,9e-08,0.0,0.0,0.0,9e-08
1532985323061497049,2934,1532985323061138668,base_link,-0.0150451067658,-0.00848780087851,-0.997804460479,0.0639363796803,1.0,0.0,0.0,0.0,1.0,0.0,0.0,0.0,1.0,0.243093460798,0.0480499826372,-0.0462923534214,1.21846967915e-07,0.0,0.0,0.0,1.21846967915e-07,0.0,0.0,0.0,1.21846967915e-07,1.24544455,0.69627215,7.91396655,9e-08,0.0,0.0,0.0,9e-08,0.0,0.0,0.0,9e-08
1532985323465467772,2935,1532985323463939231,base_link,-0.0162657264464,-0.0262585939781,-0.997869167297,0.0574720570596,1.0,0.0,0.0,0.0,1.0,0.0,0.0,0.0,1.0,-0.036880467087,-0.0198834408075,-0.0330405198038,1.21846967915e-07,0.0,0.0,0.0,1.21846967915e-07,0.0,0.0,0.0,1.21846967915e-07,1.02969825,0.51975245,10.8461549,9e-08,0.0,0.0,0.0,9e-08,0.0,0.0,0.0,9e-08
1532985323971110434,2936,1532985323970703744,base_link,-0.0232521539701,-0.0170451391242,-0.998746098449,0.0409271474917,1.0,0.0,0.0,0.0,1.0,0.0,0.0,0.0,1.0,-0.255651652813,-0.0387389585376,0.00688537629321,1.21846967915e-07,0.0,0.0,0.0,1.21846967915e-07,0.0,0.0,0.0,1.21846967915e-07,0.28439285,0.14709975,10.24794925,9e-08,0.0,0.0,0.0,9e-08,0.0,0.0,0.0,9e-08
1532985324323871695,2937,1532985324323545690,base_link,-0.0278543552555,0.0324160609672,-0.997804078313,0.0505999524382,1.0,0.0,0.0,0.0,1.0,0.0,0.0,0.0,1.0,-0.00746130896732,-0.0210149250925,0.0319657661021,1.21846967915e-07,0.0,0.0,0.0,1.21846967915e-07,0.0,0.0,0.0,1.21846967915e-07,0.7649187,0.06864655,9.36535075,9e-08,0.0,0.0,0.0,9e-08,0.0,0.0,0.0,9e-08
1532985324770663123,2938,1532985324769258421,base_link,-0.0175736827119,-0.0304769448896,-0.998328809526,0.0458465874068,1.0,0.0,0.0,0.0,1.0,0.0,0.0,0.0,1.0,0.236675918102,0.0156235005707,-0.00997165311128,1.21846967915e-07,0.0,0.0,0.0,1.21846967915e-07,0.0,0.0,0.0,1.21846967915e-07,1.3337044,-0.32361945,8.9240515,9e-08,0.0,0.0,0.0,9e-08,0.0,0.0,0.0,9e-08
1532985325220571925,2939,1532985325216673097,base_link,-0.0197814789311,-0.0452437108433,-0.996034636215,0.0740047510615,1.0,0.0,0.0,0.0,1.0,0.0,0.0,0.0,1.0,-0.010186670348,-0.0210076905787,0.177388995886,1.21846967915e-07,0.0,0.0,0.0,1.21846967915e-07,0.0,0.0,0.0,1.21846967915e-07,1.52003075,0.0980665,12.9055514,9e-08,0.0,0.0,0.0,9e-08,0.0,0.0,0.0,9e-08
1532985325649037272,2940,1532985325648693126,base_link,-0.0124706977081,-0.0652021712392,-0.994941505505,0.0753960157334,1.0,0.0,0.0,0.0,1.0,0.0,0.0,0.0,1.0,0.265346258879,0.0666896551847,-0.133987054229,1.21846967915e-07,0.0,0.0,0.0,1.21846967915e-07,0.0,0.0,0.0,1.21846967915e-07,-0.1765197,0.588399,6.22722275,9e-08,0.0,0.0,0.0,9e-08,0.0,0.0,0.0,9e-08
1532985325967649094,2941,1532985325965383720,base_link,-0.00714188808328,-0.0990754288214,-0.993537851544,0.0549143914513,1.0,0.0,0.0,0.0,1.0,0.0,0.0,0.0,1.0,0.128700047731,-0.00478782691061,-0.0800967738032,1.21846967915e-07,0.0,0.0,0.0,1.21846967915e-07,0.0,0.0,0.0,1.21846967915e-07,0.04903325,0.0392266,8.1787461,9e-08,0.0,0.0,0.0,9e-08,0.0,0.0,0.0,9e-08
1532985326347845526,2942,1532985326347560630,base_link,-0.0108362098894,-0.0909315290827,-0.994485714087,0.0511096669002,1.0,0.0,0.0,0.0,1.0,0.0,0.0,0.0,1.0,-0.06871111691,0.0199014078826,-0.0159061178565,1.21846967915e-07,0.0,0.0,0.0,1.21846967915e-07,0.0,0.0,0.0,1.21846967915e-07,0.30400615,0.3138128,8.99269805,9e-08,0.0,0.0,0.0,9e-08,0.0,0.0,0.0,9e-08
1532985326693414684,2943,1532985326692844027,base_link,-0.00994425542948,-0.0589054288609,-0.997560865745,0.036105143249,1.0,0.0,0.0,0.0,1.0,0.0,0.0,0.0,1.0,-0.132111340761,-0.0047062151134,-0.0955053120852,1.21846967915e-07,0.0,0.0,0.0,1.21846967915e-07,0.0,0.0,0.0,1.21846967915e-07,0.2549729,0.4118793,9.30651085,9e-08,0.0,0.0,0.0,9e-08,0.0,0.0,0.0,9e-08
1532985327198620993,2944,1532985327198040450,base_link,-0.0174999494567,-0.0165089253762,-0.999314341519,0.0281434536996,1.0,0.0,0.0,0.0,1.0,0.0,0.0,0.0,1.0,-0.219534888864,-0.00869013927877,0.022867763415,1.21846967915e-07,0.0,0.0,0.0,1.21846967915e-07,0.0,0.0,0.0,1.21846967915e-07,0.87279185,0.08825985,11.0815145,9e-08,0.0,0.0,0.0,9e-08,0.0,0.0,0.0,9e-08
1532985327616264497,2945,1532985327615459363,base_link,-0.0268068110965,0.00804747698802,-0.999161234133,0.0298908212967,1.0,0.0,0.0,0.0,1.0,0.0,0.0,0.0,1.0,-0.208823829889,-0.0591677501798,0.059716809541,1.21846967915e-07,0.0,0.0,0.0,1.21846967915e-07,0.0,0.0,0.0,1.21846967915e-07,0.4511059,0.1176798,9.9831697,9e-08,0.0,0.0,0.0,9e-08,0.0,0.0,0.0,9e-08
1532985328115136130,2946,1532985328112786405,base_link,-0.0297078542767,0.0464812457693,-0.997949359689,0.0324655614761,1.0,0.0,0.0,0.0,1.0,0.0,0.0,0.0,1.0,-0.136425763369,-0.0042201988399,9.66158695519e-05,1.21846967915e-07,0.0,0.0,0.0,1.21846967915e-07,0.0,0.0,0.0,1.21846967915e-07,0.7060788,0.32361945,11.3561007,9e-08,0.0,0.0,0.0,9e-08,0.0,0.0,0.0,9e-08
1532985328504353573,2947,1532985328503748938,base_link,-0.0337860934904,0.0790029285814,-0.995478386569,0.0404946790983,1.0,0.0,0.0,0.0,1.0,0.0,0.0,0.0,1.0,0.235889464617,-0.0289359446615,0.0848197191954,1.21846967915e-07,0.0,0.0,0.0,1.21846967915e-07,0.0,0.0,0.0,1.21846967915e-07,0.95124505,-0.3334261,10.5323421,9e-08,0.0,0.0,0.0,9e-08,0.0,0.0,0.0,9e-08
1532985328893424136,2948,1532985328892076752,base_link,-0.0314686683845,0.03520219229,-0.996665538241,0.066545724518,1.0,0.0,0.0,0.0,1.0,0.0,0.0,0.0,1.0,0.287635862827,-0.00545910745859,0.105182498693,1.21846967915e-07,0.0,0.0,0.0,1.21846967915e-07,0.0,0.0,0.0,1.21846967915e-07,0.7060788,0.2745862,9.1201845,9e-08,0.0,0.0,0.0,9e-08,0.0,0.0,0.0,9e-08
1532985329397597354,2949,1532985329397244918,base_link,-0.020511701126,-0.0156369512227,-0.996284765246,0.0821670396919,1.0,0.0,0.0,0.0,1.0,0.0,0.0,0.0,1.0,0.101292274892,0.0156042482704,0.00776372151449,1.21846967915e-07,0.0,0.0,0.0,1.21846967915e-07,0.0,0.0,0.0,1.21846967915e-07,1.14737805,0.57859235,9.0025047,9e-08,0.0,0.0,0.0,9e-08,0.0,0.0,0.0,9e-08
1532985329758585056,2950,1532985329758242922,base_link,-0.00229466209731,-0.0377354611745,-0.997061758862,0.0666229578306,1.0,0.0,0.0,0.0,1.0,0.0,0.0,0.0,1.0,-0.045650921762,0.0757455527782,-0.156319484115,1.21846967915e-07,0.0,0.0,0.0,1.21846967915e-07,0.0,0.0,0.0,1.21846967915e-07,1.1571847,0.2745862,8.20816605,9e-08,0.0,0.0,0.0,9e-08,0.0,0.0,0.0,9e-08
1532985330041481066,2951,1532985330041130517,base_link,0.00733181678471,-0.0241701852718,-0.998614728852,0.0461591803031,1.0,0.0,0.0,0.0,1.0,0.0,0.0,0.0,1.0,0.220272883773,0.104876622558,-0.157228425145,1.21846967915e-07,0.0,0.0,0.0,1.21846967915e-07,0.0,0.0,0.0,1.21846967915e-07,0.6276256,0.9610517,8.48275225,9e-08,0.0,0.0,0.0,9e-08,0.0,0.0,0.0,9e-08
1532985330485351599,2952,1532985330481103133,base_link,0.00910240473889,-0.0651093660827,-0.997836104555,0.00101248363529,1.0,0.0,0.0,0.0,1.0,0.0,0.0,0.0,1.0,0.0825774073601,-0.0903512835503,-0.205254614353,1.21846967915e-07,0.0,0.0,0.0,1.21846967915e-07,0.0,0.0,0.0,1.21846967915e-07,0.99047165,0.5687857,10.5519554,9e-08,0.0,0.0,0.0,9e-08,0.0,0.0,0.0,9e-08
1532985330800814937,2953,1532985330799719332,base_link,-0.00464809907165,-0.0983624030171,-0.994951206345,-0.0193734313102,1.0,0.0,0.0,0.0,1.0,0.0,0.0,0.0,1.0,0.153190910816,-0.091173581779,-0.0904850661755,1.21846967915e-07,0.0,0.0,0.0,1.21846967915e-07,0.0,0.0,0.0,1.21846967915e-07,0.3530394,0.93163175,11.38552065,9e-08,0.0,0.0,0.0,9e-08,0.0,0.0,0.0,9e-08
1532985331105708027,2954,1532985331105398109,base_link,-0.0150568000943,-0.118030149923,-0.991944911237,-0.0434450175628,1.0,0.0,0.0,0.0,1.0,0.0,0.0,0.0,1.0,0.0783508419991,-0.072038218379,-0.144975304604,1.21846967915e-07,0.0,0.0,0.0,1.21846967915e-07,0.0,0.0,0.0,1.21846967915e-07,0.14709975,0.42168595,10.983448,9e-08,0.0,0.0,0.0,9e-08,0.0,0.0,0.0,9e-08
1532985331504355531,2955,1532985331503968988,base_link,-0.0377016813843,-0.176452304479,-0.982302113244,-0.0502565993853,1.0,0.0,0.0,0.0,1.0,0.0,0.0,0.0,1.0,0.233282998204,-0.104876756668,0.0629530698061,1.21846967915e-07,0.0,0.0,0.0,1.21846967915e-07,0.0,0.0,0.0,1.21846967915e-07,-0.18632635,-0.26477955,11.3364874,9e-08,0.0,0.0,0.0,9e-08,0.0,0.0,0.0,9e-08
1532985331934649744,2956,1532985331934354095,base_link,-0.0513204091318,-0.176972706922,-0.981686858464,-0.0483506828422,1.0,0.0,0.0,0.0,1.0,0.0,0.0,0.0,1.0,-0.0469314008951,-0.0263039339334,-0.124124415219,1.21846967915e-07,0.0,0.0,0.0,1.21846967915e-07,0.0,0.0,0.0,1.21846967915e-07,-0.16671305,0.65704555,9.79684335,9e-08,0.0,0.0,0.0,9e-08,0.0,0.0,0.0,9e-08
1532985332388580288,2957,1532985332388115553,base_link,-0.0417054795463,-0.209294088191,-0.97191496303,-0.0991864016031,1.0,0.0,0.0,0.0,1.0,0.0,0.0,0.0,1.0,0.274205297232,-0.00983360409737,-0.233845055103,1.21846967915e-07,0.0,0.0,0.0,1.21846967915e-07,0.0,0.0,0.0,1.21846967915e-07,-0.32361945,-0.1372931,7.5315072,9e-08,0.0,0.0,0.0,9e-08,0.0,0.0,0.0,9e-08
1532985332706421031,2958,1532985332705392734,base_link,-0.0492231440243,-0.237492685145,-0.962544000725,-0.121174887098,1.0,0.0,0.0,0.0,1.0,0.0,0.0,0.0,1.0,0.0330357439816,-0.10909023881,-0.098119713366,1.21846967915e-07,0.0,0.0,0.0,1.21846967915e-07,0.0,0.0,0.0,1.21846967915e-07,0.0784532,0.26477955,9.4339973,9e-08,0.0,0.0,0.0,9e-08,0.0,0.0,0.0,9e-08
1532985333012190821,2959,1532985333008360158,base_link,-0.0603618833837,-0.237075356714,-0.95927418353,-0.141225915063,1.0,0.0,0.0,0.0,1.0,0.0,0.0,0.0,1.0,-0.227240949869,-0.0716632902622,-0.135303229094,1.21846967915e-07,0.0,0.0,0.0,1.21846967915e-07,0.0,0.0,0.0,1.21846967915e-07,0.3334261,0.79433865,12.79767825,9e-08,0.0,0.0,0.0,9e-08,0.0,0.0,0.0,9e-08
1532985333405357851,2960,1532985333402548928,base_link,-0.0513283414735,-0.229344990354,-0.952355355266,-0.194385066448,1.0,0.0,0.0,0.0,1.0,0.0,0.0,0.0,1.0,0.106759890914,-0.0187581498176,-0.332339942455,1.21846967915e-07,0.0,0.0,0.0,1.21846967915e-07,0.0,0.0,0.0,1.21846967915e-07,-0.1176798,0.55897905,10.58137535,9e-08,0.0,0.0,0.0,9e-08,0.0,0.0,0.0,9e-08
1532985333827080224,2961,1532985333826718347,base_link,-0.0773547070618,-0.307764762975,-0.909072514406,-0.269970856792,1.0,0.0,0.0,0.0,1.0,0.0,0.0,0.0,1.0,0.377267420292,-0.238003894687,-0.286491781473,1.21846967915e-07,0.0,0.0,0.0,1.21846967915e-07,0.0,0.0,0.0,1.21846967915e-07,-0.14709975,0.196133,10.56176205,9e-08,0.0,0.0,0.0,9e-08,0.0,0.0,0.0,9e-08
1532985334160309246,2962,1532985334158863142,base_link,-0.106213043687,-0.301913413413,-0.894623867668,-0.311793546359,1.0,0.0,0.0,0.0,1.0,0.0,0.0,0.0,1.0,-0.0215935073793,-0.254494279623,-0.138356000185,1.21846967915e-07,0.0,0.0,0.0,1.21846967915e-07,0.0,0.0,0.0,1.21846967915e-07,-0.10787315,-0.22555295,10.9638347,9e-08,0.0,0.0,0.0,9e-08,0.0,0.0,0.0,9e-08
1532985334469273054,2963,1532985334468111116,base_link,-0.150102654407,-0.323553505402,-0.873198421647,-0.332124733668,1.0,0.0,0.0,0.0,1.0,0.0,0.0,0.0,1.0,0.371913969517,-0.255985170603,-0.0564112663269,1.21846967915e-07,0.0,0.0,0.0,1.21846967915e-07,0.0,0.0,0.0,1.21846967915e-07,-0.1765197,1.30428445,11.46397385,9e-08,0.0,0.0,0.0,9e-08,0.0,0.0,0.0,9e-08
1532985334847144989,2964,1532985334845085634,base_link,-0.161739659722,-0.32940789768,-0.837125493874,-0.405649635678,1.0,0.0,0.0,0.0,1.0,0.0,0.0,0.0,1.0,-0.214132323861,-0.211516082287,-0.473391860723,1.21846967915e-07,0.0,0.0,0.0,1.21846967915e-07,0.0,0.0,0.0,1.21846967915e-07,-0.0980665,0.9022118,8.54159215,9e-08,0.0,0.0,0.0,9e-08,0.0,0.0,0.0,9e-08
1532985335315102307,2965,1532985335314470018,base_link,-0.163441459467,-0.311044535149,-0.776420230712,-0.523172831695,1.0,0.0,0.0,0.0,1.0,0.0,0.0,0.0,1.0,0.017364513129,-0.331733524799,-0.484398841858,1.21846967915e-07,0.0,0.0,0.0,1.21846967915e-07,0.0,0.0,0.0,1.21846967915e-07,0.3530394,0.71588545,12.50347875,9e-08,0.0,0.0,0.0,9e-08,0.0,0.0,0.0,9e-08
1532985335582791733,2966,1532985335581451364,base_link,-0.192617807776,-0.297429499038,-0.732856182888,-0.580823457198,1.0,0.0,0.0,0.0,1.0,0.0,0.0,0.0,1.0,-0.0192651972175,-0.428170830011,-0.298241406679,1.21846967915e-07,0.0,0.0,0.0,1.21846967915e-07,0.0,0.0,0.0,1.21846967915e-07,0.4511059,0.4511059,12.60154525,9e-08,0.0,0.0,0.0,9e-08,0.0,0.0,0.0,9e-08
1532985336058722088,2967,1532985336050714502,base_link,-0.218311794093,-0.231558389571,-0.680368606902,-0.660166063594,1.0,0.0,0.0,0.0,1.0,0.0,0.0,0.0,1.0,-0.511640667915,-0.389065265656,-0.294635534286,1.21846967915e-07,0.0,0.0,0.0,1.21846967915e-07,0.0,0.0,0.0,1.21846967915e-07,0.81395195,1.10815145,12.4936721,9e-08,0.0,0.0,0.0,9e-08,0.0,0.0,0.0,9e-08
1532985336392738304,2968,1532985336392504622,base_link,-0.161590791174,-0.126605495382,-0.660154247478,-0.722534313568,1.0,0.0,0.0,0.0,1.0,0.0,0.0,0.0,1.0,-0.754030764103,-0.222393348813,-0.205126717687,1.21846967915e-07,0.0,0.0,0.0,1.21846967915e-07,0.0,0.0,0.0,1.21846967915e-07,0.9414384,0.5295591,14.70016835,9e-08,0.0,0.0,0.0,9e-08,0.0,0.0,0.0,9e-08
1532985336805404230,2969,1532985336804429768,base_link,-0.104102961843,-0.0455409539688,-0.640889121263,-0.759177007748,1.0,0.0,0.0,0.0,1.0,0.0,0.0,0.0,1.0,-0.62794303894,-0.168125793338,-0.149792134762,1.21846967915e-07,0.0,0.0,0.0,1.21846967915e-07,0.0,0.0,0.0,1.21846967915e-07,0.38245935,0.1765197,12.160246,9e-08,0.0,0.0,0.0,9e-08,0.0,0.0,0.0,9e-08
1532985337090752865,2970,1532985337090465209,base_link,-0.0513454047759,0.0158692657609,-0.642504420618,-0.764395110724,1.0,0.0,0.0,0.0,1.0,0.0,0.0,0.0,1.0,-0.525961518288,-0.064871840179,0.117873981595,1.21846967915e-07,0.0,0.0,0.0,1.21846967915e-07,0.0,0.0,0.0,1.21846967915e-07,0.00980665,-0.3138128,9.6693569,9e-08,0.0,0.0,0.0,9e-08,0.0,0.0,0.0,9e-08
1532985337388058387,2971,1532985337387749712,base_link,0.0246198626452,0.0832990376182,-0.652272029153,-0.752991588718,1.0,0.0,0.0,0.0,1.0,0.0,0.0,0.0,1.0,-0.605349600315,0.0600054860115,0.0582503266633,1.21846967915e-07,0.0,0.0,0.0,1.21846967915e-07,0.0,0.0,0.0,1.21846967915e-07,0.1372931,0.392266,10.8461549,9e-08,0.0,0.0,0.0,9e-08,0.0,0.0,0.0,9e-08
1532985337834429518,2972,1532985337833917618,base_link,0.0877590922771,0.114494027086,-0.651658121933,-0.744668484362,1.0,0.0,0.0,0.0,1.0,0.0,0.0,0.0,1.0,-0.0982614979148,0.0605798363686,0.0817370265722,1.21846967915e-07,0.0,0.0,0.0,1.21846967915e-07,0.0,0.0,0.0,1.21846967915e-07,0.26477955,0.20593965,8.56120545,9e-08,0.0,0.0,0.0,9e-08,0.0,0.0,0.0,9e-08
1532985338257040076,2973,1532985338256551787,base_link,0.10453117881,0.112443430872,-0.665569524827,-0.730374503342,1.0,0.0,0.0,0.0,1.0,0.0,0.0,0.0,1.0,0.088510401547,0.0722880065441,0.130539909005,1.21846967915e-07,0.0,0.0,0.0,1.21846967915e-07,0.0,0.0,0.0,1.21846967915e-07,0.38245935,0.1372931,7.6884136,9e-08,0.0,0.0,0.0,9e-08,0.0,0.0,0.0,9e-08
1532985338593233274,2974,1532985338591781205,base_link,0.105203098615,0.0989609332408,-0.682856080517,-0.716133098687,1.0,0.0,0.0,0.0,1.0,0.0,0.0,0.0,1.0,0.0115991700441,0.0446931049228,0.178072586656,1.21846967915e-07,0.0,0.0,0.0,1.21846967915e-07,0.0,0.0,0.0,1.21846967915e-07,0.8237586,1.00761236451e-15,8.22777935,9e-08,0.0,0.0,0.0,9e-08,0.0,0.0,0.0,9e-08
1532985338925144811,2975,1532985338924797998,base_link,0.0887365011767,0.0692948764919,-0.714839280818,-0.690165817793,1.0,0.0,0.0,0.0,1.0,0.0,0.0,0.0,1.0,0.37177452445,-0.000921443104744,0.238507777452,1.21846967915e-07,0.0,0.0,0.0,1.21846967915e-07,0.0,0.0,0.0,1.21846967915e-07,1.01008495,-0.0392266,8.12971285,9e-08,0.0,0.0,0.0,9e-08,0.0,0.0,0.0,9e-08
1532985339401441071,2976,1532985339401193407,base_link,0.0464780660263,0.0267584830615,-0.743945283584,-0.666084970553,1.0,0.0,0.0,0.0,1.0,0.0,0.0,0.0,1.0,0.335316747427,-0.00248018838465,0.0214446783066,1.21846967915e-07,0.0,0.0,0.0,1.21846967915e-07,0.0,0.0,0.0,1.21846967915e-07,1.26505785,0.6864655,9.79684335,9e-08,0.0,0.0,0.0,9e-08,0.0,0.0,0.0,9e-08
1532985339890941334,2977,1532985339888849673,base_link,-0.0115200517052,-0.0269198029238,-0.740045870706,-0.671918686948,1.0,0.0,0.0,0.0,1.0,0.0,0.0,0.0,1.0,0.210698455572,-0.0282725375146,0.0320378020406,1.21846967915e-07,0.0,0.0,0.0,1.21846967915e-07,0.0,0.0,0.0,1.21846967915e-07,1.0002783,-0.14709975,10.2185293,9e-08,0.0,0.0,0.0,9e-08,0.0,0.0,0.0,9e-08
1532985340155602690,2978,1532985340154960668,base_link,-0.032158427558,-0.0414054364256,-0.746977216021,-0.662779347986,1.0,0.0,0.0,0.0,1.0,0.0,0.0,0.0,1.0,0.0731211975217,-0.00552281178534,0.0675232708454,1.21846967915e-07,0.0,0.0,0.0,1.21846967915e-07,0.0,0.0,0.0,1.21846967915e-07,0.8825985,0.7060788,11.3364874,9e-08,0.0,0.0,0.0,9e-08,0.0,0.0,0.0,9e-08
1532985340490232810,2979,1532985340489896106,base_link,-0.0433174922339,-0.0486285108175,-0.738216931964,-0.671412409897,1.0,0.0,0.0,0.0,1.0,0.0,0.0,0.0,1.0,0.147772073746,-0.082027323544,-0.137524977326,1.21846967915e-07,0.0,0.0,0.0,1.21846967915e-07,0.0,0.0,0.0,1.21846967915e-07,0.6472389,0.36284605,9.32612415,9e-08,0.0,0.0,0.0,9e-08,0.0,0.0,0.0,9e-08
1532985340818241918,2980,1532985340817751067,base_link,-0.0647036103544,-0.0495030666741,-0.722464922473,-0.686591090091,1.0,0.0,0.0,0.0,1.0,0.0,0.0,0.0,1.0,0.139809414744,-0.118091739714,-0.135693654418,1.21846967915e-07,0.0,0.0,0.0,1.21846967915e-07,0.0,0.0,0.0,1.21846967915e-07,0.63743225,0.6080123,12.7094184,9e-08,0.0,0.0,0.0,9e-08,0.0,0.0,0.0,9e-08
1532985341277958500,2981,1532985341277328283,base_link,-0.0690017819724,-0.0302884420705,-0.704002786656,-0.706187964173,1.0,0.0,0.0,0.0,1.0,0.0,0.0,0.0,1.0,0.0989557728171,-0.0546813085675,-0.114158302546,1.21846967915e-07,0.0,0.0,0.0,1.21846967915e-07,0.0,0.0,0.0,1.21846967915e-07,0.30400615,0.04903325,9.46341725,9e-08,0.0,0.0,0.0,9e-08,0.0,0.0,0.0,9e-08
1532985341740474718,2982,1532985341740205904,base_link,-0.078551173557,-0.0184215593399,-0.692817767816,-0.716584886725,1.0,0.0,0.0,0.0,1.0,0.0,0.0,0.0,1.0,-0.0294020697474,-0.0270064882934,-0.0537067726254,1.21846967915e-07,0.0,0.0,0.0,1.21846967915e-07,0.0,0.0,0.0,1.21846967915e-07,0.4903325,0.50013915,10.4342756,9e-08,0.0,0.0,0.0,9e-08,0.0,0.0,0.0,9e-08
1532985342194919228,2983,1532985342194554912,base_link,-0.0554295042389,0.00507116058396,-0.683182162663,-0.728123606271,1.0,0.0,0.0,0.0,1.0,0.0,0.0,0.0,1.0,-0.158276453614,0.0852847546339,-0.0755645558238,1.21846967915e-07,0.0,0.0,0.0,1.21846967915e-07,0.0,0.0,0.0,1.21846967915e-07,0.4314926,0.40207265,9.24767095,9e-08,0.0,0.0,0.0,9e-08,0.0,0.0,0.0,9e-08
1532985342461723211,2984,1532985342461115612,base_link,-0.0490859199453,0.00359117877282,-0.677209411751,-0.734142417065,1.0,0.0,0.0,0.0,1.0,0.0,0.0,0.0,1.0,-0.00918250530958,0.0272385813296,-0.0383041873574,1.21846967915e-07,0.0,0.0,0.0,1.21846967915e-07,0.0,0.0,0.0,1.21846967915e-07,0.6080123,-0.02941995,9.1397978,9e-08,0.0,0.0,0.0,9e-08,0.0,0.0,0.0,9e-08
1532985342848838064,2985,1532985342848551078,base_link,-0.036218826745,0.00534640455353,-0.684164653478,-0.728408085814,1.0,0.0,0.0,0.0,1.0,0.0,0.0,0.0,1.0,-0.0340878069401,0.0429028570652,0.0709836110473,1.21846967915e-07,0.0,0.0,0.0,1.21846967915e-07,0.0,0.0,0.0,1.21846967915e-07,1.20621795,-0.1372931,8.8063717,9e-08,0.0,0.0,0.0,9e-08,0.0,0.0,0.0,9e-08
1532985343245316591,2986,1532985343245076059,base_link,-0.0123022582091,0.00899469729469,-0.691562547079,-0.722155795754,1.0,0.0,0.0,0.0,1.0,0.0,0.0,0.0,1.0,-0.0861454084516,0.0716641023755,-0.023066021502,1.21846967915e-07,0.0,0.0,0.0,1.21846967915e-07,0.0,0.0,0.0,1.21846967915e-07,1.18660465,0.5099458,8.2179727,9e-08,0.0,0.0,0.0,9e-08,0.0,0.0,0.0,9e-08
1532985343613187716,2987,1532985343612753684,base_link,-0.0105524523055,0.00136639932533,-0.688317113803,-0.725331875453,1.0,0.0,0.0,0.0,1.0,0.0,0.0,0.0,1.0,0.160518795252,-0.00812727026641,-0.0229464694858,1.21846967915e-07,0.0,0.0,0.0,1.21846967915e-07,0.0,0.0,0.0,1.21846967915e-07,1.1964113,-0.0588399,8.9240515,9e-08,0.0,0.0,0.0,9e-08,0.0,0.0,0.0,9e-08
1532985343989222655,2988,1532985343988799533,base_link,-0.0436772173008,-0.027777420494,-0.692000645568,-0.720038764326,1.0,0.0,0.0,0.0,1.0,0.0,0.0,0.0,1.0,0.357416629791,-0.0179599635303,0.0312994495034,1.21846967915e-07,0.0,0.0,0.0,1.21846967915e-07,0.0,0.0,0.0,1.21846967915e-07,1.18660465,0.38245935,10.58137535,9e-08,0.0,0.0,0.0,9e-08,0.0,0.0,0.0,9e-08
1532985344267603051,2989,1532985344267197812,base_link,-0.0888088938073,-0.0619686737422,-0.684283744231,-0.721130100077,1.0,0.0,0.0,0.0,1.0,0.0,0.0,0.0,1.0,0.36242544651,-0.0718693435192,-0.0789988040924,1.21846967915e-07,0.0,0.0,0.0,1.21846967915e-07,0.0,0.0,0.0,1.21846967915e-07,0.85317855,0.32361945,10.8461549,9e-08,0.0,0.0,0.0,9e-08,0.0,0.0,0.0,9e-08
1532985344743460318,2990,1532985344742975478,base_link,-0.173086155237,-0.119418364904,-0.651576206252,-0.728854501554,1.0,0.0,0.0,0.0,1.0,0.0,0.0,0.0,1.0,0.52545183897,-0.0981737524271,-0.170073255897,1.21846967915e-07,0.0,0.0,0.0,1.21846967915e-07,0.0,0.0,0.0,1.21846967915e-07,0.784532,0.588399,11.375714,9e-08,0.0,0.0,0.0,9e-08,0.0,0.0,0.0,9e-08
1532985345049580003,2991,1532985345049164334,base_link,-0.230586004949,-0.152921968125,-0.613436697527,-0.739689383535,1.0,0.0,0.0,0.0,1.0,0.0,0.0,0.0,1.0,0.401633322239,-0.194391950965,-0.245850890875,1.21846967915e-07,0.0,0.0,0.0,1.21846967915e-07,0.0,0.0,0.0,1.21846967915e-07,1.28467115,0.3530394,11.44436055,9e-08,0.0,0.0,0.0,9e-08,0.0,0.0,0.0,9e-08
1532985345428568339,2992,1532985345428202580,base_link,-0.284110770487,-0.166384249643,-0.560273574807,-0.760059782475,1.0,0.0,0.0,0.0,1.0,0.0,0.0,0.0,1.0,0.0234341602772,-0.223736301064,-0.25834235549,1.21846967915e-07,0.0,0.0,0.0,1.21846967915e-07,0.0,0.0,0.0,1.21846967915e-07,1.24544455,0.65704555,10.32640245,9e-08,0.0,0.0,0.0,9e-08,0.0,0.0,0.0,9e-08
1532985345941399046,2993,1532985345941113817,base_link,-0.313813772288,-0.150689473962,-0.466132442355,-0.813347493353,1.0,0.0,0.0,0.0,1.0,0.0,0.0,0.0,1.0,0.138954609632,-0.347429424524,-0.346486538649,1.21846967915e-07,0.0,0.0,0.0,1.21846967915e-07,0.0,0.0,0.0,1.21846967915e-07,1.5102241,0.4707192,13.83718315,9e-08,0.0,0.0,0.0,9e-08,0.0,0.0,0.0,9e-08
1532985346306075661,2994,1532985346305799102,base_link,-0.3598275063,-0.117939042375,-0.408191341383,-0.830659001525,1.0,0.0,0.0,0.0,1.0,0.0,0.0,0.0,1.0,-0.186681509018,-0.384455800056,-0.185449361801,1.21846967915e-07,0.0,0.0,0.0,1.21846967915e-07,0.0,0.0,0.0,1.21846967915e-07,1.4709975,0.7453054,15.11204765,9e-08,0.0,0.0,0.0,9e-08,0.0,0.0,0.0,9e-08
1532985346734815582,2995,1532985346734557227,base_link,-0.342108501731,-0.0767256287822,-0.329768727829,-0.876542946511,1.0,0.0,0.0,0.0,1.0,0.0,0.0,0.0,1.0,-0.0727836489677,-0.215898662806,-0.463120222092,1.21846967915e-07,0.0,0.0,0.0,1.21846967915e-07,0.0,0.0,0.0,1.21846967915e-07,1.0002783,0.8629852,10.8069283,9e-08,0.0,0.0,0.0,9e-08,0.0,0.0,0.0,9e-08
1532985347283207076,2996,1532985347282859009,base_link,-0.377602751619,-0.040768411656,-0.197111396951,-0.903825865846,1.0,0.0,0.0,0.0,1.0,0.0,0.0,0.0,1.0,0.167201444507,-0.455191999674,-0.284810006618,1.21846967915e-07,0.0,0.0,0.0,1.21846967915e-07,0.0,0.0,0.0,1.21846967915e-07,1.38273765,1.73179622124e-15,14.1411893,9e-08,0.0,0.0,0.0,9e-08,0.0,0.0,0.0,9e-08
1532985347621198437,2997,1532985347620789069,base_link,-0.392822920551,0.0135320861196,-0.134776747033,-0.909583566361,1.0,0.0,0.0,0.0,1.0,0.0,0.0,0.0,1.0,-0.187321871519,-0.423792898655,-0.24294732511,1.21846967915e-07,0.0,0.0,0.0,1.21846967915e-07,0.0,0.0,0.0,1.21846967915e-07,1.7063571,0.83356525,13.77834325,9e-08,0.0,0.0,0.0,9e-08,0.0,0.0,0.0,9e-08
1532985348084908781,2998,1532985348084688595,base_link,-0.351025790833,0.0652529076371,-0.0259640193803,-0.933728451913,1.0,0.0,0.0,0.0,1.0,0.0,0.0,0.0,1.0,-0.311897307634,-0.29121914506,-0.380515158176,1.21846967915e-07,0.0,0.0,0.0,1.21846967915e-07,0.0,0.0,0.0,1.21846967915e-07,1.01008495,0.93163175,13.05265115,9e-08,0.0,0.0,0.0,9e-08,0.0,0.0,0.0,9e-08
1532985348500907799,2999,1532985348500564306,base_link,-0.283674756373,0.098766581082,0.0616315487349,-0.951827372615,1.0,0.0,0.0,0.0,1.0,0.0,0.0,0.0,1.0,-0.507061302662,-0.23902580142,-0.221475452185,1.21846967915e-07,0.0,0.0,0.0,1.21846967915e-07,0.0,0.0,0.0,1.21846967915e-07,1.14737805,0.46091255,14.9845612,9e-08,0.0,0.0,0.0,9e-08,0.0,0.0,0.0,9e-08
1532985348988732826,3000,1532985348988479878,base_link,-0.159635950078,0.107780533328,0.129146045552,-0.972738926432,1.0,0.0,0.0,0.0,1.0,0.0,0.0,0.0,1.0,-0.561647474766,-0.027270745486,-0.219091787934,1.21846967915e-07,0.0,0.0,0.0,1.21846967915e-07,0.0,0.0,0.0,1.21846967915e-07,0.0588399,0.91201845,9.79684335,9e-08,0.0,0.0,0.0,9e-08,0.0,0.0,0.0,9e-08
1532985349481922471,3001,1532985349481575234,base_link,-0.0538306971157,0.0841559170767,0.171075447352,-0.980180202301,1.0,0.0,0.0,0.0,1.0,0.0,0.0,0.0,1.0,-0.261863797903,0.0523468926549,-0.0107943750918,1.21846967915e-07,0.0,0.0,0.0,1.21846967915e-07,0.0,0.0,0.0,1.21846967915e-07,0.6080123,0.16671305,9.93413645,9e-08,0.0,0.0,0.0,9e-08,0.0,0.0,0.0,9e-08
1532985349850529687,3002,1532985349846136164,base_link,0.00533147450359,0.0514527001606,0.176951550479,-0.982859269585,1.0,0.0,0.0,0.0,1.0,0.0,0.0,0.0,1.0,-0.309752941132,0.162626504898,-0.0269392728806,1.21846967915e-07,0.0,0.0,0.0,1.21846967915e-07,0.0,0.0,0.0,1.21846967915e-07,0.4314926,0.2745862,6.276256,9e-08,0.0,0.0,0.0,9e-08,0.0,0.0,0.0,9e-08
1532985350146176939,3003,1532985350145670720,base_link,0.0280169419444,0.0178071108704,0.187720276977,-0.981661375108,1.0,0.0,0.0,0.0,1.0,0.0,0.0,0.0,1.0,-0.0630883798003,0.206682771444,-0.0674576163292,1.21846967915e-07,0.0,0.0,0.0,1.21846967915e-07,0.0,0.0,0.0,1.21846967915e-07,0.93163175,0.0588399,5.4524974,9e-08,0.0,0.0,0.0,9e-08,0.0,0.0,0.0,9e-08
1532985350575769877,3004,1532985350575499970,base_link,0.0355846021116,-0.0256616649585,0.191853177948,-0.980442539446,1.0,0.0,0.0,0.0,1.0,0.0,0.0,0.0,1.0,-0.0335928685963,0.177853494883,-0.00265904166736,1.21846967915e-07,0.0,0.0,0.0,1.21846967915e-07,0.0,0.0,0.0,1.21846967915e-07,1.18660465,7.54208063064e-16,6.1585762,9e-08,0.0,0.0,0.0,9e-08,0.0,0.0,0.0,9e-08
1532985350983786509,3005,1532985350983497694,base_link,0.0376985107695,-0.0479811779798,0.178746251246,-0.98200122531,1.0,0.0,0.0,0.0,1.0,0.0,0.0,0.0,1.0,-0.0647569596767,0.0324857309461,0.0791124552488,1.21846967915e-07,0.0,0.0,0.0,1.21846967915e-07,0.0,0.0,0.0,1.21846967915e-07,1.569064,0.46091255,10.91480145,9e-08,0.0,0.0,0.0,9e-08,0.0,0.0,0.0,9e-08
1532985351453279481,3006,1532985351452654625,base_link,0.0520455814386,-0.0528388853704,0.129265355012,-0.988832532656,1.0,0.0,0.0,0.0,1.0,0.0,0.0,0.0,1.0,-0.351271241903,-0.0257843099535,0.133304059505,1.21846967915e-07,0.0,0.0,0.0,1.21846967915e-07,0.0,0.0,0.0,1.21846967915e-07,1.38273765,0.91201845,11.93469305,9e-08,0.0,0.0,0.0,9e-08,0.0,0.0,0.0,9e-08
1532985351902493842,3007,1532985351902261688,base_link,0.0713326745632,-0.0357963283374,0.13590743484,-0.987501615985,1.0,0.0,0.0,0.0,1.0,0.0,0.0,0.0,1.0,0.0178096555173,-0.145977571607,0.0703242495656,1.21846967915e-07,0.0,0.0,0.0,1.21846967915e-07,0.0,0.0,0.0,1.21846967915e-07,0.73549875,-0.32361945,11.89546645,9e-08,0.0,0.0,0.0,9e-08,0.0,0.0,0.0,9e-08
1532985352235190804,3008,1532985352234443119,base_link,0.0560205658086,-0.00886043025873,0.108055499966,-0.992525666121,1.0,0.0,0.0,0.0,1.0,0.0,0.0,0.0,1.0,0.0479947701097,-0.124956719577,0.18391533196,1.21846967915e-07,0.0,0.0,0.0,1.21846967915e-07,0.0,0.0,0.0,1.21846967915e-07,0.4903325,-0.36284605,13.93524965,9e-08,0.0,0.0,0.0,9e-08,0.0,0.0,0.0,9e-08
1532985352706670005,3009,1532985352706342858,base_link,0.0205603169228,0.0125533832218,0.0778171891754,-0.996676562886,1.0,0.0,0.0,0.0,1.0,0.0,0.0,0.0,1.0,0.184185951948,-0.0262814983726,0.0997614264488,1.21846967915e-07,0.0,0.0,0.0,1.21846967915e-07,0.0,0.0,0.0,1.21846967915e-07,-0.04903325,0.00980665,11.0422879,9e-08,0.0,0.0,0.0,9e-08,0.0,0.0,0.0,9e-08
1532985353080610269,3010,1532985353080315085,base_link,0.0268083377273,-0.00306008966535,0.092601124756,-0.9953376214,1.0,0.0,0.0,0.0,1.0,0.0,0.0,0.0,1.0,-0.0806460678577,0.157820627093,-0.325160086155,1.21846967915e-07,0.0,0.0,0.0,1.21846967915e-07,0.0,0.0,0.0,1.21846967915e-07,0.0392266,1.01008495,6.9823348,9e-08,0.0,0.0,0.0,9e-08,0.0,0.0,0.0,9e-08
1532985353484983493,3011,1532985353484562794,base_link,-0.0194225604186,-0.0136774692661,0.142679044079,-0.989483896464,1.0,0.0,0.0,0.0,1.0,0.0,0.0,0.0,1.0,0.379020392895,0.0602902919054,-0.108796581626,1.21846967915e-07,0.0,0.0,0.0,1.21846967915e-07,0.0,0.0,0.0,1.21846967915e-07,0.32361945,-0.6472389,7.1196279,9e-08,0.0,0.0,0.0,9e-08,0.0,0.0,0.0,9e-08
1532985353972778822,3012,1532985353972536237,base_link,-0.0390189350133,-0.00995402436774,0.095111524471,-0.994651817483,1.0,0.0,0.0,0.0,1.0,0.0,0.0,0.0,1.0,-0.256841987371,-0.0073959864676,0.23611292243,1.21846967915e-07,0.0,0.0,0.0,1.21846967915e-07,0.0,0.0,0.0,1.21846967915e-07,0.8237586,0.5491724,10.6892485,9e-08,0.0,0.0,0.0,9e-08,0.0,0.0,0.0,9e-08
1532985354408043468,3013,1532985354407776215,base_link,0.00508983595691,-0.0186880019377,0.0852781622565,-0.996168904953,1.0,0.0,0.0,0.0,1.0,0.0,0.0,0.0,1.0,-0.011025512591,0.0239042937756,-0.089128151536,1.21846967915e-07,0.0,0.0,0.0,1.21846967915e-07,0.0,0.0,0.0,1.21846967915e-07,0.51975245,0.48052585,10.0616229,9e-08,0.0,0.0,0.0,9e-08,0.0,0.0,0.0,9e-08
1532985354903942666,3014,1532985354903239802,base_link,-0.0192818337398,-0.0112356772122,0.0865947712653,-0.995993632527,1.0,0.0,0.0,0.0,1.0,0.0,0.0,0.0,1.0,0.0743642747402,-0.0520214624703,0.114255852997,1.21846967915e-07,0.0,0.0,0.0,1.21846967915e-07,0.0,0.0,0.0,1.21846967915e-07,0.14709975,-0.51975245,10.30678915,9e-08,0.0,0.0,0.0,9e-08,0.0,0.0,0.0,9e-08
1532985355339212316,3015,1532985355338917259,base_link,-4.65301428134e-05,-0.00941659585065,0.0676915995762,-0.997661852986,1.0,0.0,0.0,0.0,1.0,0.0,0.0,0.0,1.0,-0.0739519000053,0.0126039665192,-0.0320642851293,1.21846967915e-07,0.0,0.0,0.0,1.21846967915e-07,0.0,0.0,0.0,1.21846967915e-07,-0.4314926,0.6472389,7.91396655,9e-08,0.0,0.0,0.0,9e-08,0.0,0.0,0.0,9e-08
1532985355801516326,3016,1532985355799850157,base_link,0.0124720010598,-0.0154094916578,0.0851588516654,-0.996170149492,1.0,0.0,0.0,0.0,1.0,0.0,0.0,0.0,1.0,0.105410724878,0.021645642817,-0.0775239989161,1.21846967915e-07,0.0,0.0,0.0,1.21846967915e-07,0.0,0.0,0.0,1.21846967915e-07,0.0,-0.06864655,8.6886919,9e-08,0.0,0.0,0.0,9e-08,0.0,0.0,0.0,9e-08
1532985356156647174,3017,1532985356156303643,base_link,-0.00889920600576,-0.012903539801,0.0861102208244,-0.99616230237,1.0,0.0,0.0,0.0,1.0,0.0,0.0,0.0,1.0,0.0561279952526,-0.0114456545562,0.0716900229454,1.21846967915e-07,0.0,0.0,0.0,1.21846967915e-07,0.0,0.0,0.0,1.21846967915e-07,-0.32361945,-0.14709975,8.77695175,9e-08,0.0,0.0,0.0,9e-08,0.0,0.0,0.0,9e-08
1532985356605487373,3018,1532985356605011991,base_link,-0.0060978019409,-0.0153184408452,0.0581177961811,-0.998173574058,1.0,0.0,0.0,0.0,1.0,0.0,0.0,0.0,1.0,-0.445249706507,0.0751102268696,0.0142983496189,1.21846967915e-07,0.0,0.0,0.0,1.21846967915e-07,0.0,0.0,0.0,1.21846967915e-07,0.16671305,0.8433719,10.5127288,9e-08,0.0,0.0,0.0,9e-08,0.0,0.0,0.0,9e-08
1532985356887701698,3019,1532985356886539703,base_link,0.0262691219549,-0.0284568728969,0.074646041867,-0.996457780365,1.0,0.0,0.0,0.0,1.0,0.0,0.0,0.0,1.0,0.0871470123529,0.0642092078924,-0.186321124434,1.21846967915e-07,0.0,0.0,0.0,1.21846967915e-07,0.0,0.0,0.0,1.21846967915e-07,0.1569064,0.04903325,9.42419065,9e-08,0.0,0.0,0.0,9e-08,0.0,0.0,0.0,9e-08
1532985357331545552,3020,1532985357331294966,base_link,2.67207332349e-05,-0.0286921432535,0.0771870165824,-0.996603694892,1.0,0.0,0.0,0.0,1.0,0.0,0.0,0.0,1.0,0.0327205844223,0.0116236265749,0.0783792212605,1.21846967915e-07,0.0,0.0,0.0,1.21846967915e-07,0.0,0.0,0.0,1.21846967915e-07,-0.16671305,0.32361945,10.0812362,9e-08,0.0,0.0,0.0,9e-08,0.0,0.0,0.0,9e-08
1532985357680223885,3021,1532985357679781521,base_link,-0.0227455179069,-0.0304384069157,0.0758163186282,-0.996397526407,1.0,0.0,0.0,0.0,1.0,0.0,0.0,0.0,1.0,-0.152319699526,0.030435776338,-0.0509245656431,1.21846967915e-07,0.0,0.0,0.0,1.21846967915e-07,0.0,0.0,0.0,1.21846967915e-07,-0.14709975,0.4707192,7.26672765,9e-08,0.0,0.0,0.0,9e-08,0.0,0.0,0.0,9e-08
1532985358122862187,3022,1532985358122351608,base_link,-0.00825534486043,-0.0360688943722,0.083652741085,-0.995807764104,1.0,0.0,0.0,0.0,1.0,0.0,0.0,0.0,1.0,-0.0133546609432,0.0173255298287,-0.0334677658975,1.21846967915e-07,0.0,0.0,0.0,1.21846967915e-07,0.0,0.0,0.0,1.21846967915e-07,0.20593965,0.588399,7.67860695,9e-08,0.0,0.0,0.0,9e-08,0.0,0.0,0.0,9e-08
1532985358422307315,3023,1532985358421596958,base_link,-0.0172176858222,-0.0335715411609,0.0855479175568,-0.99561943368,1.0,0.0,0.0,0.0,1.0,0.0,0.0,0.0,1.0,0.0420916937292,-0.0055525470525,-0.00206792890094,1.21846967915e-07,0.0,0.0,0.0,1.21846967915e-07,0.0,0.0,0.0,1.21846967915e-07,0.5099458,0.12748645,10.4735022,9e-08,0.0,0.0,0.0,9e-08,0.0,0.0,0.0,9e-08
1532985358837079956,3024,1532985358836616827,base_link,-0.0290204369927,-0.0311165262132,0.0804268913772,-0.995851942397,1.0,0.0,0.0,0.0,1.0,0.0,0.0,0.0,1.0,-0.108070001006,0.0225556697696,-0.0158578529954,1.21846967915e-07,0.0,0.0,0.0,1.21846967915e-07,0.0,0.0,0.0,1.21846967915e-07,0.3726527,1.0198916,8.7671451,9e-08,0.0,0.0,0.0,9e-08,0.0,0.0,0.0,9e-08
1532985359288871135,3025,1532985359288293461,base_link,-0.00559647054776,-0.0312111142099,0.109354481108,-0.993496926683,1.0,0.0,0.0,0.0,1.0,0.0,0.0,0.0,1.0,-0.0178506933153,-0.0656955838203,-0.0708595514297,1.21846967915e-07,0.0,0.0,0.0,1.21846967915e-07,0.0,0.0,0.0,1.21846967915e-07,0.36284605,-0.0196133,11.3953273,9e-08,0.0,0.0,0.0,9e-08,0.0,0.0,0.0,9e-08
1532985359647385029,3026,1532985359645344247,base_link,-0.00977031305662,-0.0152556037525,0.10383405032,-0.994429634278,1.0,0.0,0.0,0.0,1.0,0.0,0.0,0.0,1.0,-0.00749192666262,-0.0920991823077,0.0670559182763,1.21846967915e-07,0.0,0.0,0.0,1.21846967915e-07,0.0,0.0,0.0,1.21846967915e-07,0.3334261,0.1372931,11.6895268,9e-08,0.0,0.0,0.0,9e-08,0.0,0.0,0.0,9e-08
1532985360079706677,3027,1532985360079036408,base_link,-0.0185359825933,0.00480849913917,0.0907608210438,-0.995688590398,1.0,0.0,0.0,0.0,1.0,0.0,0.0,0.0,1.0,-0.103107765317,-0.0652003288269,0.0270927585661,1.21846967915e-07,0.0,0.0,0.0,1.21846967915e-07,0.0,0.0,0.0,1.21846967915e-07,-0.04903325,0.04903325,11.4541672,9e-08,0.0,0.0,0.0,9e-08,0.0,0.0,0.0,9e-08
1532985360483066453,3028,1532985360482533092,base_link,0.00194430667945,0.0124647101168,0.0932520830281,-0.995562604603,1.0,0.0,0.0,0.0,1.0,0.0,0.0,0.0,1.0,-0.201033741236,-0.0566561073065,-0.0493191555142,1.21846967915e-07,0.0,0.0,0.0,1.21846967915e-07,0.0,0.0,0.0,1.21846967915e-07,-0.1372931,0.65704555,10.07142955,9e-08,0.0,0.0,0.0,9e-08,0.0,0.0,0.0,9e-08
1532985360813371368,3029,1532985360812922314,base_link,0.0169309265067,0.0147980300141,0.0979852839539,-0.994933789839,1.0,0.0,0.0,0.0,1.0,0.0,0.0,0.0,1.0,0.0195187665522,-0.00791941210628,-0.0138600291684,1.21846967915e-07,0.0,0.0,0.0,1.21846967915e-07,0.0,0.0,0.0,1.21846967915e-07,-0.0980665,0.40207265,10.4735022,9e-08,0.0,0.0,0.0,9e-08,0.0,0.0,0.0,9e-08
1532985361233034212,3030,1532985361231966272,base_link,0.015616987278,0.0193583462377,0.0954373492748,-0.995124653751,1.0,0.0,0.0,0.0,1.0,0.0,0.0,0.0,1.0,0.0166874751449,-0.0133755244315,0.0468235425651,1.21846967915e-07,0.0,0.0,0.0,1.21846967915e-07,0.0,0.0,0.0,1.21846967915e-07,0.196133,-0.3726527,10.34601575,9e-08,0.0,0.0,0.0,9e-08,0.0,0.0,0.0,9e-08
1532985361494399559,3031,1532985361493968710,base_link,0.0154560896829,0.0203605052193,0.08126911922,-0.996364335662,1.0,0.0,0.0,0.0,1.0,0.0,0.0,0.0,1.0,0.118479557335,-0.00466425344348,0.128079801798,1.21846967915e-07,0.0,0.0,0.0,1.21846967915e-07,0.0,0.0,0.0,1.21846967915e-07,0.16671305,0.04903325,9.610517,9e-08,0.0,0.0,0.0,9e-08,0.0,0.0,0.0,9e-08
1532985361749325749,3032,1532985361748981640,base_link,0.011192408582,0.0189461020861,0.0651610419583,-0.997632103441,1.0,0.0,0.0,0.0,1.0,0.0,0.0,0.0,1.0,-0.0917670875788,6.16014003754e-05,0.100814454257,1.21846967915e-07,0.0,0.0,0.0,1.21846967915e-07,0.0,0.0,0.0,1.21846967915e-07,0.2353596,0.4903325,10.5323421,9e-08,0.0,0.0,0.0,9e-08,0.0,0.0,0.0,9e-08
1532985362205488540,3033,1532985362203740632,base_link,0.0173233349967,0.00688274053711,0.0774565996347,-0.996821450973,1.0,0.0,0.0,0.0,1.0,0.0,0.0,0.0,1.0,0.053090699017,0.0493191070855,-0.111786194146,1.21846967915e-07,0.0,0.0,0.0,1.21846967915e-07,0.0,0.0,0.0,1.21846967915e-07,0.2549729,-0.30400615,9.5909037,9e-08,0.0,0.0,0.0,9e-08,0.0,0.0,0.0,9e-08
1532985362557294426,3034,1532985362556972136,base_link,-0.0253630880742,0.00547768089397,0.069674727061,-0.997232240345,1.0,0.0,0.0,0.0,1.0,0.0,0.0,0.0,1.0,0.226523861289,0.0137871652842,0.165875449777,1.21846967915e-07,0.0,0.0,0.0,1.21846967915e-07,0.0,0.0,0.0,1.21846967915e-07,0.18632635,-0.6080123,9.28689755,9e-08,0.0,0.0,0.0,9e-08,0.0,0.0,0.0,9e-08
1532985362877261888,3035,1532985362876876343,base_link,-0.0217910626485,0.00277195593555,0.0455447324279,-0.998720753363,1.0,0.0,0.0,0.0,1.0,0.0,0.0,0.0,1.0,-0.0801239311695,0.0373998507857,0.0570213496685,1.21846967915e-07,0.0,0.0,0.0,1.21846967915e-07,0.0,0.0,0.0,1.21846967915e-07,0.04903325,0.63743225,10.1596894,9e-08,0.0,0.0,0.0,9e-08,0.0,0.0,0.0,9e-08
1532985363324557591,3036,1532985363323952685,base_link,-0.0164274727151,-0.0154495478311,0.0614501771479,-0.997855362936,1.0,0.0,0.0,0.0,1.0,0.0,0.0,0.0,1.0,0.0242871679366,0.067358225584,-0.170830979943,1.21846967915e-07,0.0,0.0,0.0,1.21846967915e-07,0.0,0.0,0.0,1.21846967915e-07,0.40207265,0.3726527,7.24711435,9e-08,0.0,0.0,0.0,9e-08,0.0,0.0,0.0,9e-08
1532985363785611030,3037,1532985363782211449,base_link,-0.0558984277342,-0.0139319172309,0.083325770817,-0.994855810345,1.0,0.0,0.0,0.0,1.0,0.0,0.0,0.0,1.0,0.152531579137,-0.0105198174715,0.0139117678627,1.21846967915e-07,0.0,0.0,0.0,1.21846967915e-07,0.0,0.0,0.0,1.21846967915e-07,0.4314926,-0.3530394,10.8069283,9e-08,0.0,0.0,0.0,9e-08,0.0,0.0,0.0,9e-08
1532985364199339982,3038,1532985364198654926,base_link,-0.104715721392,-0.000249287356507,0.082288660391,-0.991091888737,1.0,0.0,0.0,0.0,1.0,0.0,0.0,0.0,1.0,0.455589652061,-0.0642452016473,0.000418266747147,1.21846967915e-07,0.0,0.0,0.0,1.21846967915e-07,0.0,0.0,0.0,1.21846967915e-07,0.2941995,-0.14709975,11.5914603,9e-08,0.0,0.0,0.0,9e-08,0.0,0.0,0.0,9e-08
1532985364641896188,3039,1532985364641675195,base_link,-0.200222029213,0.0189239147952,0.0989309625343,-0.974559228123,1.0,0.0,0.0,0.0,1.0,0.0,0.0,0.0,1.0,0.00653161015362,-0.079572185874,-0.122496791184,1.21846967915e-07,0.0,0.0,0.0,1.21846967915e-07,0.0,0.0,0.0,1.21846967915e-07,-0.2353596,0.77472535,10.18910935,9e-08,0.0,0.0,0.0,9e-08,0.0,0.0,0.0,9e-08
1532985365086056166,3040,1532985365083553472,base_link,-0.222046099476,0.0307278921562,0.149814392083,-0.962967795036,1.0,0.0,0.0,0.0,1.0,0.0,0.0,0.0,1.0,0.170362338424,-0.130446583033,-0.260187387466,1.21846967915e-07,0.0,0.0,0.0,1.21846967915e-07,0.0,0.0,0.0,1.21846967915e-07,0.0196133,0.6080123,11.2384209,9e-08,0.0,0.0,0.0,9e-08,0.0,0.0,0.0,9e-08
1532985365498592465,3041,1532985365498129073,base_link,-0.274781304163,0.0626654164131,0.197236745218,-0.938970684741,1.0,0.0,0.0,0.0,1.0,0.0,0.0,0.0,1.0,0.271210074425,-0.219042062759,-0.16063554585,1.21846967915e-07,0.0,0.0,0.0,1.21846967915e-07,0.0,0.0,0.0,1.21846967915e-07,0.0196133,0.59820565,11.73856005,9e-08,0.0,0.0,0.0,9e-08,0.0,0.0,0.0,9e-08
1532985365878129774,3042,1532985365877819961,base_link,-0.29767199354,0.0900468450147,0.242315239698,-0.919002869732,1.0,0.0,0.0,0.0,1.0,0.0,0.0,0.0,1.0,-0.0415991321206,-0.167956516147,-0.31157541275,1.21846967915e-07,0.0,0.0,0.0,1.21846967915e-07,0.0,0.0,0.0,1.21846967915e-07,0.4903325,0.95124505,13.0428445,9e-08,0.0,0.0,0.0,9e-08,0.0,0.0,0.0,9e-08
1532985366240755500,3043,1532985366240341412,base_link,-0.303510027517,0.105236442342,0.311494131317,-0.894303282201,1.0,0.0,0.0,0.0,1.0,0.0,0.0,0.0,1.0,0.0938407033682,-0.260410219431,-0.364743351936,1.21846967915e-07,0.0,0.0,0.0,1.21846967915e-07,0.0,0.0,0.0,1.21846967915e-07,0.2941995,0.2549729,11.8856598,9e-08,0.0,0.0,0.0,9e-08,0.0,0.0,0.0,9e-08
1532985366543900613,3044,1532985366543543958,base_link,-0.333464239168,0.142960757886,0.360677907513,-0.85922946291,1.0,0.0,0.0,0.0,1.0,0.0,0.0,0.0,1.0,0.156135052443,-0.308639138937,-0.269294381142,1.21846967915e-07,0.0,0.0,0.0,1.21846967915e-07,0.0,0.0,0.0,1.21846967915e-07,0.1176798,0.50013915,11.11093445,9e-08,0.0,0.0,0.0,9e-08,0.0,0.0,0.0,9e-08
1532985366946034976,3045,1532985366945512263,base_link,-0.315974307787,0.183838478206,0.423827930786,-0.828693873414,1.0,0.0,0.0,0.0,1.0,0.0,0.0,0.0,1.0,0.0591475702822,-0.350154131651,-0.250043720007,1.21846967915e-07,0.0,0.0,0.0,1.21846967915e-07,0.0,0.0,0.0,1.21846967915e-07,0.40207265,0.6080123,13.6900834,9e-08,0.0,0.0,0.0,9e-08,0.0,0.0,0.0,9e-08
1532985367281858678,3046,1532985367281101564,base_link,-0.285958117092,0.198970576642,0.478560112011,-0.805989382121,1.0,0.0,0.0,0.0,1.0,0.0,0.0,0.0,1.0,-0.249083936214,-0.219840615988,-0.278747737408,1.21846967915e-07,0.0,0.0,0.0,1.21846967915e-07,0.0,0.0,0.0,1.21846967915e-07,0.30400615,0.2157463,12.0621795,9e-08,0.0,0.0,0.0,9e-08,0.0,0.0,0.0,9e-08
1532985367695112005,3047,1532985367694767987,base_link,-0.254658165993,0.219807287045,0.542019624465,-0.770096553524,1.0,0.0,0.0,0.0,1.0,0.0,0.0,0.0,1.0,-0.0903782993555,-0.271572351456,-0.231700465083,1.21846967915e-07,0.0,0.0,0.0,1.21846967915e-07,0.0,0.0,0.0,1.21846967915e-07,0.0588399,0.65704555,12.09159945,9e-08,0.0,0.0,0.0,9e-08,0.0,0.0,0.0,9e-08
1532985368192979865,3048,1532985368192736505,base_link,-0.174822839238,0.190124254464,0.621909555064,-0.739268725204,1.0,0.0,0.0,0.0,1.0,0.0,0.0,0.0,1.0,-0.354003846645,-0.104577578604,-0.313138902187,1.21846967915e-07,0.0,0.0,0.0,1.21846967915e-07,0.0,0.0,0.0,1.21846967915e-07,-0.02941995,0.71588545,10.58137535,9e-08,0.0,0.0,0.0,9e-08,0.0,0.0,0.0,9e-08
1532985368569679732,3049,1532985368565330069,base_link,-0.149156144542,0.176460742025,0.666319461976,-0.708965743645,1.0,0.0,0.0,0.0,1.0,0.0,0.0,0.0,1.0,0.0398191325366,-0.124927125871,-0.20981541276,1.21846967915e-07,0.0,0.0,0.0,1.21846967915e-07,0.0,0.0,0.0,1.21846967915e-07,0.3334261,1.28743796752e-15,10.5127288,9e-08,0.0,0.0,0.0,9e-08,0.0,0.0,0.0,9e-08
1532985368966388656,3050,1532985368966023457,base_link,0.113061444258,-0.161120079312,-0.694606504404,0.691938750111,1.0,0.0,0.0,0.0,1.0,0.0,0.0,0.0,1.0,-0.55164951086,-0.0551187247038,-0.11435393244,1.21846967915e-07,0.0,0.0,0.0,1.21846967915e-07,0.0,0.0,0.0,1.21846967915e-07,0.65704555,0.5099458,10.0616229,9e-08,0.0,0.0,0.0,9e-08,0.0,0.0,0.0,9e-08
1532985369400713222,3051,1532985369400323545,base_link,0.0475150142302,-0.0847127504258,-0.733491283023,0.672723279713,1.0,0.0,0.0,0.0,1.0,0.0,0.0,0.0,1.0,-0.232446148992,0.00437065027654,-0.0888583436608,1.21846967915e-07,0.0,0.0,0.0,1.21846967915e-07,0.0,0.0,0.0,1.21846967915e-07,0.4314926,0.18632635,10.56176205,9e-08,0.0,0.0,0.0,9e-08,0.0,0.0,0.0,9e-08
1532985369737609197,3052,1532985369737382827,base_link,0.0108743773539,-0.0452034605441,-0.735936995939,0.675451799228,1.0,0.0,0.0,0.0,1.0,0.0,0.0,0.0,1.0,-0.374709367752,0.0103193037212,0.0435940548778,1.21846967915e-07,0.0,0.0,0.0,1.21846967915e-07,0.0,0.0,0.0,1.21846967915e-07,0.69627215,0.4707192,9.3751574,9e-08,0.0,0.0,0.0,9e-08,0.0,0.0,0.0,9e-08
1532985370172367777,3053,1532985370171096549,base_link,-0.0190071125569,0.00102901709592,-0.740264578992,0.67204614714,1.0,0.0,0.0,0.0,1.0,0.0,0.0,0.0,1.0,-0.0129512706771,0.0184634774923,0.00746820447966,1.21846967915e-07,0.0,0.0,0.0,1.21846967915e-07,0.0,0.0,0.0,1.21846967915e-07,0.7453054,0.22555295,10.11065615,9e-08,0.0,0.0,0.0,9e-08,0.0,0.0,0.0,9e-08
1532985370440255446,3054,1532985370439989912,base_link,-0.0190666300657,0.00875209736825,-0.735031829353,0.677707956459,1.0,0.0,0.0,0.0,1.0,0.0,0.0,0.0,1.0,-0.0459542199969,0.0757078900933,0.0804873555899,1.21846967915e-07,0.0,0.0,0.0,1.21846967915e-07,0.0,0.0,0.0,1.21846967915e-07,0.8433719,0.4707192,8.87501825,9e-08,0.0,0.0,0.0,9e-08,0.0,0.0,0.0,9e-08
1532985370767815799,3055,1532985370767542170,base_link,-0.022867797196,0.0326036606138,-0.738755343569,0.672796111399,1.0,0.0,0.0,0.0,1.0,0.0,0.0,0.0,1.0,-0.0496858507395,0.108039155602,-0.0859964117408,1.21846967915e-07,0.0,0.0,0.0,1.21846967915e-07,0.0,0.0,0.0,1.21846967915e-07,0.784532,0.2745862,7.7472535,9e-08,0.0,0.0,0.0,9e-08,0.0,0.0,0.0,9e-08
1532985371085139213,3056,1532985371084794553,base_link,-0.00640554521352,0.0248746835474,-0.739198685973,0.672997415868,1.0,0.0,0.0,0.0,1.0,0.0,0.0,0.0,1.0,0.133735179901,0.0177068598568,0.0981506109238,1.21846967915e-07,0.0,0.0,0.0,1.21846967915e-07,0.0,0.0,0.0,1.21846967915e-07,0.95124505,-0.2157463,9.34573745,9e-08,0.0,0.0,0.0,9e-08,0.0,0.0,0.0,9e-08
1532985371556180617,3057,1532985371555891854,base_link,-0.00808810957159,0.0275808909958,-0.723303084733,0.689932260843,1.0,0.0,0.0,0.0,1.0,0.0,0.0,0.0,1.0,-0.0281537175179,0.00983011350036,0.066270455718,1.21846967915e-07,0.0,0.0,0.0,1.21846967915e-07,0.0,0.0,0.0,1.21846967915e-07,0.53936575,0.48052585,9.7870367,9e-08,0.0,0.0,0.0,9e-08,0.0,0.0,0.0,9e-08
1532985372015352282,3058,1532985372014933551,base_link,-0.00555013529831,0.0221459077144,-0.723507643048,0.689938725701,1.0,0.0,0.0,0.0,1.0,0.0,0.0,0.0,1.0,0.0288712121546,-0.00945337861776,-0.0194244682789,1.21846967915e-07,0.0,0.0,0.0,1.21846967915e-07,0.0,0.0,0.0,1.21846967915e-07,0.48052585,1.16373823743e-15,9.50264385,9e-08,0.0,0.0,0.0,9e-08,0.0,0.0,0.0,9e-08
1532985372486007955,3059,1532985372485625219,base_link,0.00730158049531,-3.59109382998e-05,-0.719398075001,0.694559641296,1.0,0.0,0.0,0.0,1.0,0.0,0.0,0.0,1.0,0.12513846159,-0.00130170956254,0.0749436244369,1.21846967915e-07,0.0,0.0,0.0,1.21846967915e-07,0.0,0.0,0.0,1.21846967915e-07,0.5295591,-0.1569064,10.97364135,9e-08,0.0,0.0,0.0,9e-08,0.0,0.0,0.0,9e-08
1532985372795554944,3060,1532985372795319870,base_link,0.0164949845011,-0.0121704936024,-0.719107244787,0.694596692381,1.0,0.0,0.0,0.0,1.0,0.0,0.0,0.0,1.0,0.0411856546998,-0.0180468335748,-0.0556972809136,1.21846967915e-07,0.0,0.0,0.0,1.21846967915e-07,0.0,0.0,0.0,1.21846967915e-07,0.1176798,0.588399,10.2577559,9e-08,0.0,0.0,0.0,9e-08,0.0,0.0,0.0,9e-08
1532985373155020797,3061,1532985373154391211,base_link,0.0227531618133,-0.0268235091413,-0.725641032495,0.687173838956,1.0,0.0,0.0,0.0,1.0,0.0,0.0,0.0,1.0,0.111902162433,-0.029681481421,-0.0517645850778,1.21846967915e-07,0.0,0.0,0.0,1.21846967915e-07,0.0,0.0,0.0,1.21846967915e-07,0.50013915,-0.10787315,10.58137535,9e-08,0.0,0.0,0.0,9e-08,0.0,0.0,0.0,9e-08
1532985373450169508,3062,1532985373446659606,base_link,0.0330592946345,-0.0447293473139,-0.727692914708,0.683644198696,1.0,0.0,0.0,0.0,1.0,0.0,0.0,0.0,1.0,0.172296643257,-0.0132434181869,-0.014336486347,1.21846967915e-07,0.0,0.0,0.0,1.21846967915e-07,0.0,0.0,0.0,1.21846967915e-07,-0.00980665,0.196133,10.0812362,9e-08,0.0,0.0,0.0,9e-08,0.0,0.0,0.0,9e-08
1532985373782834058,3063,1532985373781024618,base_link,0.0424487974678,-0.058595207699,-0.728407404242,0.681312963824,1.0,0.0,0.0,0.0,1.0,0.0,0.0,0.0,1.0,-0.0640980303288,0.0200853105634,-0.0201988779008,1.21846967915e-07,0.0,0.0,0.0,1.21846967915e-07,0.0,0.0,0.0,1.21846967915e-07,0.3138128,0.2353596,9.62032365,9e-08,0.0,0.0,0.0,9e-08,0.0,0.0,0.0,9e-08
1532985374176398703,3064,1532985374176108434,base_link,0.017442170551,-0.0271609016055,-0.738577373723,0.673395514638,1.0,0.0,0.0,0.0,1.0,0.0,0.0,0.0,1.0,-0.102309182286,0.0155240288004,-0.0336865372956,1.21846967915e-07,0.0,0.0,0.0,1.21846967915e-07,0.0,0.0,0.0,1.21846967915e-07,0.3530394,-0.1372931,10.07142955,9e-08,0.0,0.0,0.0,9e-08,0.0,0.0,0.0,9e-08
1532985374548646756,3065,1532985374548193276,base_link,0.00787065274184,-0.0112270027262,-0.7426077336,0.669586261234,1.0,0.0,0.0,0.0,1.0,0.0,0.0,0.0,1.0,-0.194459289312,0.00110544450581,-0.0246456693858,1.21846967915e-07,0.0,0.0,0.0,1.21846967915e-07,0.0,0.0,0.0,1.21846967915e-07,0.392266,0.28439285,9.022118,9e-08,0.0,0.0,0.0,9e-08,0.0,0.0,0.0,9e-08
1532985374984645949,3066,1532985374984356608,base_link,-0.0148887821422,0.0170516915961,-0.743662691862,0.668171658118,1.0,0.0,0.0,0.0,1.0,0.0,0.0,0.0,1.0,-0.0321364253759,-0.0122965015471,-0.00263832043856,1.21846967915e-07,0.0,0.0,0.0,1.21846967915e-07,0.0,0.0,0.0,1.21846967915e-07,0.18632635,0.2157463,9.67916355,9e-08,0.0,0.0,0.0,9e-08,0.0,0.0,0.0,9e-08
1532985375458242179,3067,1532985375457821301,base_link,-0.00275203238171,0.0066625366646,-0.739421263772,0.673204450078,1.0,0.0,0.0,0.0,1.0,0.0,0.0,0.0,1.0,-0.068863555789,0.0258697401732,0.0521695204079,1.21846967915e-07,0.0,0.0,0.0,1.21846967915e-07,0.0,0.0,0.0,1.21846967915e-07,0.4707192,0.44129925,10.2969825,9e-08,0.0,0.0,0.0,9e-08,0.0,0.0,0.0,9e-08
1532985375864350526,3068,1532985375864141879,base_link,-0.0358892597917,0.0542993848538,-0.737701362636,0.671982319262,1.0,0.0,0.0,0.0,1.0,0.0,0.0,0.0,1.0,0.0331240110099,0.0521565191448,-0.00759806158021,1.21846967915e-07,0.0,0.0,0.0,1.21846967915e-07,0.0,0.0,0.0,1.21846967915e-07,0.50013915,-0.3530394,9.42419065,9e-08,0.0,0.0,0.0,9e-08,0.0,0.0,0.0,9e-08
1532985376173393995,3069,1532985376173106957,base_link,-0.000329802399742,0.014116124945,-0.731279024747,0.68193226512,1.0,0.0,0.0,0.0,1.0,0.0,0.0,0.0,1.0,0.219704911113,-0.0450267717242,0.209694251418,1.21846967915e-07,0.0,0.0,0.0,1.21846967915e-07,0.0,0.0,0.0,1.21846967915e-07,0.20593965,-0.08825985,9.7870367,9e-08,0.0,0.0,0.0,9e-08,0.0,0.0,0.0,9e-08
1532985376608962341,3070,1532985376608462625,base_link,0.0139863720075,-0.0104979576291,-0.714246482188,0.699675737014,1.0,0.0,0.0,0.0,1.0,0.0,0.0,0.0,1.0,0.077885389328,0.00905331317335,0.0109234759584,1.21846967915e-07,0.0,0.0,0.0,1.21846967915e-07,0.0,0.0,0.0,1.21846967915e-07,0.3334261,0.1372931,10.93441475,9e-08,0.0,0.0,0.0,9e-08,0.0,0.0,0.0,9e-08
1532985376999688096,3071,1532985376999479992,base_link,0.00735067701772,0.0017408285951,-0.715388503601,0.698686071122,1.0,0.0,0.0,0.0,1.0,0.0,0.0,0.0,1.0,-0.145027920604,0.0418737716973,-0.0576159730554,1.21846967915e-07,0.0,0.0,0.0,1.21846967915e-07,0.0,0.0,0.0,1.21846967915e-07,0.3334261,0.6668522,8.85540495,9e-08,0.0,0.0,0.0,9e-08,0.0,0.0,0.0,9e-08
1532985377438629271,3072,1532985377438190091,base_link,0.0291768579197,-0.000628006348715,-0.733379255957,0.679193038466,1.0,0.0,0.0,0.0,1.0,0.0,0.0,0.0,1.0,0.273224592209,0.0412535518408,-0.0784814953804,1.21846967915e-07,0.0,0.0,0.0,1.21846967915e-07,0.0,0.0,0.0,1.21846967915e-07,0.0588399,-0.0196133,7.9237732,9e-08,0.0,0.0,0.0,9e-08,0.0,0.0,0.0,9e-08
1532985377849498753,3073,1532985377849180455,base_link,0.0660002342219,-0.038058142339,-0.731260386728,0.677830210072,1.0,0.0,0.0,0.0,1.0,0.0,0.0,0.0,1.0,0.268182933331,0.0338958948851,0.0241136178374,1.21846967915e-07,0.0,0.0,0.0,1.21846967915e-07,0.0,0.0,0.0,1.21846967915e-07,-0.26477955,0.51975245,7.34518085,9e-08,0.0,0.0,0.0,9e-08,0.0,0.0,0.0,9e-08
1532985378250393214,3074,1532985378250047910,base_link,0.097846080111,-0.0737172916628,-0.735105611233,0.666792055929,1.0,0.0,0.0,0.0,1.0,0.0,0.0,0.0,1.0,0.21281003952,0.00715169496834,-0.0622520595789,1.21846967915e-07,0.0,0.0,0.0,1.21846967915e-07,0.0,0.0,0.0,1.21846967915e-07,0.00980665,0.4511059,9.05153795,9e-08,0.0,0.0,0.0,9e-08,0.0,0.0,0.0,9e-08
1532985378619737901,3075,1532985378617821898,base_link,0.126279569049,-0.114180731221,-0.732599902484,0.659024744558,1.0,0.0,0.0,0.0,1.0,0.0,0.0,0.0,1.0,0.0212851092219,0.00800207071006,-0.00135591486469,1.21846967915e-07,0.0,0.0,0.0,1.21846967915e-07,0.0,0.0,0.0,1.21846967915e-07,-0.12748645,1.08853815,10.60098865,9e-08,0.0,0.0,0.0,9e-08,0.0,0.0,0.0,9e-08
1532985378885061177,3076,1532985378884747101,base_link,0.132034262606,-0.116503472119,-0.747213586287,0.64083207703,1.0,0.0,0.0,0.0,1.0,0.0,0.0,0.0,1.0,0.11726847291,-0.028851987794,-0.248303428292,1.21846967915e-07,0.0,0.0,0.0,1.21846967915e-07,0.0,0.0,0.0,1.21846967915e-07,-0.1765197,0.91201845,9.71839015,9e-08,0.0,0.0,0.0,9e-08,0.0,0.0,0.0,9e-08
1532985379332553339,3077,1532985379330926995,base_link,0.161642669625,-0.16085327853,-0.778618550438,0.584594751136,1.0,0.0,0.0,0.0,1.0,0.0,0.0,0.0,1.0,0.20252583921,-0.16596108675,-0.274967670441,1.21846967915e-07,0.0,0.0,0.0,1.21846967915e-07,0.0,0.0,0.0,1.21846967915e-07,-0.48052585,0.57859235,10.395049,9e-08,0.0,0.0,0.0,9e-08,0.0,0.0,0.0,9e-08
1532985379860552929,3078,1532985379860262178,base_link,0.171437492318,-0.239577829293,-0.803318327436,0.517582181634,1.0,0.0,0.0,0.0,1.0,0.0,0.0,0.0,1.0,0.183318898082,-0.233820274472,-0.171873956919,1.21846967915e-07,0.0,0.0,0.0,1.21846967915e-07,0.0,0.0,0.0,1.21846967915e-07,-0.08825985,0.1569064,10.89518815,9e-08,0.0,0.0,0.0,9e-08,0.0,0.0,0.0,9e-08
1532985380180323903,3079,1532985380179977605,base_link,0.154294440756,-0.258522372331,-0.821351664059,0.484500621779,1.0,0.0,0.0,0.0,1.0,0.0,0.0,0.0,1.0,0.00330866780132,-0.211016997695,-0.226543024182,1.21846967915e-07,0.0,0.0,0.0,1.21846967915e-07,0.0,0.0,0.0,1.21846967915e-07,-0.30400615,0.4707192,10.87557485,9e-08,0.0,0.0,0.0,9e-08,0.0,0.0,0.0,9e-08
1532985380644381823,3080,1532985380643447623,base_link,0.131800600543,-0.281491747484,-0.853408925301,0.418430644207,1.0,0.0,0.0,0.0,1.0,0.0,0.0,0.0,1.0,-0.0447698906064,-0.223108708858,-0.2725058496,1.21846967915e-07,0.0,0.0,0.0,1.21846967915e-07,0.0,0.0,0.0,1.21846967915e-07,-0.18632635,0.83356525,11.5130071,9e-08,0.0,0.0,0.0,9e-08,0.0,0.0,0.0,9e-08
1532985381089943777,3081,1532985381089638434,base_link,0.100658363239,-0.263117011413,-0.890878117566,0.356333427924,1.0,0.0,0.0,0.0,1.0,0.0,0.0,0.0,1.0,-0.21002151072,-0.182421535254,-0.2646035254,1.21846967915e-07,0.0,0.0,0.0,1.21846967915e-07,0.0,0.0,0.0,1.21846967915e-07,-0.20593965,0.980665,12.3956056,9e-08,0.0,0.0,0.0,9e-08,0.0,0.0,0.0,9e-08
1532985381537315281,3082,1532985381536978070,base_link,0.0937317562599,-0.318927636958,-0.903062071436,0.271989733972,1.0,0.0,0.0,0.0,1.0,0.0,0.0,0.0,1.0,0.0287404172122,-0.295853883028,-0.219435825944,1.21846967915e-07,0.0,0.0,0.0,1.21846967915e-07,0.0,0.0,0.0,1.21846967915e-07,-0.0196133,0.18632635,12.2583125,9e-08,0.0,0.0,0.0,9e-08,0.0,0.0,0.0,9e-08
1532985381886906562,3083,1532985381886661821,base_link,0.0596274559529,-0.311560120614,-0.919798583415,0.230966282578,1.0,0.0,0.0,0.0,1.0,0.0,0.0,0.0,1.0,-0.256060987711,-0.221521452069,-0.193305104971,1.21846967915e-07,0.0,0.0,0.0,1.21846967915e-07,0.0,0.0,0.0,1.21846967915e-07,0.12748645,0.7453054,12.5917386,9e-08,0.0,0.0,0.0,9e-08,0.0,0.0,0.0,9e-08
1532985382281042333,3084,1532985382280787321,base_link,0.0283198267957,-0.255062102699,-0.949798338119,0.178953703744,1.0,0.0,0.0,0.0,1.0,0.0,0.0,0.0,1.0,-0.1781347543,-0.0908741056919,-0.290770232677,1.21846967915e-07,0.0,0.0,0.0,1.21846967915e-07,0.0,0.0,0.0,1.21846967915e-07,0.16671305,0.4314926,11.6503002,9e-08,0.0,0.0,0.0,9e-08,0.0,0.0,0.0,9e-08
1532985382637356857,3085,1532985382636829714,base_link,0.01783976026,-0.215484058309,-0.968126510842,0.126409740816,1.0,0.0,0.0,0.0,1.0,0.0,0.0,0.0,1.0,-0.139340311289,-0.0557111240923,-0.30437618494,1.21846967915e-07,0.0,0.0,0.0,1.21846967915e-07,0.0,0.0,0.0,1.21846967915e-07,0.08825985,0.61781895,10.1793027,9e-08,0.0,0.0,0.0,9e-08,0.0,0.0,0.0,9e-08
1532985383093883746,3086,1532985383093548294,base_link,0.0163719971203,-0.189390710175,-0.979935392061,0.0599144723473,1.0,0.0,0.0,0.0,1.0,0.0,0.0,0.0,1.0,-0.0915940925479,-0.0697247609496,-0.247258365154,1.21846967915e-07,0.0,0.0,0.0,1.21846967915e-07,0.0,0.0,0.0,1.21846967915e-07,-0.1569064,-0.0588399,9.7085835,9e-08,0.0,0.0,0.0,9e-08,0.0,0.0,0.0,9e-08
1532985383524496272,3087,1532985383524187697,base_link,-0.00952204941764,-0.148276854203,-0.987605522149,0.0505829783876,1.0,0.0,0.0,0.0,1.0,0.0,0.0,0.0,1.0,-0.343458384275,-0.111233577132,0.0796192660928,1.21846967915e-07,0.0,0.0,0.0,1.21846967915e-07,0.0,0.0,0.0,1.21846967915e-07,0.10787315,1.32226604687e-15,10.79712165,9e-08,0.0,0.0,0.0,9e-08,0.0,0.0,0.0,9e-08
1532985384002520092,3088,1532985384002278678,base_link,-0.0115901010605,-0.0574348728591,-0.997508404849,0.0392923299508,1.0,0.0,0.0,0.0,1.0,0.0,0.0,0.0,1.0,-0.284902185202,0.0809993073344,-0.156851351261,1.21846967915e-07,0.0,0.0,0.0,1.21846967915e-07,0.0,0.0,0.0,1.21846967915e-07,0.0196133,0.38245935,9.4928372,9e-08,0.0,0.0,0.0,9e-08,0.0,0.0,0.0,9e-08
1532985384453047962,3089,1532985384452130682,base_link,-0.00898635403954,-0.0567403192674,-0.998107701458,0.021927104233,1.0,0.0,0.0,0.0,1.0,0.0,0.0,0.0,1.0,0.0165173020214,0.00160943344235,0.0606106668711,1.21846967915e-07,0.0,0.0,0.0,1.21846967915e-07,0.0,0.0,0.0,1.21846967915e-07,0.196133,-0.30400615,10.50292215,9e-08,0.0,0.0,0.0,9e-08,0.0,0.0,0.0,9e-08
1532985384780580817,3090,1532985384779727435,base_link,-0.00910440222825,-0.028998133666,-0.998957347657,0.0340651679198,1.0,0.0,0.0,0.0,1.0,0.0,0.0,0.0,1.0,-0.267994552851,0.0344434417784,0.0531660690904,1.21846967915e-07,0.0,0.0,0.0,1.21846967915e-07,0.0,0.0,0.0,1.21846967915e-07,-0.2549729,0.38245935,8.42391235,9e-08,0.0,0.0,0.0,9e-08,0.0,0.0,0.0,9e-08
1532985385101546811,3091,1532985385101276758,base_link,-0.00333366750771,-0.00476435133155,-0.999493019826,0.0313032096681,1.0,0.0,0.0,0.0,1.0,0.0,0.0,0.0,1.0,-0.103779532015,0.0651733577251,-0.0623354762793,1.21846967915e-07,0.0,0.0,0.0,1.21846967915e-07,0.0,0.0,0.0,1.21846967915e-07,0.06864655,0.28439285,8.18855275,9e-08,0.0,0.0,0.0,9e-08,0.0,0.0,0.0,9e-08
1532985385584676518,3092,1532985385583914548,base_link,0.00245063531777,0.00499225550922,-0.999687926982,0.0243540636766,1.0,0.0,0.0,0.0,1.0,0.0,0.0,0.0,1.0,-0.0742526203394,0.0236398149282,0.0339404270053,1.21846967915e-07,0.0,0.0,0.0,1.21846967915e-07,0.0,0.0,0.0,1.21846967915e-07,0.5687857,0.0196133,10.983448,9e-08,0.0,0.0,0.0,9e-08,0.0,0.0,0.0,9e-08
1532985386032190244,3093,1532985386029175415,base_link,0.0103393068913,0.0257007942931,-0.998754114143,0.0415064740406,1.0,0.0,0.0,0.0,1.0,0.0,0.0,0.0,1.0,-0.0715929418802,0.0838505327702,0.0344064608216,1.21846967915e-07,0.0,0.0,0.0,1.21846967915e-07,0.0,0.0,0.0,1.21846967915e-07,0.65704555,0.9022118,8.2964259,9e-08,0.0,0.0,0.0,9e-08,0.0,0.0,0.0,9e-08
1532985386421424078,3094,1532985386421138412,base_link,0.0250414455667,0.0402587282837,-0.998813102625,0.0111600548933,1.0,0.0,0.0,0.0,1.0,0.0,0.0,0.0,1.0,0.00530893914402,0.0268534012139,-0.243489995599,1.21846967915e-07,0.0,0.0,0.0,1.21846967915e-07,0.0,0.0,0.0,1.21846967915e-07,0.6668522,0.5491724,10.6304086,9e-08,0.0,0.0,0.0,9e-08,0.0,0.0,0.0,9e-08
1532985386735967279,3095,1532985386735399753,base_link,0.0221552074793,0.00340216577899,-0.999692021292,0.0106505687108,1.0,0.0,0.0,0.0,1.0,0.0,0.0,0.0,1.0,0.108110249043,-0.0438323058188,0.163634076715,1.21846967915e-07,0.0,0.0,0.0,1.21846967915e-07,0.0,0.0,0.0,1.21846967915e-07,0.12748645,0.0392266,10.8853815,9e-08,0.0,0.0,0.0,9e-08,0.0,0.0,0.0,9e-08
1532985387145515273,3096,1532985387144855531,base_link,0.0106671333626,-0.0167978198909,-0.999253731687,0.0331062716465,1.0,0.0,0.0,0.0,1.0,0.0,0.0,0.0,1.0,0.200498178601,-0.0306196380407,0.0878784507513,1.21846967915e-07,0.0,0.0,0.0,1.21846967915e-07,0.0,0.0,0.0,1.21846967915e-07,0.1569064,0.1372931,12.4152189,9e-08,0.0,0.0,0.0,9e-08,0.0,0.0,0.0,9e-08
1532985387602824791,3097,1532985387598802666,base_link,0.00451021837613,-0.0110613643946,-0.999341959785,0.0342483804011,1.0,0.0,0.0,0.0,1.0,0.0,0.0,0.0,1.0,-0.10688919574,0.0251210592687,-0.103494912386,1.21846967915e-07,0.0,0.0,0.0,1.21846967915e-07,0.0,0.0,0.0,1.21846967915e-07,-0.2941995,0.34323275,8.2571993,9e-08,0.0,0.0,0.0,9e-08,0.0,0.0,0.0,9e-08
1532985387956880307,3098,1532985387956539509,base_link,0.000333565054686,-0.0117784692604,-0.999710162032,0.0209940069048,1.0,0.0,0.0,0.0,1.0,0.0,0.0,0.0,1.0,-0.268371343613,-0.00136512517929,0.0421016700566,1.21846967915e-07,0.0,0.0,0.0,1.21846967915e-07,0.0,0.0,0.0,1.21846967915e-07,-0.4707192,-0.7649187,7.4138274,9e-08,0.0,0.0,0.0,9e-08,0.0,0.0,0.0,9e-08
1532985388436284518,3099,1532985388436022112,base_link,-1.20801142666e-05,0.00412191421414,-0.99794787951,0.0638986655479,1.0,0.0,0.0,0.0,1.0,0.0,0.0,0.0,1.0,0.178302630782,0.0042486153543,0.11107853055,1.21846967915e-07,0.0,0.0,0.0,1.21846967915e-07,0.0,0.0,0.0,1.21846967915e-07,-0.0392266,0.588399,8.3748791,9e-08,0.0,0.0,0.0,9e-08,0.0,0.0,0.0,9e-08
1532985388880608102,3100,1532985388880420825,base_link,0.00976323269567,0.00699402468531,-0.99795150828,0.0628374890253,1.0,0.0,0.0,0.0,1.0,0.0,0.0,0.0,1.0,-0.0517723187804,0.0881147682667,-0.0743703842163,1.21846967915e-07,0.0,0.0,0.0,1.21846967915e-07,0.0,0.0,0.0,1.21846967915e-07,0.69627215,0.08825985,8.825985,9e-08,0.0,0.0,0.0,9e-08,0.0,0.0,0.0,9e-08
1532985389165459644,3101,1532985389165169848,base_link,0.0164242648788,0.0133920466051,-0.998292919839,0.0544255712835,1.0,0.0,0.0,0.0,1.0,0.0,0.0,0.0,1.0,-0.0486857891083,0.014957498759,-0.0403990447521,1.21846967915e-07,0.0,0.0,0.0,1.21846967915e-07,0.0,0.0,0.0,1.21846967915e-07,0.1372931,0.588399,9.8851032,9e-08,0.0,0.0,0.0,9e-08,0.0,0.0,0.0,9e-08
1532985389626882711,3102,1532985389626376840,base_link,0.0195209494713,-0.000838058608027,-0.998815807589,0.044555725775,1.0,0.0,0.0,0.0,1.0,0.0,0.0,0.0,1.0,0.0339602231979,0.00200985558331,0.0110242366791,1.21846967915e-07,0.0,0.0,0.0,1.21846967915e-07,0.0,0.0,0.0,1.21846967915e-07,0.00980665,0.4118793,8.7083052,9e-08,0.0,0.0,0.0,9e-08,0.0,0.0,0.0,9e-08
1532985389973304561,3103,1532985389972096614,base_link,0.0184433663316,-0.00371187028679,-0.998870318684,0.0436365753532,1.0,0.0,0.0,0.0,1.0,0.0,0.0,0.0,1.0,0.0220355857164,0.00526844803244,-0.0243185870349,1.21846967915e-07,0.0,0.0,0.0,1.21846967915e-07,0.0,0.0,0.0,1.21846967915e-07,0.02941995,0.5295591,9.63993695,9e-08,0.0,0.0,0.0,9e-08,0.0,0.0,0.0,9e-08
1532985390344450013,3104,1532985390343652650,base_link,0.0139756709791,-0.0147302236386,-0.99902557158,0.0391868404145,1.0,0.0,0.0,0.0,1.0,0.0,0.0,0.0,1.0,-0.04687673226,-0.0579337514937,0.00909819081426,1.21846967915e-07,0.0,0.0,0.0,1.21846967915e-07,0.0,0.0,0.0,1.21846967915e-07,0.14709975,0.2353596,10.20872265,9e-08,0.0,0.0,0.0,9e-08,0.0,0.0,0.0,9e-08
1532985390681639364,3105,1532985390678330848,base_link,0.00270935458337,-0.0197754804701,-0.998696484312,0.0469778883436,1.0,0.0,0.0,0.0,1.0,0.0,0.0,0.0,1.0,0.000523345544934,-0.0705967023969,0.0617496669292,1.21846967915e-07,0.0,0.0,0.0,1.21846967915e-07,0.0,0.0,0.0,1.21846967915e-07,0.30400615,0.5295591,10.9246081,9e-08,0.0,0.0,0.0,9e-08,0.0,0.0,0.0,9e-08
1532985391101973179,3106,1532985391094520120,base_link,-0.0104719387561,-0.00550809524517,-0.998668650398,0.0502088248935,1.0,0.0,0.0,0.0,1.0,0.0,0.0,0.0,1.0,-0.0831424817443,-0.0811599344015,0.025793844834,1.21846967915e-07,0.0,0.0,0.0,1.21846967915e-07,0.0,0.0,0.0,1.21846967915e-07,0.00980665,0.46091255,9.4732239,9e-08,0.0,0.0,0.0,9e-08,0.0,0.0,0.0,9e-08
1532985391342194981,3107,1532985391341443564,base_link,-0.0159584383722,0.00347839637227,-0.998587093767,0.0505672341108,1.0,0.0,0.0,0.0,1.0,0.0,0.0,0.0,1.0,-0.0705895721912,-0.0220343954861,-0.0127584794536,1.21846967915e-07,0.0,0.0,0.0,1.21846967915e-07,0.0,0.0,0.0,1.21846967915e-07,-0.08825985,0.5295591,9.44380395,9e-08,0.0,0.0,0.0,9e-08,0.0,0.0,0.0,9e-08
1532985391661314038,3108,1532985391660964887,base_link,-0.0187381626124,0.00232455599449,-0.998900306102,0.0429145216798,1.0,0.0,0.0,0.0,1.0,0.0,0.0,0.0,1.0,0.184544250369,0.000476911664009,-0.0708555728197,1.21846967915e-07,0.0,0.0,0.0,1.21846967915e-07,0.0,0.0,0.0,1.21846967915e-07,0.38245935,-0.0392266,10.6500219,9e-08,0.0,0.0,0.0,9e-08,0.0,0.0,0.0,9e-08
1532985392087307114,3109,1532985392085762201,base_link,-0.0233314205269,-0.0218828200651,-0.998291996735,0.0488863606444,1.0,0.0,0.0,0.0,1.0,0.0,0.0,0.0,1.0,-0.0139866489917,-0.0294130630791,0.040390919894,1.21846967915e-07,0.0,0.0,0.0,1.21846967915e-07,0.0,0.0,0.0,1.21846967915e-07,0.34323275,0.12748645,10.2969825,9e-08,0.0,0.0,0.0,9e-08,0.0,0.0,0.0,9e-08
1532985392596680200,3110,1532985392595953260,base_link,-0.0237041037265,-0.00250675691448,-0.998434751034,0.0505952523846,1.0,0.0,0.0,0.0,1.0,0.0,0.0,0.0,1.0,-0.0554493367672,0.0468173846602,-0.00252785417251,1.21846967915e-07,0.0,0.0,0.0,1.21846967915e-07,0.0,0.0,0.0,1.21846967915e-07,0.8237586,-0.04903325,9.8851032,9e-08,0.0,0.0,0.0,9e-08,0.0,0.0,0.0,9e-08
1532985392995858453,3111,1532985392995042081,base_link,-0.0175126663987,-0.00301799100046,-0.998665402606,0.0484934210277,1.0,0.0,0.0,0.0,1.0,0.0,0.0,0.0,1.0,-0.108062200248,0.0604910850525,0.00452329358086,1.21846967915e-07,0.0,0.0,0.0,1.21846967915e-07,0.0,0.0,0.0,1.21846967915e-07,0.8433719,-0.0980665,9.7870367,9e-08,0.0,0.0,0.0,9e-08,0.0,0.0,0.0,9e-08
1532985393335095042,3112,1532985393334352358,base_link,-0.0138966375987,0.00189548507404,-0.998633224345,0.0503485236456,1.0,0.0,0.0,0.0,1.0,0.0,0.0,0.0,1.0,-0.0572382137179,0.00596562214196,-0.0338795147836,1.21846967915e-07,0.0,0.0,0.0,1.21846967915e-07,0.0,0.0,0.0,1.21846967915e-07,0.3726527,0.2549729,10.4931155,9e-08,0.0,0.0,0.0,9e-08,0.0,0.0,0.0,9e-08
1532985393841124405,3113,1532985393840771989,base_link,-0.0200935000136,-0.0277076279727,-0.998272585423,0.0477533643022,1.0,0.0,0.0,0.0,1.0,0.0,0.0,0.0,1.0,0.0864040479064,-0.0560855939984,0.0693477019668,1.21846967915e-07,0.0,0.0,0.0,1.21846967915e-07,0.0,0.0,0.0,1.21846967915e-07,-0.65704555,1.39312317381e-15,11.375714,9e-08,0.0,0.0,0.0,9e-08,0.0,0.0,0.0,9e-08
1532985394261939894,3114,1532985394259921162,base_link,-0.0137149665704,-0.0144290947927,-0.998913489072,0.0421371838826,1.0,0.0,0.0,0.0,1.0,0.0,0.0,0.0,1.0,-0.371919244528,0.0220950152725,-0.049083750695,1.21846967915e-07,0.0,0.0,0.0,1.21846967915e-07,0.0,0.0,0.0,1.21846967915e-07,-0.81395195,1.0002783,10.16949605,9e-08,0.0,0.0,0.0,9e-08,0.0,0.0,0.0,9e-08
1532985394564916279,3115,1532985394564544344,base_link,-0.00158910517598,0.0249247721352,-0.99957536256,0.0150108308428,1.0,0.0,0.0,0.0,1.0,0.0,0.0,0.0,1.0,-0.0123085062951,0.125524222851,-0.253178447485,1.21846967915e-07,0.0,0.0,0.0,1.21846967915e-07,0.0,0.0,0.0,1.21846967915e-07,-0.8237586,0.04903325,9.8851032,9e-08,0.0,0.0,0.0,9e-08,0.0,0.0,0.0,9e-08
1532985394866444921,3116,1532985394866053276,base_link,0.0152662833448,-0.00232710942753,-0.999786644145,-0.0137182850442,1.0,0.0,0.0,0.0,1.0,0.0,0.0,0.0,1.0,0.300263017416,0.0950910151005,-0.125824689865,1.21846967915e-07,0.0,0.0,0.0,1.21846967915e-07,0.0,0.0,0.0,1.21846967915e-07,-0.9610517,-0.32361945,6.0016698,9e-08,0.0,0.0,0.0,9e-08,0.0,0.0,0.0,9e-08
1532985395372565543,3117,1532985395371195392,base_link,0.0471428558429,-0.034852174154,-0.99825298723,0.00733829588449,1.0,0.0,0.0,0.0,1.0,0.0,0.0,0.0,1.0,0.0534289516509,0.119794219732,0.191832795739,1.21846967915e-07,0.0,0.0,0.0,1.21846967915e-07,0.0,0.0,0.0,1.21846967915e-07,-0.9022118,-0.2549729,6.5312289,9e-08,0.0,0.0,0.0,9e-08,0.0,0.0,0.0,9e-08
1532985395725008046,3118,1532985395724792033,base_link,0.0634067869879,0.000609453521052,-0.997482858058,0.0317357182032,1.0,0.0,0.0,0.0,1.0,0.0,0.0,0.0,1.0,-0.27294048667,0.142367124557,0.0182031877339,1.21846967915e-07,0.0,0.0,0.0,1.21846967915e-07,0.0,0.0,0.0,1.21846967915e-07,-0.75511205,0.67665885,7.4726673,9e-08,0.0,0.0,0.0,9e-08,0.0,0.0,0.0,9e-08
1532985396150948304,3119,1532985396143609930,base_link,0.0755270973935,0.029755830227,-0.996656019098,0.0093288649948,1.0,0.0,0.0,0.0,1.0,0.0,0.0,0.0,1.0,-0.0247096717358,-0.0216167066246,-0.144864290953,1.21846967915e-07,0.0,0.0,0.0,1.21846967915e-07,0.0,0.0,0.0,1.21846967915e-07,-0.69627215,0.14709975,8.65927195,9e-08,0.0,0.0,0.0,9e-08,0.0,0.0,0.0,9e-08
1532985396529194058,3120,1532985396526890641,base_link,0.0662775344898,0.0271097027365,-0.997382907993,-0.00998435191805,1.0,0.0,0.0,0.0,1.0,0.0,0.0,0.0,1.0,0.0818092226982,-0.09260879457,-0.0941479355097,1.21846967915e-07,0.0,0.0,0.0,1.21846967915e-07,0.0,0.0,0.0,1.21846967915e-07,-0.75511205,-0.44129925,9.80665,9e-08,0.0,0.0,0.0,9e-08,0.0,0.0,0.0,9e-08
1532985396984617905,3121,1532985396984336937,base_link,0.0513461750692,-0.0556909787613,-0.997100278917,-0.00728827654563,1.0,0.0,0.0,0.0,1.0,0.0,0.0,0.0,1.0,-0.0686695575714,-0.0191784370691,0.231414332986,1.21846967915e-07,0.0,0.0,0.0,1.21846967915e-07,0.0,0.0,0.0,1.21846967915e-07,-0.0784532,-0.67665885,13.24878415,9e-08,0.0,0.0,0.0,9e-08,0.0,0.0,0.0,9e-08
1532985397228101693,3122,1532985397227722749,base_link,0.0417285700121,-0.0385811927925,-0.997988569092,0.0280897484694,1.0,0.0,0.0,0.0,1.0,0.0,0.0,0.0,1.0,-0.268695056438,-0.0967362001538,0.217106714845,1.21846967915e-07,0.0,0.0,0.0,1.21846967915e-07,0.0,0.0,0.0,1.21846967915e-07,-0.6472389,0.40207265,10.58137535,9e-08,0.0,0.0,0.0,9e-08,0.0,0.0,0.0,9e-08
1532985397537115199,3123,1532985397536881267,base_link,0.0218690156351,0.033025431102,-0.998184650915,0.0453703618285,1.0,0.0,0.0,0.0,1.0,0.0,0.0,0.0,1.0,-0.472405523062,-0.151941299438,-0.0188901070505,1.21846967915e-07,0.0,0.0,0.0,1.21846967915e-07,0.0,0.0,0.0,1.21846967915e-07,-0.38245935,0.42168595,12.3759923,9e-08,0.0,0.0,0.0,9e-08,0.0,0.0,0.0,9e-08
1532985397994427075,3124,1532985397993994439,base_link,-0.00152468733187,0.0648180649798,-0.997294123808,0.0346514703793,1.0,0.0,0.0,0.0,1.0,0.0,0.0,0.0,1.0,0.101557672024,-0.0477371290326,-0.0913209617138,1.21846967915e-07,0.0,0.0,0.0,1.21846967915e-07,0.0,0.0,0.0,1.21846967915e-07,-0.5491724,0.06864655,11.5914603,9e-08,0.0,0.0,0.0,9e-08,0.0,0.0,0.0,9e-08
1532985398380709509,3125,1532985398380462874,base_link,-0.015148965756,0.0123764701392,-0.99939544674,0.028741483254,1.0,0.0,0.0,0.0,1.0,0.0,0.0,0.0,1.0,0.127285733819,-0.0697738453746,0.0627588704228,1.21846967915e-07,0.0,0.0,0.0,1.21846967915e-07,0.0,0.0,0.0,1.21846967915e-07,-0.4707192,-0.1765197,11.56204035,9e-08,0.0,0.0,0.0,9e-08,0.0,0.0,0.0,9e-08
1532985398795754320,3126,1532985398795536866,base_link,-0.022005637541,0.00676367196589,-0.998899924768,0.0408527227486,1.0,0.0,0.0,0.0,1.0,0.0,0.0,0.0,1.0,0.146230369806,-0.00482951104641,-0.0442580841482,1.21846967915e-07,0.0,0.0,0.0,1.21846967915e-07,0.0,0.0,0.0,1.21846967915e-07,-0.40207265,0.5099458,9.69877685,9e-08,0.0,0.0,0.0,9e-08,0.0,0.0,0.0,9e-08
1532985399227315165,3127,1532985399226825189,base_link,-0.0168348144522,-0.0552436721989,-0.997906610053,0.0291053829676,1.0,0.0,0.0,0.0,1.0,0.0,0.0,0.0,1.0,0.248534947634,0.0123176630586,-0.00526627898216,1.21846967915e-07,0.0,0.0,0.0,1.21846967915e-07,0.0,0.0,0.0,1.21846967915e-07,-0.392266,-0.28439285,9.6301303,9e-08,0.0,0.0,0.0,9e-08,0.0,0.0,0.0,9e-08
1532985399626334308,3128,1532985399626037404,base_link,-0.00751968128587,-0.0610005055655,-0.997518156748,0.0343499588391,1.0,0.0,0.0,0.0,1.0,0.0,0.0,0.0,1.0,-0.00779352337122,0.0563567206264,-0.0267387591302,1.21846967915e-07,0.0,0.0,0.0,1.21846967915e-07,0.0,0.0,0.0,1.21846967915e-07,-0.2745862,0.06864655,9.2574776,9e-08,0.0,0.0,0.0,9e-08,0.0,0.0,0.0,9e-08
1532985400090327699,3129,1532985400089971023,base_link,0.00821180062827,-0.026438630289,-0.99940999911,0.0203277848823,1.0,0.0,0.0,0.0,1.0,0.0,0.0,0.0,1.0,-0.28139770031,0.0788069963455,-0.149938553572,1.21846967915e-07,0.0,0.0,0.0,1.21846967915e-07,0.0,0.0,0.0,1.21846967915e-07,-0.00980665,0.10787315,11.40513395,9e-08,0.0,0.0,0.0,9e-08,0.0,0.0,0.0,9e-08
1532985400499694453,3130,1532985400499139297,base_link,0.0209117734692,-0.0117393426943,-0.999711046219,0.00164609587413,1.0,0.0,0.0,0.0,1.0,0.0,0.0,0.0,1.0,0.0749327391386,-0.00930036976933,-0.00339575251564,1.21846967915e-07,0.0,0.0,0.0,1.21846967915e-07,0.0,0.0,0.0,1.21846967915e-07,-0.4903325,-0.2549729,7.6099604,9e-08,0.0,0.0,0.0,9e-08,0.0,0.0,0.0,9e-08
1532985400823839313,3131,1532985400823556040,base_link,0.0182652244237,-0.00901724069559,-0.999711765081,0.0127066008521,1.0,0.0,0.0,0.0,1.0,0.0,0.0,0.0,1.0,0.136171042919,-0.0246333293617,0.091069355607,1.21846967915e-07,0.0,0.0,0.0,1.21846967915e-07,0.0,0.0,0.0,1.21846967915e-07,-0.26477955,-0.30400615,9.2967042,9e-08,0.0,0.0,0.0,9e-08,0.0,0.0,0.0,9e-08
1532985401276993580,3132,1532985401276741536,base_link,0.00185697639455,-0.0211205113445,-0.998562829229,0.0492214559128,1.0,0.0,0.0,0.0,1.0,0.0,0.0,0.0,1.0,-0.0458247363567,-0.122194468975,0.174561738968,1.21846967915e-07,0.0,0.0,0.0,1.21846967915e-07,0.0,0.0,0.0,1.21846967915e-07,-0.04903325,0.1372931,9.65955025,9e-08,0.0,0.0,0.0,9e-08,0.0,0.0,0.0,9e-08
1532985401542175094,3133,1532985401541773686,base_link,-0.0123511015651,-0.0215930290086,-0.99754474073,0.0654651176626,1.0,0.0,0.0,0.0,1.0,0.0,0.0,0.0,1.0,-0.0425304621458,-0.110357031226,0.0834162458777,1.21846967915e-07,0.0,0.0,0.0,1.21846967915e-07,0.0,0.0,0.0,1.21846967915e-07,0.10787315,0.3138128,9.93413645,9e-08,0.0,0.0,0.0,9e-08,0.0,0.0,0.0,9e-08
1532985401992090482,3134,1532985401990033877,base_link,-0.0314070960039,-0.00362846810392,-0.996888314126,0.0722088477905,1.0,0.0,0.0,0.0,1.0,0.0,0.0,0.0,1.0,-0.149366170168,-0.0393335819244,0.0130304284394,1.21846967915e-07,0.0,0.0,0.0,1.21846967915e-07,0.0,0.0,0.0,1.21846967915e-07,0.5491724,0.36284605,12.0033396,9e-08,0.0,0.0,0.0,9e-08,0.0,0.0,0.0,9e-08
1532985402433943566,3135,1532985402433627910,base_link,-0.0322371271952,-0.0134687725499,-0.998293916186,0.0467826538655,1.0,0.0,0.0,0.0,1.0,0.0,0.0,0.0,1.0,0.133404031396,-0.0243048649281,-0.131162703037,1.21846967915e-07,0.0,0.0,0.0,1.21846967915e-07,0.0,0.0,0.0,1.21846967915e-07,0.392266,1.32586895163e-15,10.8265416,9e-08,0.0,0.0,0.0,9e-08,0.0,0.0,0.0,9e-08
1532985402801643109,3136,1532985402800843971,base_link,-0.0309598946481,-0.0871136364395,-0.995341275076,0.0273577301564,1.0,0.0,0.0,0.0,1.0,0.0,0.0,0.0,1.0,0.440395772457,-0.0131403375417,-0.0993330329657,1.21846967915e-07,0.0,0.0,0.0,1.21846967915e-07,0.0,0.0,0.0,1.21846967915e-07,0.24516625,0.196133,9.58109705,9e-08,0.0,0.0,0.0,9e-08,0.0,0.0,0.0,9e-08
1532985403178262587,3137,1532985403177974929,base_link,-0.0322960642758,-0.148575153914,-0.988326095719,0.00969104703963,1.0,0.0,0.0,0.0,1.0,0.0,0.0,0.0,1.0,0.119983181357,-0.047070492059,-0.118209905922,1.21846967915e-07,0.0,0.0,0.0,1.21846967915e-07,0.0,0.0,0.0,1.21846967915e-07,0.2941995,0.2745862,9.56148375,9e-08,0.0,0.0,0.0,9e-08,0.0,0.0,0.0,9e-08
1532985403478245612,3138,1532985403478023933,base_link,-0.0364165268475,-0.139922551961,-0.989338895175,-0.0174375032015,1.0,0.0,0.0,0.0,1.0,0.0,0.0,0.0,1.0,-0.184986114502,-0.0343046449125,-0.215904429555,1.21846967915e-07,0.0,0.0,0.0,1.21846967915e-07,0.0,0.0,0.0,1.21846967915e-07,0.44129925,0.46091255,9.3359308,9e-08,0.0,0.0,0.0,9e-08,0.0,0.0,0.0,9e-08
1532985403950540844,3139,1532985403950208678,base_link,-0.0353079606139,-0.143358334655,-0.985767469939,-0.0804004416217,1.0,0.0,0.0,0.0,1.0,0.0,0.0,0.0,1.0,0.100263647735,-0.0913408100605,-0.264770150185,1.21846967915e-07,0.0,0.0,0.0,1.21846967915e-07,0.0,0.0,0.0,1.21846967915e-07,0.46091255,0.04903325,9.8262633,9e-08,0.0,0.0,0.0,9e-08,0.0,0.0,0.0,9e-08
1532985404427377055,3140,1532985404427166159,base_link,-0.0550897349149,-0.169273931329,-0.974282867482,-0.1381461234,1.0,0.0,0.0,0.0,1.0,0.0,0.0,0.0,1.0,-0.0610041841865,-0.110228404403,-0.192606300116,1.21846967915e-07,0.0,0.0,0.0,1.21846967915e-07,0.0,0.0,0.0,1.21846967915e-07,0.7060788,0.30400615,9.1397978,9e-08,0.0,0.0,0.0,9e-08,0.0,0.0,0.0,9e-08
1532985404786099226,3141,1532985404784197545,base_link,-0.0544261063895,-0.131924843851,-0.973082839819,-0.180951433727,1.0,0.0,0.0,0.0,1.0,0.0,0.0,0.0,1.0,-0.182187914848,-0.0490647703409,-0.23613807559,1.21846967915e-07,0.0,0.0,0.0,1.21846967915e-07,0.0,0.0,0.0,1.21846967915e-07,0.4903325,-0.00980665,8.62004535,9e-08,0.0,0.0,0.0,9e-08,0.0,0.0,0.0,9e-08
1532985405237324124,3142,1532985405236974582,base_link,-0.0605268760938,-0.0862666035207,-0.96985348536,-0.219724343944,1.0,0.0,0.0,0.0,1.0,0.0,0.0,0.0,1.0,-0.252827912569,-0.000986536964774,-0.100298069417,1.21846967915e-07,0.0,0.0,0.0,1.21846967915e-07,0.0,0.0,0.0,1.21846967915e-07,0.8825985,0.20593965,9.54187045,9e-08,0.0,0.0,0.0,9e-08,0.0,0.0,0.0,9e-08
1532985405571229034,3143,1532985405570639126,base_link,-0.0273317047803,-0.0830207959289,-0.967943785872,-0.235468368894,1.0,0.0,0.0,0.0,1.0,0.0,0.0,0.0,1.0,0.078463204205,0.36215916276,-0.130178302526,1.21846967915e-07,0.0,0.0,0.0,1.21846967915e-07,0.0,0.0,0.0,1.21846967915e-07,0.7649187,0.3138128,7.95319315,9e-08,0.0,0.0,0.0,9e-08,0.0,0.0,0.0,9e-08
1532985405944772913,3144,1532985405944376174,base_link,0.00701917159345,-0.127661804826,-0.958461762628,-0.254959299494,1.0,0.0,0.0,0.0,1.0,0.0,0.0,0.0,1.0,0.211218118668,-0.0706789195538,-0.112095333636,1.21846967915e-07,0.0,0.0,0.0,1.21846967915e-07,0.0,0.0,0.0,1.21846967915e-07,0.4314926,0.53936575,8.58081875,9e-08,0.0,0.0,0.0,9e-08,0.0,0.0,0.0,9e-08
