%time,field.header.seq,field.header.stamp,field.header.frame_id,field.orientation.x,field.orientation.y,field.orientation.z,field.orientation.w,field.orientation_covariance0,field.orientation_covariance1,field.orientation_covariance2,field.orientation_covariance3,field.orientation_covariance4,field.orientation_covariance5,field.orientation_covariance6,field.orientation_covariance7,field.orientation_covariance8,field.angular_velocity.x,field.angular_velocity.y,field.angular_velocity.z,field.angular_velocity_covariance0,field.angular_velocity_covariance1,field.angular_velocity_covariance2,field.angular_velocity_covariance3,field.angular_velocity_covariance4,field.angular_velocity_covariance5,field.angular_velocity_covariance6,field.angular_velocity_covariance7,field.angular_velocity_covariance8,field.linear_acceleration.x,field.linear_acceleration.y,field.linear_acceleration.z,field.linear_acceleration_covariance0,field.linear_acceleration_covariance1,field.linear_acceleration_covariance2,field.linear_acceleration_covariance3,field.linear_acceleration_covariance4,field.linear_acceleration_covariance5,field.linear_acceleration_covariance6,field.linear_acceleration_covariance7,field.linear_acceleration_covariance8
1532986742467716697,558,1532986742467266907,base_link,-0.160410611356,-0.0352351114761,-0.0434112476724,-0.985465568277,1.0,0.0,0.0,0.0,1.0,0.0,0.0,0.0,1.0,0.984449326992,0.0255642421544,-0.0160534456372,1.21846967915e-07,0.0,0.0,0.0,1.21846967915e-07,0.0,0.0,0.0,1.21846967915e-07,-0.2157463,-0.89240515,8.5513988,9e-08,0.0,0.0,0.0,9e-08,0.0,0.0,0.0,9e-08
1532986742870483918,559,1532986742869978287,base_link,0.0603512017937,-0.0115690852072,-0.080459217797,-0.994861901462,1.0,0.0,0.0,0.0,1.0,0.0,0.0,0.0,1.0,-1.25253522396,0.0869359150529,-0.034867323935,1.21846967915e-07,0.0,0.0,0.0,1.21846967915e-07,0.0,0.0,0.0,1.21846967915e-07,-1.30428445,1.20621795,11.26784085,9e-08,0.0,0.0,0.0,9e-08,0.0,0.0,0.0,9e-08
1532986743183731284,560,1532986743183120630,base_link,0.190216492937,-0.00328399152075,-0.0631658690389,-0.9797024927,1.0,0.0,0.0,0.0,1.0,0.0,0.0,0.0,1.0,-0.571762800217,-0.0169348083436,-0.0777142494917,1.21846967915e-07,0.0,0.0,0.0,1.21846967915e-07,0.0,0.0,0.0,1.21846967915e-07,-1.71616375,-0.3530394,9.01231135,9e-08,0.0,0.0,0.0,9e-08,0.0,0.0,0.0,9e-08
1532986743588356580,561,1532986743587950246,base_link,0.255899024761,0.00793212677705,-0.100326893369,-0.961450614935,1.0,0.0,0.0,0.0,1.0,0.0,0.0,0.0,1.0,-0.251866430044,-0.103498607874,0.330687433481,1.21846967915e-07,0.0,0.0,0.0,1.21846967915e-07,0.0,0.0,0.0,1.21846967915e-07,-1.91229675,0.4707192,9.11037785,9e-08,0.0,0.0,0.0,9e-08,0.0,0.0,0.0,9e-08
1532986744076819318,562,1532986744070448841,base_link,0.310514770683,0.0212975856427,-0.189659096474,-0.93121233731,1.0,0.0,0.0,0.0,1.0,0.0,0.0,0.0,1.0,-0.167784288526,-0.11658667773,0.313790231943,1.21846967915e-07,0.0,0.0,0.0,1.21846967915e-07,0.0,0.0,0.0,1.21846967915e-07,-1.71616375,0.4314926,10.50292215,9e-08,0.0,0.0,0.0,9e-08,0.0,0.0,0.0,9e-08
1532986744348587419,563,1532986744348164668,base_link,0.334736372927,0.0284498306398,-0.233150582268,-0.912569435037,1.0,0.0,0.0,0.0,1.0,0.0,0.0,0.0,1.0,-0.193875938654,-0.116170778871,0.288332074881,1.21846967915e-07,0.0,0.0,0.0,1.21846967915e-07,0.0,0.0,0.0,1.21846967915e-07,-1.87307015,-0.2549729,10.8853815,9e-08,0.0,0.0,0.0,9e-08,0.0,0.0,0.0,9e-08
1532986744749223191,564,1532986744748615449,base_link,0.342480680702,0.0352970209668,-0.307102020623,-0.887214434388,1.0,0.0,0.0,0.0,1.0,0.0,0.0,0.0,1.0,-0.0672197043896,-0.129921630025,0.343296438456,1.21846967915e-07,0.0,0.0,0.0,1.21846967915e-07,0.0,0.0,0.0,1.21846967915e-07,-1.5102241,-0.1765197,11.9444997,9e-08,0.0,0.0,0.0,9e-08,0.0,0.0,0.0,9e-08
1532986745223997938,565,1532986745223253173,base_link,0.355727495841,0.0424091969273,-0.399185276851,-0.843984907131,1.0,0.0,0.0,0.0,1.0,0.0,0.0,0.0,1.0,-0.150964364409,-0.200084164739,0.392437845469,1.21846967915e-07,0.0,0.0,0.0,1.21846967915e-07,0.0,0.0,0.0,1.21846967915e-07,-1.6475172,-0.18632635,10.002783,9e-08,0.0,0.0,0.0,9e-08,0.0,0.0,0.0,9e-08
1532986745517076534,566,1532986745515211676,base_link,0.366566830665,0.0533795539966,-0.45534189593,-0.809594429132,1.0,0.0,0.0,0.0,1.0,0.0,0.0,0.0,1.0,-0.0977346748114,-0.240754574537,0.375668734312,1.21846967915e-07,0.0,0.0,0.0,1.21846967915e-07,0.0,0.0,0.0,1.21846967915e-07,-1.6475172,-0.3334261,9.218251,9e-08,0.0,0.0,0.0,9e-08,0.0,0.0,0.0,9e-08
1532986745857599786,567,1532986745856719949,base_link,0.378787095094,0.0843735466803,-0.51070963363,-0.767187794043,1.0,0.0,0.0,0.0,1.0,0.0,0.0,0.0,1.0,-0.216244220734,-0.253282219172,0.218347892165,1.21846967915e-07,0.0,0.0,0.0,1.21846967915e-07,0.0,0.0,0.0,1.21846967915e-07,-1.9024901,0.61781895,10.7088618,9e-08,0.0,0.0,0.0,9e-08,0.0,0.0,0.0,9e-08
1532986746185070438,568,1532986746184612103,base_link,0.345900384268,0.0969778685219,-0.550359552694,-0.753692629617,1.0,0.0,0.0,0.0,1.0,0.0,0.0,0.0,1.0,0.113095380366,-0.281240254641,0.242874309421,1.21846967915e-07,0.0,0.0,0.0,1.21846967915e-07,0.0,0.0,0.0,1.21846967915e-07,-1.8632635,-0.26477955,12.20927925,9e-08,0.0,0.0,0.0,9e-08,0.0,0.0,0.0,9e-08
1532986746747054266,569,1532986746746718427,base_link,0.342086948534,0.14593878145,-0.650642990419,-0.662074082509,1.0,0.0,0.0,0.0,1.0,0.0,0.0,0.0,1.0,-0.190086215734,-0.340814948082,0.34193277359,1.21846967915e-07,0.0,0.0,0.0,1.21846967915e-07,0.0,0.0,0.0,1.21846967915e-07,-2.02997655,-0.38245935,12.1406327,9e-08,0.0,0.0,0.0,9e-08,0.0,0.0,0.0,9e-08
1532986747236098667,570,1532986747234013809,base_link,0.314337890084,0.188291874779,-0.71538449346,-0.594947802136,1.0,0.0,0.0,0.0,1.0,0.0,0.0,0.0,1.0,-0.216379210353,-0.365397751331,0.252274125814,1.21846967915e-07,0.0,0.0,0.0,1.21846967915e-07,0.0,0.0,0.0,1.21846967915e-07,-1.87307015,-0.3138128,12.8467115,9e-08,0.0,0.0,0.0,9e-08,0.0,0.0,0.0,9e-08
1532986747678872489,571,1532986747678210987,base_link,0.289998001966,0.223060248691,-0.765852799652,-0.52878613217,1.0,0.0,0.0,0.0,1.0,0.0,0.0,0.0,1.0,-0.0241339355707,-0.312738776207,0.313313156366,1.21846967915e-07,0.0,0.0,0.0,1.21846967915e-07,0.0,0.0,0.0,1.21846967915e-07,-1.6671305,-0.81395195,13.2978174,9e-08,0.0,0.0,0.0,9e-08,0.0,0.0,0.0,9e-08
1532986748102093026,572,1532986748101460452,base_link,0.261035203087,0.236984934277,-0.820623364367,-0.449751106203,1.0,0.0,0.0,0.0,1.0,0.0,0.0,0.0,1.0,-0.0166321136057,-0.286234766245,0.310531049967,1.21846967915e-07,0.0,0.0,0.0,1.21846967915e-07,0.0,0.0,0.0,1.21846967915e-07,-1.5102241,-0.196133,13.60182355,9e-08,0.0,0.0,0.0,9e-08,0.0,0.0,0.0,9e-08
1532986748615107499,573,1532986748614519245,base_link,0.197625923266,0.189791547689,-0.873192463752,-0.403060893818,1.0,0.0,0.0,0.0,1.0,0.0,0.0,0.0,1.0,0.525672972202,-0.172801792622,0.168866455555,1.21846967915e-07,0.0,0.0,0.0,1.21846967915e-07,0.0,0.0,0.0,1.21846967915e-07,-1.7063571,0.196133,9.7870367,9e-08,0.0,0.0,0.0,9e-08,0.0,0.0,0.0,9e-08
1532986748965676257,574,1532986748965368226,base_link,0.148359523286,0.111026937418,-0.905132776346,-0.382618776595,1.0,0.0,0.0,0.0,1.0,0.0,0.0,0.0,1.0,0.591701388359,-0.0814089328051,0.237345263362,1.21846967915e-07,0.0,0.0,0.0,1.21846967915e-07,0.0,0.0,0.0,1.21846967915e-07,-1.569064,0.16671305,11.99353295,9e-08,0.0,0.0,0.0,9e-08,0.0,0.0,0.0,9e-08
1532986749432661431,575,1532986749431655962,base_link,0.0751239644661,-0.083926580491,-0.921962615384,-0.370536981804,1.0,0.0,0.0,0.0,1.0,0.0,0.0,0.0,1.0,1.08608675003,0.0409627407789,0.117619991302,1.21846967915e-07,0.0,0.0,0.0,1.21846967915e-07,0.0,0.0,0.0,1.21846967915e-07,-1.9024901,0.0784532,9.73800345,9e-08,0.0,0.0,0.0,9e-08,0.0,0.0,0.0,9e-08
1532986749863895450,576,1532986749862102047,base_link,0.020751665368,-0.237254761302,-0.893359844136,-0.381035084354,1.0,0.0,0.0,0.0,1.0,0.0,0.0,0.0,1.0,0.500171840191,0.0301863737404,-0.178286522627,1.21846967915e-07,0.0,0.0,0.0,1.21846967915e-07,0.0,0.0,0.0,1.21846967915e-07,-1.85345685,0.42168595,7.8060934,9e-08,0.0,0.0,0.0,9e-08,0.0,0.0,0.0,9e-08
1532986750177810529,577,1532986750177018051,base_link,0.00537341135065,-0.297710926574,-0.859657234569,-0.41512500491,1.0,0.0,0.0,0.0,1.0,0.0,0.0,0.0,1.0,0.405190050602,-0.0135999219492,-0.284304827452,1.21846967915e-07,0.0,0.0,0.0,1.21846967915e-07,0.0,0.0,0.0,1.21846967915e-07,-1.7259704,0.7649187,7.36479415,9e-08,0.0,0.0,0.0,9e-08,0.0,0.0,0.0,9e-08
1532986750580183099,578,1532986750579880476,base_link,-0.0153561308637,-0.348081291189,-0.809225770157,-0.473029868912,1.0,0.0,0.0,0.0,1.0,0.0,0.0,0.0,1.0,0.210981637239,-0.122763566673,-0.282695025206,1.21846967915e-07,0.0,0.0,0.0,1.21846967915e-07,0.0,0.0,0.0,1.21846967915e-07,-1.93191005,0.16671305,9.89490985,9e-08,0.0,0.0,0.0,9e-08,0.0,0.0,0.0,9e-08
1532986750953042063,579,1532986750952573169,base_link,-0.0362000484398,-0.356496246135,-0.775002900418,-0.520548256484,1.0,0.0,0.0,0.0,1.0,0.0,0.0,0.0,1.0,0.148348018527,-0.163004606962,-0.264757573605,1.21846967915e-07,0.0,0.0,0.0,1.21846967915e-07,0.0,0.0,0.0,1.21846967915e-07,-1.81423025,0.2353596,10.36562905,9e-08,0.0,0.0,0.0,9e-08,0.0,0.0,0.0,9e-08
1532986751351755893,580,1532986751351320054,base_link,-0.0671807056393,-0.348455816079,-0.734546199173,-0.578365955353,1.0,0.0,0.0,0.0,1.0,0.0,0.0,0.0,1.0,0.0302877910435,-0.260651767254,-0.296142995358,1.21846967915e-07,0.0,0.0,0.0,1.21846967915e-07,0.0,0.0,0.0,1.21846967915e-07,-1.73577705,0.7649187,11.4933938,9e-08,0.0,0.0,0.0,9e-08,0.0,0.0,0.0,9e-08
1532986751640360648,581,1532986751636547284,base_link,-0.0943485279341,-0.342433298462,-0.695917353201,-0.624128856002,1.0,0.0,0.0,0.0,1.0,0.0,0.0,0.0,1.0,0.160131573677,-0.288675755262,-0.32400149107,1.21846967915e-07,0.0,0.0,0.0,1.21846967915e-07,0.0,0.0,0.0,1.21846967915e-07,-1.69655045,0.67665885,12.3956056,9e-08,0.0,0.0,0.0,9e-08,0.0,0.0,0.0,9e-08
1532986752049417999,582,1532986752049210127,base_link,-0.149256739664,-0.326073189364,-0.635053453339,-0.684182586921,1.0,0.0,0.0,0.0,1.0,0.0,0.0,0.0,1.0,0.193822726607,-0.356285750866,-0.222404643893,1.21846967915e-07,0.0,0.0,0.0,1.21846967915e-07,0.0,0.0,0.0,1.21846967915e-07,-1.5886773,-0.28439285,14.68055505,9e-08,0.0,0.0,0.0,9e-08,0.0,0.0,0.0,9e-08
1532986752489485848,583,1532986752489195513,base_link,-0.214235109375,-0.291682929415,-0.575696374227,-0.733210795952,1.0,0.0,0.0,0.0,1.0,0.0,0.0,0.0,1.0,0.0256278086454,-0.366947323084,-0.245121091604,1.21846967915e-07,0.0,0.0,0.0,1.21846967915e-07,0.0,0.0,0.0,1.21846967915e-07,-1.52003075,0.9610517,15.64160675,9e-08,0.0,0.0,0.0,9e-08,0.0,0.0,0.0,9e-08
1532986752885893574,584,1532986752885611175,base_link,-0.229430945496,-0.245138066153,-0.508188142813,-0.793103764508,1.0,0.0,0.0,0.0,1.0,0.0,0.0,0.0,1.0,0.0193328056484,-0.325291603804,-0.384017944336,1.21846967915e-07,0.0,0.0,0.0,1.21846967915e-07,0.0,0.0,0.0,1.21846967915e-07,-1.52003075,0.81395195,13.36646395,9e-08,0.0,0.0,0.0,9e-08,0.0,0.0,0.0,9e-08
1532986753368345903,585,1532986753368116464,base_link,-0.266379620155,-0.207134594412,-0.410967972353,-0.846901696458,1.0,0.0,0.0,0.0,1.0,0.0,0.0,0.0,1.0,0.101467467844,-0.318558514118,-0.276682555676,1.21846967915e-07,0.0,0.0,0.0,1.21846967915e-07,0.0,0.0,0.0,1.21846967915e-07,-1.34351105,0.3726527,13.46453045,9e-08,0.0,0.0,0.0,9e-08,0.0,0.0,0.0,9e-08
1532986753794927202,586,1532986753794708802,base_link,-0.302762637436,-0.164980598307,-0.335534297175,-0.876660095462,1.0,0.0,0.0,0.0,1.0,0.0,0.0,0.0,1.0,0.0314366966486,-0.314022958279,-0.28777962923,1.21846967915e-07,0.0,0.0,0.0,1.21846967915e-07,0.0,0.0,0.0,1.21846967915e-07,-1.16699135,0.67665885,13.8666031,9e-08,0.0,0.0,0.0,9e-08,0.0,0.0,0.0,9e-08
1532986754206210850,587,1532986754205840292,base_link,-0.325451785273,-0.132228818091,-0.261097865261,-0.899124340614,1.0,0.0,0.0,0.0,1.0,0.0,0.0,0.0,1.0,0.0922237932682,-0.282246291637,-0.320757329464,1.21846967915e-07,0.0,0.0,0.0,1.21846967915e-07,0.0,0.0,0.0,1.21846967915e-07,-1.3140911,0.5687857,13.42530385,9e-08,0.0,0.0,0.0,9e-08,0.0,0.0,0.0,9e-08
1532986754568064921,588,1532986754567762938,base_link,-0.342572044663,-0.10260145684,-0.178391982578,-0.916675316468,1.0,0.0,0.0,0.0,1.0,0.0,0.0,0.0,1.0,-0.0629056543112,-0.293051272631,-0.34804430604,1.21846967915e-07,0.0,0.0,0.0,1.21846967915e-07,0.0,0.0,0.0,1.21846967915e-07,-1.14737805,0.8041453,11.83662655,9e-08,0.0,0.0,0.0,9e-08,0.0,0.0,0.0,9e-08
1532986754885886133,589,1532986754885565654,base_link,-0.354172991684,-0.0813098899204,-0.105775876579,-0.925614205647,1.0,0.0,0.0,0.0,1.0,0.0,0.0,0.0,1.0,0.0901362076402,-0.278550744057,-0.369595736265,1.21846967915e-07,0.0,0.0,0.0,1.21846967915e-07,0.0,0.0,0.0,1.21846967915e-07,-1.08853815,0.71588545,11.7483667,9e-08,0.0,0.0,0.0,9e-08,0.0,0.0,0.0,9e-08
1532986755330691537,590,1532986755329940787,base_link,-0.367630581881,-0.0503973661601,-0.00500791542323,-0.928591827195,1.0,0.0,0.0,0.0,1.0,0.0,0.0,0.0,1.0,-0.00516600999981,-0.288310140371,-0.352098166943,1.21846967915e-07,0.0,0.0,0.0,1.21846967915e-07,0.0,0.0,0.0,1.21846967915e-07,-1.08853815,0.6472389,12.34657235,9e-08,0.0,0.0,0.0,9e-08,0.0,0.0,0.0,9e-08
1532986755723172650,591,1532986755722880907,base_link,-0.377546426389,-0.0199796954767,0.093549682111,-0.921036353607,1.0,0.0,0.0,0.0,1.0,0.0,0.0,0.0,1.0,-0.0465178713202,-0.353753864765,-0.390931099653,1.21846967915e-07,0.0,0.0,0.0,1.21846967915e-07,0.0,0.0,0.0,1.21846967915e-07,-1.1375714,0.20593965,11.8072066,9e-08,0.0,0.0,0.0,9e-08,0.0,0.0,0.0,9e-08
1532986756198386730,592,1532986756198099595,base_link,-0.367715512827,0.0264905602923,0.212229648011,-0.905009463126,1.0,0.0,0.0,0.0,1.0,0.0,0.0,0.0,1.0,-0.0955859348178,-0.392006754875,-0.339678734541,1.21846967915e-07,0.0,0.0,0.0,1.21846967915e-07,0.0,0.0,0.0,1.21846967915e-07,-0.9022118,1.4423628722e-15,11.77778665,9e-08,0.0,0.0,0.0,9e-08,0.0,0.0,0.0,9e-08
1532986756439010065,593,1532986756438747954,base_link,-0.334258369953,0.0479041618414,0.265814368147,-0.902950305986,1.0,0.0,0.0,0.0,1.0,0.0,0.0,0.0,1.0,-0.167029812932,-0.38617515564,-0.307594388723,1.21846967915e-07,0.0,0.0,0.0,1.21846967915e-07,0.0,0.0,0.0,1.21846967915e-07,-0.51975245,1.06892485,13.4154972,9e-08,0.0,0.0,0.0,9e-08,0.0,0.0,0.0,9e-08
1532986756768986218,594,1532986756768765387,base_link,-0.292267673016,0.0730289879521,0.332752882554,-0.893600522258,1.0,0.0,0.0,0.0,1.0,0.0,0.0,0.0,1.0,-0.283846378326,-0.32681080699,-0.31127166748,1.21846967915e-07,0.0,0.0,0.0,1.21846967915e-07,0.0,0.0,0.0,1.21846967915e-07,-0.392266,1.2552512,13.5724036,9e-08,0.0,0.0,0.0,9e-08,0.0,0.0,0.0,9e-08
1532986757106565580,595,1532986757106143501,base_link,-0.226732985163,0.0824345078203,0.395305813749,-0.886301313875,1.0,0.0,0.0,0.0,1.0,0.0,0.0,0.0,1.0,-0.491109788418,-0.247066244483,-0.251554459333,1.21846967915e-07,0.0,0.0,0.0,1.21846967915e-07,0.0,0.0,0.0,1.21846967915e-07,-0.4118793,1.1964113,13.18994425,9e-08,0.0,0.0,0.0,9e-08,0.0,0.0,0.0,9e-08
1532986757441517333,596,1532986757441274294,base_link,-0.136504343973,0.0639402658615,0.442986307726,-0.883765431348,1.0,0.0,0.0,0.0,1.0,0.0,0.0,0.0,1.0,-0.69255810976,-0.173235937953,-0.199360117316,1.21846967915e-07,0.0,0.0,0.0,1.21846967915e-07,0.0,0.0,0.0,1.21846967915e-07,-0.50013915,0.7256921,12.1798593,9e-08,0.0,0.0,0.0,9e-08,0.0,0.0,0.0,9e-08
1532986757784343815,597,1532986757779848468,base_link,-0.0326221428805,0.0254453829444,0.479735730726,-0.876437080996,1.0,0.0,0.0,0.0,1.0,0.0,0.0,0.0,1.0,-0.634608924389,-0.0523077137768,-0.123924762011,1.21846967915e-07,0.0,0.0,0.0,1.21846967915e-07,0.0,0.0,0.0,1.21846967915e-07,-0.5491724,1.4243483484e-15,11.6306869,9e-08,0.0,0.0,0.0,9e-08,0.0,0.0,0.0,9e-08
1532986758196413287,598,1532986758195425162,base_link,0.0672014334557,-0.0241302961512,0.484372915841,-0.87194298813,1.0,0.0,0.0,0.0,1.0,0.0,0.0,0.0,1.0,-0.532037615776,-0.0456191152334,0.0734113305807,1.21846967915e-07,0.0,0.0,0.0,1.21846967915e-07,0.0,0.0,0.0,1.21846967915e-07,-0.5687857,0.0196133,10.64021525,9e-08,0.0,0.0,0.0,9e-08,0.0,0.0,0.0,9e-08
1532986758605749967,599,1532986758605364400,base_link,0.149655897353,-0.0727726959742,0.4499903988,-0.877391524974,1.0,0.0,0.0,0.0,1.0,0.0,0.0,0.0,1.0,-0.356012165546,0.0204511284828,0.225704848766,1.21846967915e-07,0.0,0.0,0.0,1.21846967915e-07,0.0,0.0,0.0,1.21846967915e-07,-0.28439285,0.50013915,9.79684335,9e-08,0.0,0.0,0.0,9e-08,0.0,0.0,0.0,9e-08
1532986759106139459,600,1532986759105595589,base_link,0.194584995813,-0.103650496723,0.396297193919,-0.891258541628,1.0,0.0,0.0,0.0,1.0,0.0,0.0,0.0,1.0,-0.0700280293822,-0.0233748219907,0.221310734749,1.21846967915e-07,0.0,0.0,0.0,1.21846967915e-07,0.0,0.0,0.0,1.21846967915e-07,-0.08825985,0.0196133,8.24739265,9e-08,0.0,0.0,0.0,9e-08,0.0,0.0,0.0,9e-08
1532986759509939389,601,1532986759509703677,base_link,0.187166090625,-0.100019664655,0.343359078333,-0.914915003991,1.0,0.0,0.0,0.0,1.0,0.0,0.0,0.0,1.0,0.100738443434,-0.0700665190816,0.300729185343,1.21846967915e-07,0.0,0.0,0.0,1.21846967915e-07,0.0,0.0,0.0,1.21846967915e-07,-0.04903325,-0.02941995,10.05181625,9e-08,0.0,0.0,0.0,9e-08,0.0,0.0,0.0,9e-08
1532986759872772242,602,1532986759872463763,base_link,0.185456768466,-0.0947255509342,0.286837838362,-0.935070538256,1.0,0.0,0.0,0.0,1.0,0.0,0.0,0.0,1.0,-0.00743955560029,-0.102357923985,0.308656275272,1.21846967915e-07,0.0,0.0,0.0,1.21846967915e-07,0.0,0.0,0.0,1.21846967915e-07,-0.00980665,0.0392266,10.3362091,9e-08,0.0,0.0,0.0,9e-08,0.0,0.0,0.0,9e-08
1532986760274336433,603,1532986760274067922,base_link,0.181264550433,-0.0863528263819,0.234999457848,-0.951031864316,1.0,0.0,0.0,0.0,1.0,0.0,0.0,0.0,1.0,0.0911358818412,-0.0836679339409,0.183959260583,1.21846967915e-07,0.0,0.0,0.0,1.21846967915e-07,0.0,0.0,0.0,1.21846967915e-07,-0.04903325,0.00980665,9.0613446,9e-08,0.0,0.0,0.0,9e-08,0.0,0.0,0.0,9e-08
1532986760686368753,604,1532986760684703575,base_link,0.158836292918,-0.0638647396632,0.201157112625,-0.964483355543,1.0,0.0,0.0,0.0,1.0,0.0,0.0,0.0,1.0,0.0757240578532,-0.133886635303,0.175438910723,1.21846967915e-07,0.0,0.0,0.0,1.21846967915e-07,0.0,0.0,0.0,1.21846967915e-07,0.2941995,0.02941995,10.46369555,9e-08,0.0,0.0,0.0,9e-08,0.0,0.0,0.0,9e-08
1532986761077357810,605,1532986761076503540,base_link,0.140847248551,-0.0386920691173,0.156053296281,-0.976889116063,1.0,0.0,0.0,0.0,1.0,0.0,0.0,0.0,1.0,0.123904757202,-0.151562869549,0.220409035683,1.21846967915e-07,0.0,0.0,0.0,1.21846967915e-07,0.0,0.0,0.0,1.21846967915e-07,0.6080123,0.00980665,11.3364874,9e-08,0.0,0.0,0.0,9e-08,0.0,0.0,0.0,9e-08
1532986761549974684,606,1532986761549536221,base_link,0.106565367635,-0.0106134857838,0.103276138842,-0.988870676826,1.0,0.0,0.0,0.0,1.0,0.0,0.0,0.0,1.0,0.247602835298,-0.11330177635,0.163797840476,1.21846967915e-07,0.0,0.0,0.0,1.21846967915e-07,0.0,0.0,0.0,1.21846967915e-07,0.50013915,0.196133,11.76798,9e-08,0.0,0.0,0.0,9e-08,0.0,0.0,0.0,9e-08
1532986762084167212,607,1532986762078739548,base_link,0.0112646355771,0.0150215330748,0.0640754957602,-0.997768406181,1.0,0.0,0.0,0.0,1.0,0.0,0.0,0.0,1.0,0.389964848757,-0.0636394619942,0.125057369471,1.21846967915e-07,0.0,0.0,0.0,1.21846967915e-07,0.0,0.0,0.0,1.21846967915e-07,0.44129925,0.22555295,11.6699135,9e-08,0.0,0.0,0.0,9e-08,0.0,0.0,0.0,9e-08
1532986762413363144,608,1532986762413088041,base_link,-0.0310135092424,0.0209995421225,0.0449773067625,-0.998285642164,1.0,0.0,0.0,0.0,1.0,0.0,0.0,0.0,1.0,0.257767170668,0.0259502716362,0.0311137456447,1.21846967915e-07,0.0,0.0,0.0,1.21846967915e-07,0.0,0.0,0.0,1.21846967915e-07,0.2941995,0.57859235,9.7870367,9e-08,0.0,0.0,0.0,9e-08,0.0,0.0,0.0,9e-08
1532986762847429415,609,1532986762847218920,base_link,-0.0324702646292,0.000419651486596,0.0554694219427,-0.997932186592,1.0,0.0,0.0,0.0,1.0,0.0,0.0,0.0,1.0,0.0110601233318,0.123759783804,-0.167118906975,1.21846967915e-07,0.0,0.0,0.0,1.21846967915e-07,0.0,0.0,0.0,1.21846967915e-07,0.2157463,0.588399,6.85484835,9e-08,0.0,0.0,0.0,9e-08,0.0,0.0,0.0,9e-08
1532986763190467194,610,1532986763189762620,base_link,-0.0192424857269,-0.017944132583,0.0798114833288,-0.996462674654,1.0,0.0,0.0,0.0,1.0,0.0,0.0,0.0,1.0,-0.198158025742,0.103222593665,-0.142731130123,1.21846967915e-07,0.0,0.0,0.0,1.21846967915e-07,0.0,0.0,0.0,1.21846967915e-07,0.6080123,0.0196133,7.0804013,9e-08,0.0,0.0,0.0,9e-08,0.0,0.0,0.0,9e-08
1532986763623955354,611,1532986763623730427,base_link,-0.0447400233342,-0.00897504927755,0.0766697653736,-0.996011810111,1.0,0.0,0.0,0.0,1.0,0.0,0.0,0.0,1.0,-0.140429705381,-0.0840156078339,0.105656862259,1.21846967915e-07,0.0,0.0,0.0,1.21846967915e-07,0.0,0.0,0.0,1.21846967915e-07,1.2748645,0.51975245,10.97364135,9e-08,0.0,0.0,0.0,9e-08,0.0,0.0,0.0,9e-08
1532986764081564594,612,1532986764081283315,base_link,-0.029607241742,0.00468300718504,0.0696213233842,-0.997123037549,1.0,0.0,0.0,0.0,1.0,0.0,0.0,0.0,1.0,-0.0677882730961,-0.0491791330278,-0.0466454476118,1.21846967915e-07,0.0,0.0,0.0,1.21846967915e-07,0.0,0.0,0.0,1.21846967915e-07,1.0983448,0.5295591,10.85596155,9e-08,0.0,0.0,0.0,9e-08,0.0,0.0,0.0,9e-08
1532986764518184873,613,1532986764517928362,base_link,-0.0174596331636,0.0142182430836,0.0779365753353,-0.99670401474,1.0,0.0,0.0,0.0,1.0,0.0,0.0,0.0,1.0,0.0603266954422,-0.0548338256776,0.0104354657233,1.21846967915e-07,0.0,0.0,0.0,1.21846967915e-07,0.0,0.0,0.0,1.21846967915e-07,0.8825985,-0.02941995,9.87529655,9e-08,0.0,0.0,0.0,9e-08,0.0,0.0,0.0,9e-08
1532986764894899702,614,1532986764894662486,base_link,-0.0332276839998,0.0203521602512,0.0665751962064,-0.997020287577,1.0,0.0,0.0,0.0,1.0,0.0,0.0,0.0,1.0,0.0609817169607,-0.000797130167484,0.0388500653207,1.21846967915e-07,0.0,0.0,0.0,1.21846967915e-07,0.0,0.0,0.0,1.21846967915e-07,1.0198916,0.46091255,9.0025047,9e-08,0.0,0.0,0.0,9e-08,0.0,0.0,0.0,9e-08
1532986765304444415,615,1532986765303909889,base_link,-0.0690411439593,0.0245871685788,0.0762583208137,-0.994390999602,1.0,0.0,0.0,0.0,1.0,0.0,0.0,0.0,1.0,0.174159556627,-0.0165027249604,-0.0826161801815,1.21846967915e-07,0.0,0.0,0.0,1.21846967915e-07,0.0,0.0,0.0,1.21846967915e-07,1.32389775,0.6080123,9.6301303,9e-08,0.0,0.0,0.0,9e-08,0.0,0.0,0.0,9e-08
1532986765759150431,616,1532986765758777441,base_link,-0.117627324686,0.033571188943,0.104777181371,-0.986944035913,1.0,0.0,0.0,0.0,1.0,0.0,0.0,0.0,1.0,0.347364962101,-0.0676754191518,-0.155840218067,1.21846967915e-07,0.0,0.0,0.0,1.21846967915e-07,0.0,0.0,0.0,1.21846967915e-07,1.2552512,0.0392266,11.1991943,9e-08,0.0,0.0,0.0,9e-08,0.0,0.0,0.0,9e-08
1532986766060777295,617,1532986766060350673,base_link,-0.175190179646,0.048743041329,0.119758289179,-0.976007412395,1.0,0.0,0.0,0.0,1.0,0.0,0.0,0.0,1.0,0.329697728157,-0.128586381674,-0.146855592728,1.21846967915e-07,0.0,0.0,0.0,1.21846967915e-07,0.0,0.0,0.0,1.21846967915e-07,1.14737805,1.16699135,12.07198615,9e-08,0.0,0.0,0.0,9e-08,0.0,0.0,0.0,9e-08
1532986766478751008,618,1532986766476721063,base_link,-0.223056543393,0.076646641055,0.166165880947,-0.957475833049,1.0,0.0,0.0,0.0,1.0,0.0,0.0,0.0,1.0,0.254536956549,-0.154792830348,-0.232307255268,1.21846967915e-07,0.0,0.0,0.0,1.21846967915e-07,0.0,0.0,0.0,1.21846967915e-07,1.176798,0.65704555,11.5130071,9e-08,0.0,0.0,0.0,9e-08,0.0,0.0,0.0,9e-08
1532986766941629898,619,1532986766941359019,base_link,-0.262057988847,0.11078370158,0.214969480339,-0.934259441734,1.0,0.0,0.0,0.0,1.0,0.0,0.0,0.0,1.0,0.178410574794,-0.195851773024,-0.206410139799,1.21846967915e-07,0.0,0.0,0.0,1.21846967915e-07,0.0,0.0,0.0,1.21846967915e-07,0.4707192,0.8629852,9.73800345,9e-08,0.0,0.0,0.0,9e-08,0.0,0.0,0.0,9e-08
1532986767376506344,620,1532986767374557678,base_link,-0.243249232414,0.113488887989,0.28393061101,-0.920507192457,1.0,0.0,0.0,0.0,1.0,0.0,0.0,0.0,1.0,-0.238891765475,-0.0886150225997,-0.374396145344,1.21846967915e-07,0.0,0.0,0.0,1.21846967915e-07,0.0,0.0,0.0,1.21846967915e-07,1.0198916,0.7256921,9.44380395,9e-08,0.0,0.0,0.0,9e-08,0.0,0.0,0.0,9e-08
1532986767853146376,621,1532986767852956713,base_link,-0.229174681582,0.127314843055,0.36952759523,-0.891470275681,1.0,0.0,0.0,0.0,1.0,0.0,0.0,0.0,1.0,-0.0895020142198,-0.251488149166,-0.27016800642,1.21846967915e-07,0.0,0.0,0.0,1.21846967915e-07,0.0,0.0,0.0,1.21846967915e-07,0.7256921,0.4314926,13.07226445,9e-08,0.0,0.0,0.0,9e-08,0.0,0.0,0.0,9e-08
1532986768255400457,622,1532986768255082858,base_link,-0.212520063277,0.155000901285,0.416433808912,-0.870283187302,1.0,0.0,0.0,0.0,1.0,0.0,0.0,0.0,1.0,-0.0249071642756,-0.241318076849,-0.222459286451,1.21846967915e-07,0.0,0.0,0.0,1.21846967915e-07,0.0,0.0,0.0,1.21846967915e-07,0.8629852,0.59820565,12.9643913,9e-08,0.0,0.0,0.0,9e-08,0.0,0.0,0.0,9e-08
1532986768613136176,623,1532986768612574610,base_link,-0.178847564499,0.155857839122,0.461937065249,-0.854596998828,1.0,0.0,0.0,0.0,1.0,0.0,0.0,0.0,1.0,-0.250207424164,-0.165783405304,-0.230217248201,1.21846967915e-07,0.0,0.0,0.0,1.21846967915e-07,0.0,0.0,0.0,1.21846967915e-07,0.75511205,0.48052585,10.42446895,9e-08,0.0,0.0,0.0,9e-08,0.0,0.0,0.0,9e-08
1532986769008689381,624,1532986769008342118,base_link,-0.143803806309,0.148563931128,0.508669738167,-0.835765709474,1.0,0.0,0.0,0.0,1.0,0.0,0.0,0.0,1.0,-0.294546097517,-0.0330214649439,-0.197484463453,1.21846967915e-07,0.0,0.0,0.0,1.21846967915e-07,0.0,0.0,0.0,1.21846967915e-07,0.55897905,0.7453054,10.4146623,9e-08,0.0,0.0,0.0,9e-08,0.0,0.0,0.0,9e-08
1532986769413786813,625,1532986769412809376,base_link,-0.124273807226,0.124869434611,0.554887437086,-0.813058163542,1.0,0.0,0.0,0.0,1.0,0.0,0.0,0.0,1.0,-0.0608161985874,-0.0141289811581,-0.24476402998,1.21846967915e-07,0.0,0.0,0.0,1.21846967915e-07,0.0,0.0,0.0,1.21846967915e-07,0.980665,0.3334261,9.75761675,9e-08,0.0,0.0,0.0,9e-08,0.0,0.0,0.0,9e-08
1532986769898576804,626,1532986769898254309,base_link,-0.131826429054,0.135663714877,0.578217803853,-0.793650628662,1.0,0.0,0.0,0.0,1.0,0.0,0.0,0.0,1.0,0.0574056915939,-0.0725990086794,0.0492523573339,1.21846967915e-07,0.0,0.0,0.0,1.21846967915e-07,0.0,0.0,0.0,1.21846967915e-07,0.588399,-0.04903325,11.18938765,9e-08,0.0,0.0,0.0,9e-08,0.0,0.0,0.0,9e-08
1532986770410506362,627,1532986770410063643,base_link,-0.0996445478785,0.12837292248,0.578964132225,-0.798994299384,1.0,0.0,0.0,0.0,1.0,0.0,0.0,0.0,1.0,-0.264195472002,0.00422058999538,-0.06329639256,1.21846967915e-07,0.0,0.0,0.0,1.21846967915e-07,0.0,0.0,0.0,1.21846967915e-07,0.65704555,0.95124505,9.07115125,9e-08,0.0,0.0,0.0,9e-08,0.0,0.0,0.0,9e-08
1532986770867998964,628,1532986770867764596,base_link,-0.0811958405591,0.0972532903712,0.619754932891,-0.774501682468,1.0,0.0,0.0,0.0,1.0,0.0,0.0,0.0,1.0,-0.196304067969,0.0307815745473,-0.223780855536,1.21846967915e-07,0.0,0.0,0.0,1.21846967915e-07,0.0,0.0,0.0,1.21846967915e-07,0.2745862,0.46091255,9.3163175,9e-08,0.0,0.0,0.0,9e-08,0.0,0.0,0.0,9e-08
1532986771217352116,629,1532986771215670425,base_link,-0.067897017124,0.080676257882,0.643630883405,-0.758037348953,1.0,0.0,0.0,0.0,1.0,0.0,0.0,0.0,1.0,-0.0775285661221,-0.00929681397974,-0.13569997251,1.21846967915e-07,0.0,0.0,0.0,1.21846967915e-07,0.0,0.0,0.0,1.21846967915e-07,0.3138128,0.26477955,9.30651085,9e-08,0.0,0.0,0.0,9e-08,0.0,0.0,0.0,9e-08
1532986771573395392,630,1532986771573068353,base_link,-0.0613137819019,0.0744555220788,0.653765546202,-0.750524886982,1.0,0.0,0.0,0.0,1.0,0.0,0.0,0.0,1.0,-0.0511200465262,-0.00203316565603,-0.0277205146849,1.21846967915e-07,0.0,0.0,0.0,1.21846967915e-07,0.0,0.0,0.0,1.21846967915e-07,0.44129925,0.20593965,9.5320638,9e-08,0.0,0.0,0.0,9e-08,0.0,0.0,0.0,9e-08
1532986771978624504,631,1532986771978372121,base_link,-0.0632560741513,0.0774585095678,0.661988998598,-0.742811829546,1.0,0.0,0.0,0.0,1.0,0.0,0.0,0.0,1.0,0.0197541099042,-0.0173756293952,-0.100384101272,1.21846967915e-07,0.0,0.0,0.0,1.21846967915e-07,0.0,0.0,0.0,1.21846967915e-07,0.65704555,0.12748645,11.75817335,9e-08,0.0,0.0,0.0,9e-08,0.0,0.0,0.0,9e-08
1532986772344440456,632,1532986772344050217,base_link,-0.0551181304641,0.0747394459755,0.66068696589,-0.744895120143,1.0,0.0,0.0,0.0,1.0,0.0,0.0,0.0,1.0,-0.146841496229,-0.0494774393737,0.0700275301933,1.21846967915e-07,0.0,0.0,0.0,1.21846967915e-07,0.0,0.0,0.0,1.21846967915e-07,0.588399,0.7256921,9.03192465,9e-08,0.0,0.0,0.0,9e-08,0.0,0.0,0.0,9e-08
1532986772791800642,633,1532986772791444931,base_link,-0.0192386518246,0.0153177336999,0.68071777446,-0.732132879227,1.0,0.0,0.0,0.0,1.0,0.0,0.0,0.0,1.0,-0.285657346249,0.120267003775,-0.241705387831,1.21846967915e-07,0.0,0.0,0.0,1.21846967915e-07,0.0,0.0,0.0,1.21846967915e-07,0.16671305,0.34323275,6.4920023,9e-08,0.0,0.0,0.0,9e-08,0.0,0.0,0.0,9e-08
1532986773139633097,634,1532986773139378825,base_link,0.00732154939726,-0.0155102162279,0.697690386573,-0.716194074669,1.0,0.0,0.0,0.0,1.0,0.0,0.0,0.0,1.0,-0.115125246346,0.0360715463758,-0.025408660993,1.21846967915e-07,0.0,0.0,0.0,1.21846967915e-07,0.0,0.0,0.0,1.21846967915e-07,0.3334261,0.30400615,10.44408225,9e-08,0.0,0.0,0.0,9e-08,0.0,0.0,0.0,9e-08
1532986773590180121,635,1532986773589882266,base_link,0.00812415661675,-0.0144665790278,0.702102256306,-0.711882811887,1.0,0.0,0.0,0.0,1.0,0.0,0.0,0.0,1.0,0.240243792534,0.00781367439777,0.0343249961734,1.21846967915e-07,0.0,0.0,0.0,1.21846967915e-07,0.0,0.0,0.0,1.21846967915e-07,0.32361945,0.1176798,8.0806796,9e-08,0.0,0.0,0.0,9e-08,0.0,0.0,0.0,9e-08
1532986774032914689,636,1532986774032658530,base_link,-0.0170161370457,0.0155964807068,0.701258983403,-0.712532833676,1.0,0.0,0.0,0.0,1.0,0.0,0.0,0.0,1.0,0.148861989379,0.0304857417941,-0.00512396125123,1.21846967915e-07,0.0,0.0,0.0,1.21846967915e-07,0.0,0.0,0.0,1.21846967915e-07,0.6864655,0.32361945,10.79712165,9e-08,0.0,0.0,0.0,9e-08,0.0,0.0,0.0,9e-08
1532986774463017423,637,1532986774462681616,base_link,-0.0189214046196,0.018377865104,0.705262661835,-0.708455229596,1.0,0.0,0.0,0.0,1.0,0.0,0.0,0.0,1.0,-0.0484787710011,-0.0526054762304,-0.0453036390245,1.21846967915e-07,0.0,0.0,0.0,1.21846967915e-07,0.0,0.0,0.0,1.21846967915e-07,0.196133,0.4118793,10.2381426,9e-08,0.0,0.0,0.0,9e-08,0.0,0.0,0.0,9e-08
1532986774859733762,638,1532986774858099143,base_link,0.00487738502784,-0.0174295954153,-0.713680460321,0.700237546034,1.0,0.0,0.0,0.0,1.0,0.0,0.0,0.0,1.0,-0.0792671516538,-0.0195214562118,-0.0642967224121,1.21846967915e-07,0.0,0.0,0.0,1.21846967915e-07,0.0,0.0,0.0,1.21846967915e-07,0.30400615,0.4511059,11.01286795,9e-08,0.0,0.0,0.0,9e-08,0.0,0.0,0.0,9e-08
1532986775307333148,639,1532986775307067677,base_link,0.0162638309576,-0.0376097165153,-0.720992567569,0.691730232487,1.0,0.0,0.0,0.0,1.0,0.0,0.0,0.0,1.0,0.0931941196322,-0.0331195034087,0.00506084272638,1.21846967915e-07,0.0,0.0,0.0,1.21846967915e-07,0.0,0.0,0.0,1.21846967915e-07,-0.02941995,0.08825985,8.75733845,9e-08,0.0,0.0,0.0,9e-08,0.0,0.0,0.0,9e-08
1532986775608552047,640,1532986775607945617,base_link,0.0169815806962,-0.0480469281275,-0.714907799712,0.697359273636,1.0,0.0,0.0,0.0,1.0,0.0,0.0,0.0,1.0,0.0373563431203,-0.0422960110009,0.0742537900805,1.21846967915e-07,0.0,0.0,0.0,1.21846967915e-07,0.0,0.0,0.0,1.21846967915e-07,0.2941995,0.12748645,9.83606995,9e-08,0.0,0.0,0.0,9e-08,0.0,0.0,0.0,9e-08
1532986776020481172,641,1532986776019788630,base_link,0.0113210104314,-0.0495183830985,-0.712652410525,0.699675857974,1.0,0.0,0.0,0.0,1.0,0.0,0.0,0.0,1.0,-0.0691828504205,-0.00216810125858,-0.00820658449084,1.21846967915e-07,0.0,0.0,0.0,1.21846967915e-07,0.0,0.0,0.0,1.21846967915e-07,0.4511059,0.40207265,11.36590735,9e-08,0.0,0.0,0.0,9e-08,0.0,0.0,0.0,9e-08
1532986776564948905,642,1532986776564606698,base_link,0.0110640737455,-0.0474379678069,-0.719242676712,0.693049202783,1.0,0.0,0.0,0.0,1.0,0.0,0.0,0.0,1.0,0.0512473732233,0.0251016020775,0.0386645048857,1.21846967915e-07,0.0,0.0,0.0,1.21846967915e-07,0.0,0.0,0.0,1.21846967915e-07,0.3530394,0.196133,9.36535075,9e-08,0.0,0.0,0.0,9e-08,0.0,0.0,0.0,9e-08
1532986776965387505,643,1532986776964191860,base_link,0.00841664354156,-0.0318481482235,-0.714525759353,0.698833166634,1.0,0.0,0.0,0.0,1.0,0.0,0.0,0.0,1.0,-0.133288487792,0.0523399710655,0.00656426604837,1.21846967915e-07,0.0,0.0,0.0,1.21846967915e-07,0.0,0.0,0.0,1.21846967915e-07,0.36284605,0.34323275,8.22777935,9e-08,0.0,0.0,0.0,9e-08,0.0,0.0,0.0,9e-08
1532986777373879328,644,1532986777373413217,base_link,0.00450221983895,-0.0109649567092,-0.718835981807,0.695078650946,1.0,0.0,0.0,0.0,1.0,0.0,0.0,0.0,1.0,0.00611291266978,0.0496150329709,-0.0204812288284,1.21846967915e-07,0.0,0.0,0.0,1.21846967915e-07,0.0,0.0,0.0,1.21846967915e-07,0.6472389,0.0588399,7.93357985,9e-08,0.0,0.0,0.0,9e-08,0.0,0.0,0.0,9e-08
1532986777766205760,645,1532986777765932129,base_link,-0.00835535111571,0.0150747109815,-0.718145050466,0.695679975052,1.0,0.0,0.0,0.0,1.0,0.0,0.0,0.0,1.0,-0.298316627741,-0.0307766776532,0.0180358234793,1.21846967915e-07,0.0,0.0,0.0,1.21846967915e-07,0.0,0.0,0.0,1.21846967915e-07,1.06892485,0.0588399,10.1400761,9e-08,0.0,0.0,0.0,9e-08,0.0,0.0,0.0,9e-08
1532986778065987511,646,1532986778065018330,base_link,-0.0179992247337,0.0137292993673,-0.70890693204,0.704938646942,1.0,0.0,0.0,0.0,1.0,0.0,0.0,0.0,1.0,0.272022336721,-0.0131909204647,0.139028251171,1.21846967915e-07,0.0,0.0,0.0,1.21846967915e-07,0.0,0.0,0.0,1.21846967915e-07,1.1964113,1.49400450709e-15,12.1994726,9e-08,0.0,0.0,0.0,9e-08,0.0,0.0,0.0,9e-08
1532986778541536381,647,1532986778541250877,base_link,0.0104500342882,-0.000409163475911,0.689282640374,-0.724417056017,1.0,0.0,0.0,0.0,1.0,0.0,0.0,0.0,1.0,0.0790674835443,-0.00585603434592,0.0588182918727,1.21846967915e-07,0.0,0.0,0.0,1.21846967915e-07,0.0,0.0,0.0,1.21846967915e-07,0.57859235,0.3334261,9.218251,9e-08,0.0,0.0,0.0,9e-08,0.0,0.0,0.0,9e-08
1532986779016976226,648,1532986779006778209,base_link,-0.000388585674419,0.00684412225361,0.69191680519,-0.721944694341,1.0,0.0,0.0,0.0,1.0,0.0,0.0,0.0,1.0,0.186332881451,0.025946483016,-0.0876769199967,1.21846967915e-07,0.0,0.0,0.0,1.21846967915e-07,0.0,0.0,0.0,1.21846967915e-07,0.79433865,0.4707192,10.6304086,9e-08,0.0,0.0,0.0,9e-08,0.0,0.0,0.0,9e-08
1532986779501020045,649,1532986779500807886,base_link,-0.0475643769853,0.0456476239742,0.701244755179,-0.709865985804,1.0,0.0,0.0,0.0,1.0,0.0,0.0,0.0,1.0,0.0505857989192,0.016903264448,-0.0300512630492,1.21846967915e-07,0.0,0.0,0.0,1.21846967915e-07,0.0,0.0,0.0,1.21846967915e-07,0.44129925,0.4707192,7.453054,9e-08,0.0,0.0,0.0,9e-08,0.0,0.0,0.0,9e-08
1532986779919987773,650,1532986779919567934,base_link,0.0289402852743,-0.0157831022424,-0.715061023393,0.698284387908,1.0,0.0,0.0,0.0,1.0,0.0,0.0,0.0,1.0,0.0861329957843,0.0192860402167,-0.130550280213,1.21846967915e-07,0.0,0.0,0.0,1.21846967915e-07,0.0,0.0,0.0,1.21846967915e-07,1.01008495,0.392266,9.56148375,9e-08,0.0,0.0,0.0,9e-08,0.0,0.0,0.0,9e-08
1532986780256819846,651,1532986780255397034,base_link,0.0376313953089,-0.0318053139203,-0.721213422837,0.690958391521,1.0,0.0,0.0,0.0,1.0,0.0,0.0,0.0,1.0,0.225477576256,-0.052572235465,-0.0420327670872,1.21846967915e-07,0.0,0.0,0.0,1.21846967915e-07,0.0,0.0,0.0,1.21846967915e-07,1.4121576,0.00980665,10.71866845,9e-08,0.0,0.0,0.0,9e-08,0.0,0.0,0.0,9e-08
1532986780624899952,652,1532986780615317965,base_link,-0.00224910725882,-0.0243786374354,-0.71248255197,0.701262601806,1.0,0.0,0.0,0.0,1.0,0.0,0.0,0.0,1.0,-0.111968576908,-0.193831443787,0.118410438299,1.21846967915e-07,0.0,0.0,0.0,1.21846967915e-07,0.0,0.0,0.0,1.21846967915e-07,1.73577705,0.06864655,15.298374,9e-08,0.0,0.0,0.0,9e-08,0.0,0.0,0.0,9e-08
1532986780999250760,653,1532986780998971625,base_link,0.0326420118109,0.017636794224,0.699527350276,-0.71364201724,1.0,0.0,0.0,0.0,1.0,0.0,0.0,0.0,1.0,-0.0598649829626,-0.0326885804534,-0.0172291062772,1.21846967915e-07,0.0,0.0,0.0,1.21846967915e-07,0.0,0.0,0.0,1.21846967915e-07,0.12748645,1.0002783,9.62032365,9e-08,0.0,0.0,0.0,9e-08,0.0,0.0,0.0,9e-08
1532986781373221409,654,1532986781372980162,base_link,-0.0257956475973,-0.0315100797794,-0.720563520056,0.692192107006,1.0,0.0,0.0,0.0,1.0,0.0,0.0,0.0,1.0,0.184548541903,-0.0214604251087,-0.209585532546,1.21846967915e-07,0.0,0.0,0.0,1.21846967915e-07,0.0,0.0,0.0,1.21846967915e-07,0.4314926,0.3138128,10.3558224,9e-08,0.0,0.0,0.0,9e-08,0.0,0.0,0.0,9e-08
1532986781672133468,655,1532986781671791869,base_link,-0.0142014402003,-0.0474103246081,-0.734041522035,0.677298770223,1.0,0.0,0.0,0.0,1.0,0.0,0.0,0.0,1.0,-0.0164358243346,-0.0260554067791,-0.0466456413269,1.21846967915e-07,0.0,0.0,0.0,1.21846967915e-07,0.0,0.0,0.0,1.21846967915e-07,0.40207265,-0.10787315,9.9635564,9e-08,0.0,0.0,0.0,9e-08,0.0,0.0,0.0,9e-08
1532986782128377821,656,1532986782127792767,base_link,0.000542872136958,-0.0619487356094,-0.729616461715,0.681044696213,1.0,0.0,0.0,0.0,1.0,0.0,0.0,0.0,1.0,0.181260466576,0.00572435744107,0.0469461902976,1.21846967915e-07,0.0,0.0,0.0,1.21846967915e-07,0.0,0.0,0.0,1.21846967915e-07,0.65704555,0.1372931,9.2770909,9e-08,0.0,0.0,0.0,9e-08,0.0,0.0,0.0,9e-08
1532986782395171545,657,1532986782394393915,base_link,0.0176571451342,-0.0746125410386,-0.726803381376,0.682552590476,1.0,0.0,0.0,0.0,1.0,0.0,0.0,0.0,1.0,0.0688929706812,0.0292033217847,-0.0302601754665,1.21846967915e-07,0.0,0.0,0.0,1.21846967915e-07,0.0,0.0,0.0,1.21846967915e-07,0.5491724,0.44129925,8.48275225,9e-08,0.0,0.0,0.0,9e-08,0.0,0.0,0.0,9e-08
1532986782892129919,658,1532986782891695233,base_link,0.0626218824753,-0.0842003155934,-0.745809206925,0.65784301589,1.0,0.0,0.0,0.0,1.0,0.0,0.0,0.0,1.0,0.0221396870911,0.0966523513198,-0.201793149114,1.21846967915e-07,0.0,0.0,0.0,1.21846967915e-07,0.0,0.0,0.0,1.21846967915e-07,0.7060788,-0.1569064,7.3942141,9e-08,0.0,0.0,0.0,9e-08,0.0,0.0,0.0,9e-08
1532986783299348756,659,1532986783298795574,base_link,0.0528009383727,-0.0732813187433,-0.754892213178,0.649599611849,1.0,0.0,0.0,0.0,1.0,0.0,0.0,0.0,1.0,-0.00698221847415,-0.0208959318697,-0.0559172071517,1.21846967915e-07,0.0,0.0,0.0,1.21846967915e-07,0.0,0.0,0.0,1.21846967915e-07,1.48080415,0.38245935,12.83690485,9e-08,0.0,0.0,0.0,9e-08,0.0,0.0,0.0,9e-08
1532986783622111111,660,1532986783621739177,base_link,0.0728861619051,-0.112646867041,-0.753774578247,0.643290118016,1.0,0.0,0.0,0.0,1.0,0.0,0.0,0.0,1.0,0.403323680162,-0.115981437266,0.0120127573609,1.21846967915e-07,0.0,0.0,0.0,1.21846967915e-07,0.0,0.0,0.0,1.21846967915e-07,0.9022118,0.5295591,12.9643913,9e-08,0.0,0.0,0.0,9e-08,0.0,0.0,0.0,9e-08
1532986783963179460,661,1532986783960946442,base_link,0.113833201574,-0.162566956553,-0.76194136547,0.616489531494,1.0,0.0,0.0,0.0,1.0,0.0,0.0,0.0,1.0,0.40696361661,-0.03703995049,-0.276951640844,1.21846967915e-07,0.0,0.0,0.0,1.21846967915e-07,0.0,0.0,0.0,1.21846967915e-07,0.2549729,0.4707192,7.4334407,9e-08,0.0,0.0,0.0,9e-08,0.0,0.0,0.0,9e-08
1532986784378220513,662,1532986784377899842,base_link,0.111096845312,-0.158645218832,-0.801254724541,0.566109575882,1.0,0.0,0.0,0.0,1.0,0.0,0.0,0.0,1.0,-0.131769478321,-0.115216031671,-0.285125821829,1.21846967915e-07,0.0,0.0,0.0,1.21846967915e-07,0.0,0.0,0.0,1.21846967915e-07,0.51975245,0.61781895,11.6699135,9e-08,0.0,0.0,0.0,9e-08,0.0,0.0,0.0,9e-08
1532986784861718704,663,1532986784861429808,base_link,0.0930895269866,-0.1622507816,-0.831708490128,0.522752342209,1.0,0.0,0.0,0.0,1.0,0.0,0.0,0.0,1.0,0.0957159474492,-0.141530409455,-0.0917958468199,1.21846967915e-07,0.0,0.0,0.0,1.21846967915e-07,0.0,0.0,0.0,1.21846967915e-07,0.69627215,0.16671305,10.50292215,9e-08,0.0,0.0,0.0,9e-08,0.0,0.0,0.0,9e-08
1532986785253219732,664,1532986785252929652,base_link,0.11928069215,-0.234849843986,-0.83651596073,0.480477590221,1.0,0.0,0.0,0.0,1.0,0.0,0.0,0.0,1.0,-0.128323435783,-0.132656440139,-0.264000087976,1.21846967915e-07,0.0,0.0,0.0,1.21846967915e-07,0.0,0.0,0.0,1.21846967915e-07,0.1765197,0.6472389,7.3942141,9e-08,0.0,0.0,0.0,9e-08,0.0,0.0,0.0,9e-08
1532986785688542292,665,1532986785688178805,base_link,0.093421967996,-0.209060421752,-0.876336974222,0.423791910687,1.0,0.0,0.0,0.0,1.0,0.0,0.0,0.0,1.0,0.00463469140232,-0.114477545023,-0.297154784203,1.21846967915e-07,0.0,0.0,0.0,1.21846967915e-07,0.0,0.0,0.0,1.21846967915e-07,0.65704555,0.59820565,10.77750835,9e-08,0.0,0.0,0.0,9e-08,0.0,0.0,0.0,9e-08
1532986786008063185,666,1532986786007723954,base_link,0.0853155071221,-0.227615536757,-0.892207818957,0.380627954127,1.0,0.0,0.0,0.0,1.0,0.0,0.0,0.0,1.0,-0.17165350914,-0.262372255325,-0.240792930126,1.21846967915e-07,0.0,0.0,0.0,1.21846967915e-07,0.0,0.0,0.0,1.21846967915e-07,0.55897905,0.50013915,11.0030613,9e-08,0.0,0.0,0.0,9e-08,0.0,0.0,0.0,9e-08
1532986786298759717,667,1532986786298227590,base_link,0.0625965703303,-0.237090711188,-0.904556256564,0.348780221288,1.0,0.0,0.0,0.0,1.0,0.0,0.0,0.0,1.0,0.0552103295922,-0.22249545157,-0.12136720866,1.21846967915e-07,0.0,0.0,0.0,1.21846967915e-07,0.0,0.0,0.0,1.21846967915e-07,0.2157463,0.18632635,12.9055514,9e-08,0.0,0.0,0.0,9e-08,0.0,0.0,0.0,9e-08
1532986786758075260,668,1532986786757756829,base_link,0.0263159126174,-0.232673746535,-0.921761933677,0.309071736076,1.0,0.0,0.0,0.0,1.0,0.0,0.0,0.0,1.0,-0.0190132446587,-0.119900375605,-0.219366937876,1.21846967915e-07,0.0,0.0,0.0,1.21846967915e-07,0.0,0.0,0.0,1.21846967915e-07,0.51975245,1.04931155,13.66066345,9e-08,0.0,0.0,0.0,9e-08,0.0,0.0,0.0,9e-08
1532986787224713854,669,1532986787222368261,base_link,0.0282874089198,-0.216199818432,-0.946233379758,0.238955753309,1.0,0.0,0.0,0.0,1.0,0.0,0.0,0.0,1.0,-0.120379708707,-0.0284540597349,-0.333108067513,1.21846967915e-07,0.0,0.0,0.0,1.21846967915e-07,0.0,0.0,0.0,1.21846967915e-07,-0.0784532,0.61781895,8.9044382,9e-08,0.0,0.0,0.0,9e-08,0.0,0.0,0.0,9e-08
1532986787672742072,670,1532986787672349849,base_link,0.0323309993664,-0.206222138909,-0.962936721637,0.170821561948,1.0,0.0,0.0,0.0,1.0,0.0,0.0,0.0,1.0,-0.0977353006601,-0.0863987952471,-0.245374798775,1.21846967915e-07,0.0,0.0,0.0,1.21846967915e-07,0.0,0.0,0.0,1.21846967915e-07,0.14709975,0.18632635,8.9632781,9e-08,0.0,0.0,0.0,9e-08,0.0,0.0,0.0,9e-08
1532986788104469379,671,1532986788104230755,base_link,0.0156157172038,-0.166001338825,-0.975576143856,0.14300661671,1.0,0.0,0.0,0.0,1.0,0.0,0.0,0.0,1.0,-0.0359410941601,-0.019619833678,-0.0939095467329,1.21846967915e-07,0.0,0.0,0.0,1.21846967915e-07,0.0,0.0,0.0,1.21846967915e-07,0.7060788,0.08825985,9.12999115,9e-08,0.0,0.0,0.0,9e-08,0.0,0.0,0.0,9e-08
1532986788499325277,672,1532986788498897790,base_link,0.00890663189248,-0.146787198327,-0.980764277105,0.128357403643,1.0,0.0,0.0,0.0,1.0,0.0,0.0,0.0,1.0,-0.12960010767,-0.0141710247844,-0.0944564864039,1.21846967915e-07,0.0,0.0,0.0,1.21846967915e-07,0.0,0.0,0.0,1.21846967915e-07,1.01008495,0.40207265,10.395049,9e-08,0.0,0.0,0.0,9e-08,0.0,0.0,0.0,9e-08
1532986788837728705,673,1532986788837456418,base_link,0.00845189024079,-0.125287935038,-0.985857496229,0.110979709919,1.0,0.0,0.0,0.0,1.0,0.0,0.0,0.0,1.0,-0.190976411104,0.00078134611249,-0.113307014108,1.21846967915e-07,0.0,0.0,0.0,1.21846967915e-07,0.0,0.0,0.0,1.21846967915e-07,0.63743225,0.55897905,9.4928372,9e-08,0.0,0.0,0.0,9e-08,0.0,0.0,0.0,9e-08
1532986789263830109,674,1532986789263563581,base_link,0.0119847882336,-0.0760975830322,-0.993660786917,0.0818765122107,1.0,0.0,0.0,0.0,1.0,0.0,0.0,0.0,1.0,-0.166798770428,-0.0176565367728,-0.142131343484,1.21846967915e-07,0.0,0.0,0.0,1.21846967915e-07,0.0,0.0,0.0,1.21846967915e-07,0.59820565,0.2941995,9.81645665,9e-08,0.0,0.0,0.0,9e-08,0.0,0.0,0.0,9e-08
1532986789701310742,675,1532986789700809112,base_link,0.0050255366903,-0.0480329324914,-0.99659607013,0.0668120825795,1.0,0.0,0.0,0.0,1.0,0.0,0.0,0.0,1.0,-0.190356686711,-0.0401839464903,0.00193526688963,1.21846967915e-07,0.0,0.0,0.0,1.21846967915e-07,0.0,0.0,0.0,1.21846967915e-07,0.65704555,0.36284605,10.13026945,9e-08,0.0,0.0,0.0,9e-08,0.0,0.0,0.0,9e-08
1532986790133935070,676,1532986790133589087,base_link,-0.00488092332622,-0.0042385634014,-0.997520408424,0.0700802821423,1.0,0.0,0.0,0.0,1.0,0.0,0.0,0.0,1.0,-0.107466027141,-0.0158844199032,-0.0128608122468,1.21846967915e-07,0.0,0.0,0.0,1.21846967915e-07,0.0,0.0,0.0,1.21846967915e-07,0.6864655,0.4511059,9.54187045,9e-08,0.0,0.0,0.0,9e-08,0.0,0.0,0.0,9e-08
1532986790453302332,677,1532986790452886845,base_link,-0.00515550113877,-0.00817758216524,-0.998083374681,0.0611238508544,1.0,0.0,0.0,0.0,1.0,0.0,0.0,0.0,1.0,0.0911946520209,-0.00695306435227,-0.0439778715372,1.21846967915e-07,0.0,0.0,0.0,1.21846967915e-07,0.0,0.0,0.0,1.21846967915e-07,0.9218251,0.08825985,9.65955025,9e-08,0.0,0.0,0.0,9e-08,0.0,0.0,0.0,9e-08
1532986790868373337,678,1532986790866638014,base_link,-0.00851491780398,-0.0287939950576,-0.996955965514,0.0719527959763,1.0,0.0,0.0,0.0,1.0,0.0,0.0,0.0,1.0,0.0754663571715,-0.0225635878742,0.117915667593,1.21846967915e-07,0.0,0.0,0.0,1.21846967915e-07,0.0,0.0,0.0,1.21846967915e-07,0.9022118,0.26477955,10.2185293,9e-08,0.0,0.0,0.0,9e-08,0.0,0.0,0.0,9e-08
1532986791321155301,679,1532986791319192683,base_link,-0.0131223577074,-0.0250077683369,-0.996018641552,0.0845534205814,1.0,0.0,0.0,0.0,1.0,0.0,0.0,0.0,1.0,-0.0681440159678,-0.0168163888156,0.00528845191002,1.21846967915e-07,0.0,0.0,0.0,1.21846967915e-07,0.0,0.0,0.0,1.21846967915e-07,0.79433865,0.53936575,9.62032365,9e-08,0.0,0.0,0.0,9e-08,0.0,0.0,0.0,9e-08
1532986791757376708,680,1532986791756734246,base_link,-0.0195756233002,-0.0191482542348,-0.996379650042,0.0804843606855,1.0,0.0,0.0,0.0,1.0,0.0,0.0,0.0,1.0,-0.0488415881991,-0.0207913480699,-0.00586632452905,1.21846967915e-07,0.0,0.0,0.0,1.21846967915e-07,0.0,0.0,0.0,1.21846967915e-07,0.87279185,0.32361945,10.42446895,9e-08,0.0,0.0,0.0,9e-08,0.0,0.0,0.0,9e-08
1532986792100455516,681,1532986792099694814,base_link,-0.0261142646268,-0.0275360367066,-0.996207513083,0.0782968884553,1.0,0.0,0.0,0.0,1.0,0.0,0.0,0.0,1.0,0.0483375824988,-0.0367861948907,0.00871785730124,1.21846967915e-07,0.0,0.0,0.0,1.21846967915e-07,0.0,0.0,0.0,1.21846967915e-07,1.10815145,0.3334261,11.8464332,9e-08,0.0,0.0,0.0,9e-08,0.0,0.0,0.0,9e-08
1532986792605662795,682,1532986792605023917,base_link,-0.0254492419599,-0.0573968010205,-0.995543046505,0.0703703479595,1.0,0.0,0.0,0.0,1.0,0.0,0.0,0.0,1.0,-0.0703702941537,-0.0106504186988,-0.0694039687514,1.21846967915e-07,0.0,0.0,0.0,1.21846967915e-07,0.0,0.0,0.0,1.21846967915e-07,0.65704555,0.4707192,8.433719,9e-08,0.0,0.0,0.0,9e-08,0.0,0.0,0.0,9e-08
1532986792903253163,683,1532986792901379057,base_link,-0.0226517446121,-0.0515164605777,-0.996757239191,0.0575148578644,1.0,0.0,0.0,0.0,1.0,0.0,0.0,0.0,1.0,0.0453924760222,0.0514596253633,-0.0538097992539,1.21846967915e-07,0.0,0.0,0.0,1.21846967915e-07,0.0,0.0,0.0,1.21846967915e-07,0.87279185,0.1372931,9.8654899,9e-08,0.0,0.0,0.0,9e-08,0.0,0.0,0.0,9e-08
1532986793355082523,684,1532986793353525120,base_link,-0.0168830736883,-0.0463232401918,-0.997088319161,0.0581721843644,1.0,0.0,0.0,0.0,1.0,0.0,0.0,0.0,1.0,0.00682658096775,0.0660767033696,0.0238147657365,1.21846967915e-07,0.0,0.0,0.0,1.21846967915e-07,0.0,0.0,0.0,1.21846967915e-07,0.9610517,0.196133,9.414384,9e-08,0.0,0.0,0.0,9e-08,0.0,0.0,0.0,9e-08
1532986793795981580,685,1532986793795312846,base_link,-0.00484896306089,-0.029207850706,-0.998190634794,0.0523339815466,1.0,0.0,0.0,0.0,1.0,0.0,0.0,0.0,1.0,-0.134721487761,0.071670986712,-0.0455621629953,1.21846967915e-07,0.0,0.0,0.0,1.21846967915e-07,0.0,0.0,0.0,1.21846967915e-07,0.65704555,0.4314926,8.28661925,9e-08,0.0,0.0,0.0,9e-08,0.0,0.0,0.0,9e-08
1532986794091527443,686,1532986794091273331,base_link,0.00229597260384,-0.00954899853058,-0.998785300784,0.0482852780254,1.0,0.0,0.0,0.0,1.0,0.0,0.0,0.0,1.0,-0.0558887422085,-0.00552097614855,0.00730558577925,1.21846967915e-07,0.0,0.0,0.0,1.21846967915e-07,0.0,0.0,0.0,1.21846967915e-07,1.0591182,0.0196133,9.3163175,9e-08,0.0,0.0,0.0,9e-08,0.0,0.0,0.0,9e-08
1532986794482605881,687,1532986794482027227,base_link,0.00115067122972,-0.0325089681383,-0.997908722909,0.0558571722265,1.0,0.0,0.0,0.0,1.0,0.0,0.0,0.0,1.0,0.0739116966724,0.00249698525295,0.0261073317379,1.21846967915e-07,0.0,0.0,0.0,1.21846967915e-07,0.0,0.0,0.0,1.21846967915e-07,0.6668522,0.46091255,8.44352565,9e-08,0.0,0.0,0.0,9e-08,0.0,0.0,0.0,9e-08
1532986794842452126,688,1532986794841902944,base_link,-0.000422359814349,-0.0220412245744,-0.998237307008,0.0551024947556,1.0,0.0,0.0,0.0,1.0,0.0,0.0,0.0,1.0,-0.0488638430834,0.000608908943832,-0.0214619096369,1.21846967915e-07,0.0,0.0,0.0,1.21846967915e-07,0.0,0.0,0.0,1.21846967915e-07,0.91201845,0.5491724,9.62032365,9e-08,0.0,0.0,0.0,9e-08,0.0,0.0,0.0,9e-08
1532986795351356482,689,1532986795350768804,base_link,-0.00817864385675,-0.00705839678496,-0.998581168564,0.0521434426182,1.0,0.0,0.0,0.0,1.0,0.0,0.0,0.0,1.0,-0.0787995681167,-0.063987955451,-0.000215769512579,1.21846967915e-07,0.0,0.0,0.0,1.21846967915e-07,0.0,0.0,0.0,1.21846967915e-07,0.99047165,0.53936575,10.4735022,9e-08,0.0,0.0,0.0,9e-08,0.0,0.0,0.0,9e-08
1532986795785646439,690,1532986795785336872,base_link,-0.021809243971,-0.00962290313257,-0.998012956764,0.0583257639883,1.0,0.0,0.0,0.0,1.0,0.0,0.0,0.0,1.0,0.137833118439,-0.0445585660636,-0.00184188503772,1.21846967915e-07,0.0,0.0,0.0,1.21846967915e-07,0.0,0.0,0.0,1.21846967915e-07,1.42196425,0.7060788,12.50347875,9e-08,0.0,0.0,0.0,9e-08,0.0,0.0,0.0,9e-08
1532986796244825473,691,1532986796244341890,base_link,-0.0290158277719,-0.0347693658937,-0.997824573477,0.0479092214469,1.0,0.0,0.0,0.0,1.0,0.0,0.0,0.0,1.0,-0.0301383640617,0.0241993553936,-0.0242868736386,1.21846967915e-07,0.0,0.0,0.0,1.21846967915e-07,0.0,0.0,0.0,1.21846967915e-07,0.9610517,0.2941995,11.8072066,9e-08,0.0,0.0,0.0,9e-08,0.0,0.0,0.0,9e-08
1532986796687160942,692,1532986796672316314,base_link,-0.0306907632242,-0.0226414102981,-0.998342693496,0.0430965188368,1.0,0.0,0.0,0.0,1.0,0.0,0.0,0.0,1.0,-0.023819539696,0.00127170979977,-0.0678629651666,1.21846967915e-07,0.0,0.0,0.0,1.21846967915e-07,0.0,0.0,0.0,1.21846967915e-07,0.83356525,0.44129925,8.56120545,9e-08,0.0,0.0,0.0,9e-08,0.0,0.0,0.0,9e-08
1532986797004227859,693,1532986797003873780,base_link,-0.0302940029124,-0.0230309202849,-0.998594981447,0.0368769999873,1.0,0.0,0.0,0.0,1.0,0.0,0.0,0.0,1.0,-0.0940842032433,0.000791356898844,0.000316945835948,1.21846967915e-07,0.0,0.0,0.0,1.21846967915e-07,0.0,0.0,0.0,1.21846967915e-07,1.04931155,0.08825985,10.4538889,9e-08,0.0,0.0,0.0,9e-08,0.0,0.0,0.0,9e-08
1532986797422344617,694,1532986797422030314,base_link,-0.0288571502954,-0.0380519081773,-0.997597128164,0.0501924998379,1.0,0.0,0.0,0.0,1.0,0.0,0.0,0.0,1.0,0.124075129628,0.0370179377496,0.0509556718171,1.21846967915e-07,0.0,0.0,0.0,1.21846967915e-07,0.0,0.0,0.0,1.21846967915e-07,0.51975245,0.73549875,9.4732239,9e-08,0.0,0.0,0.0,9e-08,0.0,0.0,0.0,9e-08
1532986797772604170,695,1532986797772324075,base_link,-0.0226988300423,-0.036191843573,-0.998074016477,0.0449796754913,1.0,0.0,0.0,0.0,1.0,0.0,0.0,0.0,1.0,0.0285957604647,0.0685666501522,-0.0675253495574,1.21846967915e-07,0.0,0.0,0.0,1.21846967915e-07,0.0,0.0,0.0,1.21846967915e-07,0.65704555,0.32361945,9.63993695,9e-08,0.0,0.0,0.0,9e-08,0.0,0.0,0.0,9e-08
1532986798189535875,696,1532986798189294500,base_link,-0.0125443500111,-0.0683385832763,-0.996967101335,0.0350581827076,1.0,0.0,0.0,0.0,1.0,0.0,0.0,0.0,1.0,0.0107912821695,0.0406484529376,0.00195961096324,1.21846967915e-07,0.0,0.0,0.0,1.21846967915e-07,0.0,0.0,0.0,1.21846967915e-07,0.5099458,0.392266,8.34545915,9e-08,0.0,0.0,0.0,9e-08,0.0,0.0,0.0,9e-08
1532986798565530392,697,1532986798565209945,base_link,-0.00492109578521,-0.0420995854377,-0.998586323488,0.0320743240657,1.0,0.0,0.0,0.0,1.0,0.0,0.0,0.0,1.0,0.0214934423566,0.03013689816,-0.050488922745,1.21846967915e-07,0.0,0.0,0.0,1.21846967915e-07,0.0,0.0,0.0,1.21846967915e-07,1.08853815,0.24516625,9.56148375,9e-08,0.0,0.0,0.0,9e-08,0.0,0.0,0.0,9e-08
1532986799006050762,698,1532986799005759850,base_link,-0.00509054814164,-0.0329140741493,-0.998915699175,0.0325296170281,1.0,0.0,0.0,0.0,1.0,0.0,0.0,0.0,1.0,-0.0887525379658,-0.026161622256,0.0247761569917,1.21846967915e-07,0.0,0.0,0.0,1.21846967915e-07,0.0,0.0,0.0,1.21846967915e-07,0.8825985,0.2353596,10.34601575,9e-08,0.0,0.0,0.0,9e-08,0.0,0.0,0.0,9e-08
1532986799560246181,699,1532986799559365576,base_link,-0.00698499812988,0.00370773450906,-0.999752348617,0.0208015369773,1.0,0.0,0.0,0.0,1.0,0.0,0.0,0.0,1.0,-0.0431515052915,0.00302076339722,-0.125758886337,1.21846967915e-07,0.0,0.0,0.0,1.21846967915e-07,0.0,0.0,0.0,1.21846967915e-07,0.46091255,0.18632635,9.5124505,9e-08,0.0,0.0,0.0,9e-08,0.0,0.0,0.0,9e-08
1532986799794175621,700,1532986799793421352,base_link,-0.00729408032183,-0.0104519139994,-0.999873857556,0.00947749240246,1.0,0.0,0.0,0.0,1.0,0.0,0.0,0.0,1.0,0.200470343232,-0.0297564063221,-0.0801255702972,1.21846967915e-07,0.0,0.0,0.0,1.21846967915e-07,0.0,0.0,0.0,1.21846967915e-07,0.32361945,-0.0196133,8.8455983,9e-08,0.0,0.0,0.0,9e-08,0.0,0.0,0.0,9e-08
1532986800185988714,701,1532986800185588011,base_link,-0.0119769137185,-0.0266195438389,-0.999502957656,0.011907605142,1.0,0.0,0.0,0.0,1.0,0.0,0.0,0.0,1.0,0.0971023887396,-0.0103428922594,0.0383014678955,1.21846967915e-07,0.0,0.0,0.0,1.21846967915e-07,0.0,0.0,0.0,1.21846967915e-07,0.2353596,0.0392266,8.40429905,9e-08,0.0,0.0,0.0,9e-08,0.0,0.0,0.0,9e-08
1532986800495744294,702,1532986800483124140,base_link,-0.0181933211467,-0.0500485961449,-0.998443444444,0.0165779774451,1.0,0.0,0.0,0.0,1.0,0.0,0.0,0.0,1.0,0.148733615875,-0.0622609630227,0.0366783887148,1.21846967915e-07,0.0,0.0,0.0,1.21846967915e-07,0.0,0.0,0.0,1.21846967915e-07,0.71588545,0.16671305,11.32668075,9e-08,0.0,0.0,0.0,9e-08,0.0,0.0,0.0,9e-08
1532986800758261263,703,1532986800757959376,base_link,-0.0278544380475,-0.0492727676209,-0.99817291797,0.0211459330133,1.0,0.0,0.0,0.0,1.0,0.0,0.0,0.0,1.0,-0.144695609808,-0.0711450576782,0.0463412329555,1.21846967915e-07,0.0,0.0,0.0,1.21846967915e-07,0.0,0.0,0.0,1.21846967915e-07,0.8237586,0.26477955,11.30706745,9e-08,0.0,0.0,0.0,9e-08,0.0,0.0,0.0,9e-08
1532986801271537446,704,1532986801267718770,base_link,-0.026306417497,-0.00712912319901,-0.999428993044,0.0199708753845,1.0,0.0,0.0,0.0,1.0,0.0,0.0,0.0,1.0,-0.154678478837,0.0288928262889,-0.0739655196667,1.21846967915e-07,0.0,0.0,0.0,1.21846967915e-07,0.0,0.0,0.0,1.21846967915e-07,0.04903325,0.4314926,9.11037785,9e-08,0.0,0.0,0.0,9e-08,0.0,0.0,0.0,9e-08
1532986801610207115,705,1532986801609954348,base_link,-0.0187666375057,0.000333151515098,-0.999784673777,0.0088492037823,1.0,0.0,0.0,0.0,1.0,0.0,0.0,0.0,1.0,0.0386164188385,0.0657638683915,-0.0552842505276,1.21846967915e-07,0.0,0.0,0.0,1.21846967915e-07,0.0,0.0,0.0,1.21846967915e-07,0.0784532,0.2745862,8.07087295,9e-08,0.0,0.0,0.0,9e-08,0.0,0.0,0.0,9e-08
1532986802121175081,706,1532986802119106287,base_link,-0.015973277115,-0.0173993805113,-0.999639927303,0.0127330953843,1.0,0.0,0.0,0.0,1.0,0.0,0.0,0.0,1.0,0.0779655426741,0.0318297147751,0.0888739973307,1.21846967915e-07,0.0,0.0,0.0,1.21846967915e-07,0.0,0.0,0.0,1.21846967915e-07,0.6668522,1.20937503106e-15,9.87529655,9e-08,0.0,0.0,0.0,9e-08,0.0,0.0,0.0,9e-08
1532986802512499215,707,1532986802512000465,base_link,-0.00917981759024,-0.0228370141793,-0.999407756722,0.0240486493641,1.0,0.0,0.0,0.0,1.0,0.0,0.0,0.0,1.0,-0.053647454828,-0.0126654990017,0.038504447788,1.21846967915e-07,0.0,0.0,0.0,1.21846967915e-07,0.0,0.0,0.0,1.21846967915e-07,0.26477955,0.48052585,9.26728425,9e-08,0.0,0.0,0.0,9e-08,0.0,0.0,0.0,9e-08
1532986802865664552,708,1532986802863606062,base_link,-0.0045262207617,0.00776034519053,-0.999830911601,0.0160448924687,1.0,0.0,0.0,0.0,1.0,0.0,0.0,0.0,1.0,-0.0433685444295,-0.00350021570921,-0.160097047687,1.21846967915e-07,0.0,0.0,0.0,1.21846967915e-07,0.0,0.0,0.0,1.21846967915e-07,0.7649187,0.0980665,11.77778665,9e-08,0.0,0.0,0.0,9e-08,0.0,0.0,0.0,9e-08
1532986803308670643,709,1532986803308193172,base_link,-0.00292091910073,-0.0259089698721,-0.999579560065,0.0126845028565,1.0,0.0,0.0,0.0,1.0,0.0,0.0,0.0,1.0,0.141489058733,-0.0307803247124,0.159616589546,1.21846967915e-07,0.0,0.0,0.0,1.21846967915e-07,0.0,0.0,0.0,1.21846967915e-07,0.14709975,-0.08825985,7.18827445,9e-08,0.0,0.0,0.0,9e-08,0.0,0.0,0.0,9e-08
1532986803650304366,710,1532986803650050223,base_link,-0.0110972170671,-0.0101110016588,-0.999372842058,0.0320708898626,1.0,0.0,0.0,0.0,1.0,0.0,0.0,0.0,1.0,-0.206204771996,0.00197745207697,0.0119118951261,1.21846967915e-07,0.0,0.0,0.0,1.21846967915e-07,0.0,0.0,0.0,1.21846967915e-07,0.34323275,1.0983448,9.05153795,9e-08,0.0,0.0,0.0,9e-08,0.0,0.0,0.0,9e-08
1532986803972934755,711,1532986803971108745,base_link,-0.00920045772363,0.0128411729343,-0.999837436532,0.00869231637837,1.0,0.0,0.0,0.0,1.0,0.0,0.0,0.0,1.0,0.0879094675183,-0.0175772793591,-0.20142544806,1.21846967915e-07,0.0,0.0,0.0,1.21846967915e-07,0.0,0.0,0.0,1.21846967915e-07,0.16671305,-0.06864655,8.7279185,9e-08,0.0,0.0,0.0,9e-08,0.0,0.0,0.0,9e-08
1532986804456833874,712,1532986804456439348,base_link,-0.0326129041436,-0.0478344611969,-0.998247986367,0.0122155850897,1.0,0.0,0.0,0.0,1.0,0.0,0.0,0.0,1.0,0.111403413117,-0.094457603991,0.106227561831,1.21846967915e-07,0.0,0.0,0.0,1.21846967915e-07,0.0,0.0,0.0,1.21846967915e-07,0.83356525,-0.1372931,12.0229529,9e-08,0.0,0.0,0.0,9e-08,0.0,0.0,0.0,9e-08
1532986804759984866,713,1532986804759740771,base_link,-0.0503363619798,-0.0474822385902,-0.997023056011,0.0340104904798,1.0,0.0,0.0,0.0,1.0,0.0,0.0,0.0,1.0,-0.229410424829,-0.0545912906528,0.0890935063362,1.21846967915e-07,0.0,0.0,0.0,1.21846967915e-07,0.0,0.0,0.0,1.21846967915e-07,0.6276256,0.75511205,13.6508568,9e-08,0.0,0.0,0.0,9e-08,0.0,0.0,0.0,9e-08
1532986805107570060,714,1532986805107187885,base_link,-0.0503924955319,-0.0267944339738,-0.997984299297,0.0277487487743,1.0,0.0,0.0,0.0,1.0,0.0,0.0,0.0,1.0,-0.0327319353819,0.0199949815869,-0.0790502503514,1.21846967915e-07,0.0,0.0,0.0,1.21846967915e-07,0.0,0.0,0.0,1.21846967915e-07,-0.0588399,0.5099458,9.1397978,9e-08,0.0,0.0,0.0,9e-08,0.0,0.0,0.0,9e-08
1532986805623097948,715,1532986805622593310,base_link,-0.047263559309,-0.0187872836247,-0.998570347111,0.0164455406364,1.0,0.0,0.0,0.0,1.0,0.0,0.0,0.0,1.0,-0.0686794891953,0.00388761330396,0.0361242070794,1.21846967915e-07,0.0,0.0,0.0,1.21846967915e-07,0.0,0.0,0.0,1.21846967915e-07,0.00980665,0.06864655,9.44380395,9e-08,0.0,0.0,0.0,9e-08,0.0,0.0,0.0,9e-08
1532986806079677598,716,1532986806079395583,base_link,-0.0444854792056,-0.0100528355051,-0.998676913362,0.0237572169094,1.0,0.0,0.0,0.0,1.0,0.0,0.0,0.0,1.0,0.0793780013919,0.0479581207037,-0.0183967985213,1.21846967915e-07,0.0,0.0,0.0,1.21846967915e-07,0.0,0.0,0.0,1.21846967915e-07,0.55897905,0.26477955,9.28689755,9e-08,0.0,0.0,0.0,9e-08,0.0,0.0,0.0,9e-08
1532986806614348724,717,1532986806613951413,base_link,-0.0303622575759,-0.0245532939014,-0.999012016964,0.0212193080895,1.0,0.0,0.0,0.0,1.0,0.0,0.0,0.0,1.0,0.152212202549,0.0349969938397,0.0279960408807,1.21846967915e-07,0.0,0.0,0.0,1.21846967915e-07,0.0,0.0,0.0,1.21846967915e-07,0.5687857,1.08807723748e-15,8.8848249,9e-08,0.0,0.0,0.0,9e-08,0.0,0.0,0.0,9e-08
1532986807046684383,718,1532986807046463392,base_link,-0.0212635189219,-0.049166632362,-0.997982071446,0.0340923759317,1.0,0.0,0.0,0.0,1.0,0.0,0.0,0.0,1.0,0.112094141543,0.0555086769164,0.0393789708614,1.21846967915e-07,0.0,0.0,0.0,1.21846967915e-07,0.0,0.0,0.0,1.21846967915e-07,0.93163175,0.30400615,8.8848249,9e-08,0.0,0.0,0.0,9e-08,0.0,0.0,0.0,9e-08
1532986807406639845,719,1532986807405827943,base_link,-0.00913924060668,-0.0734054505861,-0.996800975421,0.0302643272829,1.0,0.0,0.0,0.0,1.0,0.0,0.0,0.0,1.0,0.168118953705,0.0427639558911,-0.0800063386559,1.21846967915e-07,0.0,0.0,0.0,1.21846967915e-07,0.0,0.0,0.0,1.21846967915e-07,0.7060788,0.588399,8.14932615,9e-08,0.0,0.0,0.0,9e-08,0.0,0.0,0.0,9e-08
1532986807856760028,720,1532986807856002142,base_link,-0.00125504310034,-0.129549095443,-0.991533196693,0.00879639653707,1.0,0.0,0.0,0.0,1.0,0.0,0.0,0.0,1.0,0.315899193287,-0.0557562112808,-0.117951363325,1.21846967915e-07,0.0,0.0,0.0,1.21846967915e-07,0.0,0.0,0.0,1.21846967915e-07,1.2160246,0.4314926,9.5320638,9e-08,0.0,0.0,0.0,9e-08,0.0,0.0,0.0,9e-08
1532986808247928612,721,1532986808247737060,base_link,-0.0110028893247,-0.210858902977,-0.977227774033,-0.0210555721963,1.0,0.0,0.0,0.0,1.0,0.0,0.0,0.0,1.0,0.267640650272,-0.112660482526,-0.187649324536,1.21846967915e-07,0.0,0.0,0.0,1.21846967915e-07,0.0,0.0,0.0,1.21846967915e-07,0.6864655,0.71588545,10.11065615,9e-08,0.0,0.0,0.0,9e-08,0.0,0.0,0.0,9e-08
1532986808704574311,722,1532986808704226504,base_link,-0.0365936933851,-0.254183773202,-0.963533328919,-0.0751999674636,1.0,0.0,0.0,0.0,1.0,0.0,0.0,0.0,1.0,-0.0386033207178,-0.18157094717,-0.210762396455,1.21846967915e-07,0.0,0.0,0.0,1.21846967915e-07,0.0,0.0,0.0,1.21846967915e-07,0.784532,0.8237586,11.76798,9e-08,0.0,0.0,0.0,9e-08,0.0,0.0,0.0,9e-08
1532986809113962968,723,1532986809112828700,base_link,-0.0587091486797,-0.266076553322,-0.953404303506,-0.129525046576,1.0,0.0,0.0,0.0,1.0,0.0,0.0,0.0,1.0,0.0834069624543,-0.173411518335,-0.290301382542,1.21846967915e-07,0.0,0.0,0.0,1.21846967915e-07,0.0,0.0,0.0,1.21846967915e-07,0.4118793,0.8041453,11.8072066,9e-08,0.0,0.0,0.0,9e-08,0.0,0.0,0.0,9e-08
1532986809543590029,724,1532986809543182862,base_link,-0.0742388445538,-0.304483716258,-0.924481051938,-0.217055396385,1.0,0.0,0.0,0.0,1.0,0.0,0.0,0.0,1.0,0.260525643826,-0.238664954901,-0.452609419823,1.21846967915e-07,0.0,0.0,0.0,1.21846967915e-07,0.0,0.0,0.0,1.21846967915e-07,0.2353596,0.4118793,9.93413645,9e-08,0.0,0.0,0.0,9e-08,0.0,0.0,0.0,9e-08
1532986809966499285,725,1532986809966263862,base_link,-0.1274336757,-0.34088489106,-0.882892104482,-0.296748515055,1.0,0.0,0.0,0.0,1.0,0.0,0.0,0.0,1.0,0.0517732053995,-0.393487304449,-0.279468506575,1.21846967915e-07,0.0,0.0,0.0,1.21846967915e-07,0.0,0.0,0.0,1.21846967915e-07,0.9414384,0.53936575,13.52337035,9e-08,0.0,0.0,0.0,9e-08,0.0,0.0,0.0,9e-08
1532986810277722286,726,1532986810277094287,base_link,-0.167104955738,-0.315815011288,-0.866660816747,-0.348189375382,1.0,0.0,0.0,0.0,1.0,0.0,0.0,0.0,1.0,0.0339224711061,-0.410385102034,-0.183940589428,1.21846967915e-07,0.0,0.0,0.0,1.21846967915e-07,0.0,0.0,0.0,1.21846967915e-07,0.8433719,0.7060788,13.97447625,9e-08,0.0,0.0,0.0,9e-08,0.0,0.0,0.0,9e-08
1532986810602484861,727,1532986810602201438,base_link,-0.20977456758,-0.297671820157,-0.841886748337,-0.398262251859,1.0,0.0,0.0,0.0,1.0,0.0,0.0,0.0,1.0,-0.128092572093,-0.318698585033,-0.269814491272,1.21846967915e-07,0.0,0.0,0.0,1.21846967915e-07,0.0,0.0,0.0,1.21846967915e-07,0.99047165,0.9610517,13.44491715,9e-08,0.0,0.0,0.0,9e-08,0.0,0.0,0.0,9e-08
1532986810975913691,728,1532986810975260093,base_link,-0.221668921505,-0.285241365487,-0.805168423832,-0.470323358889,1.0,0.0,0.0,0.0,1.0,0.0,0.0,0.0,1.0,0.0078385239467,-0.242099434137,-0.432323485613,1.21846967915e-07,0.0,0.0,0.0,1.21846967915e-07,0.0,0.0,0.0,1.21846967915e-07,0.65704555,0.75511205,12.7094184,9e-08,0.0,0.0,0.0,9e-08,0.0,0.0,0.0,9e-08
1532986811198657469,729,1532986811198406462,base_link,-0.22798148253,-0.274786586964,-0.777111608489,-0.518280158988,1.0,0.0,0.0,0.0,1.0,0.0,0.0,0.0,1.0,-0.128245919943,-0.271763920784,-0.415017068386,1.21846967915e-07,0.0,0.0,0.0,1.21846967915e-07,0.0,0.0,0.0,1.21846967915e-07,0.63743225,0.95124505,10.9049948,9e-08,0.0,0.0,0.0,9e-08,0.0,0.0,0.0,9e-08
1532986811698520414,730,1532986811698288991,base_link,-0.246686585442,-0.220125087782,-0.720120519645,-0.610014025641,1.0,0.0,0.0,0.0,1.0,0.0,0.0,0.0,1.0,-0.222489491105,-0.380289494991,-0.262591838837,1.21846967915e-07,0.0,0.0,0.0,1.21846967915e-07,0.0,0.0,0.0,1.21846967915e-07,1.3533177,0.81395195,13.34685065,9e-08,0.0,0.0,0.0,9e-08,0.0,0.0,0.0,9e-08
1532986812049296384,731,1532986812048954721,base_link,-0.244104738298,-0.161648145162,-0.692346297013,-0.659499324426,1.0,0.0,0.0,0.0,1.0,0.0,0.0,0.0,1.0,-0.377469480038,-0.231603845954,-0.21913357079,1.21846967915e-07,0.0,0.0,0.0,1.21846967915e-07,0.0,0.0,0.0,1.21846967915e-07,1.1375714,0.980665,12.1406327,9e-08,0.0,0.0,0.0,9e-08,0.0,0.0,0.0,9e-08
1532986812505038822,732,1532986812504758086,base_link,-0.246459115022,-0.110560742587,-0.653522163104,-0.707066481424,1.0,0.0,0.0,0.0,1.0,0.0,0.0,0.0,1.0,-0.401764631271,-0.14782294631,-0.13667562604,1.21846967915e-07,0.0,0.0,0.0,1.21846967915e-07,0.0,0.0,0.0,1.21846967915e-07,1.20621795,0.61781895,11.58165365,9e-08,0.0,0.0,0.0,9e-08,0.0,0.0,0.0,9e-08
1532986812855259721,733,1532986812855037065,base_link,-0.160194970248,-0.0295626204151,-0.636494967125,-0.753881807584,1.0,0.0,0.0,0.0,1.0,0.0,0.0,0.0,1.0,-0.665413677692,0.0316525511444,-0.252888560295,1.21846967915e-07,0.0,0.0,0.0,1.21846967915e-07,0.0,0.0,0.0,1.21846967915e-07,1.0198916,0.83356525,10.787315,9e-08,0.0,0.0,0.0,9e-08,0.0,0.0,0.0,9e-08
1532986813330437204,734,1532986813330084661,base_link,-0.0977535659938,0.00112432864911,-0.596359770631,-0.796742116493,1.0,0.0,0.0,0.0,1.0,0.0,0.0,0.0,1.0,-0.128694459796,0.024593340233,-0.171166092157,1.21846967915e-07,0.0,0.0,0.0,1.21846967915e-07,0.0,0.0,0.0,1.21846967915e-07,0.53936575,0.02941995,8.83579165,9e-08,0.0,0.0,0.0,9e-08,0.0,0.0,0.0,9e-08
1532986813656308543,735,1532986813652917546,base_link,-0.0765294777095,0.0129991776533,-0.58693263022,-0.805905917589,1.0,0.0,0.0,0.0,1.0,0.0,0.0,0.0,1.0,-0.241893053055,0.0231905244291,-0.0143184093758,1.21846967915e-07,0.0,0.0,0.0,1.21846967915e-07,0.0,0.0,0.0,1.21846967915e-07,0.3334261,0.46091255,8.09048625,9e-08,0.0,0.0,0.0,9e-08,0.0,0.0,0.0,9e-08
1532986814040351260,736,1532986814039698974,base_link,-0.0106760256052,0.0437543432792,-0.585194068301,-0.809641576469,1.0,0.0,0.0,0.0,1.0,0.0,0.0,0.0,1.0,-0.284328281879,0.0549972206354,0.00149700511247,1.21846967915e-07,0.0,0.0,0.0,1.21846967915e-07,0.0,0.0,0.0,1.21846967915e-07,0.0588399,0.02941995,8.42391235,9e-08,0.0,0.0,0.0,9e-08,0.0,0.0,0.0,9e-08
1532986814472902086,737,1532986814471994953,base_link,0.00763320869703,0.0483318179685,-0.593170998814,-0.803588162968,1.0,0.0,0.0,0.0,1.0,0.0,0.0,0.0,1.0,-0.101801514626,-0.00339312851429,0.084725536406,1.21846967915e-07,0.0,0.0,0.0,1.21846967915e-07,0.0,0.0,0.0,1.21846967915e-07,0.89240515,-0.0196133,9.1397978,9e-08,0.0,0.0,0.0,9e-08,0.0,0.0,0.0,9e-08
1532986814876767079,738,1532986814875696842,base_link,0.0429591702658,0.0707097189167,-0.623346035914,-0.777556663435,1.0,0.0,0.0,0.0,1.0,0.0,0.0,0.0,1.0,-0.277765125036,0.000262791290879,0.227145090699,1.21846967915e-07,0.0,0.0,0.0,1.21846967915e-07,0.0,0.0,0.0,1.21846967915e-07,0.6864655,0.0196133,9.99297635,9e-08,0.0,0.0,0.0,9e-08,0.0,0.0,0.0,9e-08
1532986815357672736,739,1532986815357079042,base_link,0.0722363516596,0.0896315947264,-0.653714585735,-0.747934039286,1.0,0.0,0.0,0.0,1.0,0.0,0.0,0.0,1.0,0.0245188120753,0.00646372837946,0.0933461636305,1.21846967915e-07,0.0,0.0,0.0,1.21846967915e-07,0.0,0.0,0.0,1.21846967915e-07,0.71588545,0.20593965,8.9436648,9e-08,0.0,0.0,0.0,9e-08,0.0,0.0,0.0,9e-08
1532986815733289014,740,1532986815733007447,base_link,0.0923034862599,0.100006044335,-0.666466084994,-0.733008741472,1.0,0.0,0.0,0.0,1.0,0.0,0.0,0.0,1.0,-0.197508648038,0.00499055813998,0.142483353615,1.21846967915e-07,0.0,0.0,0.0,1.21846967915e-07,0.0,0.0,0.0,1.21846967915e-07,0.588399,0.24516625,9.0417313,9e-08,0.0,0.0,0.0,9e-08,0.0,0.0,0.0,9e-08
1532986816188216221,741,1532986816187684351,base_link,0.102517344306,0.100528989745,-0.699973875872,-0.699586084363,1.0,0.0,0.0,0.0,1.0,0.0,0.0,0.0,1.0,0.254523783922,-0.0233824364841,0.236383840442,1.21846967915e-07,0.0,0.0,0.0,1.21846967915e-07,0.0,0.0,0.0,1.21846967915e-07,0.81395195,-0.1372931,8.3944924,9e-08,0.0,0.0,0.0,9e-08,0.0,0.0,0.0,9e-08
1532986816574103188,742,1532986816573641398,base_link,0.0515200859914,0.0488786621479,-0.751259259609,-0.656175343927,1.0,0.0,0.0,0.0,1.0,0.0,0.0,0.0,1.0,0.278743207455,-0.0769246593118,0.363149672747,1.21846967915e-07,0.0,0.0,0.0,1.21846967915e-07,0.0,0.0,0.0,1.21846967915e-07,1.4709975,0.12748645,11.15016105,9e-08,0.0,0.0,0.0,9e-08,0.0,0.0,0.0,9e-08
1532986817043922287,743,1532986817043649584,base_link,0.0353544411561,0.0341882417933,-0.79408128634,-0.605818568796,1.0,0.0,0.0,0.0,1.0,0.0,0.0,0.0,1.0,0.112705655396,0.0204443801194,0.0803835839033,1.21846967915e-07,0.0,0.0,0.0,1.21846967915e-07,0.0,0.0,0.0,1.21846967915e-07,1.0591182,0.6276256,9.36535075,9e-08,0.0,0.0,0.0,9e-08,0.0,0.0,0.0,9e-08
1532986817451231302,744,1532986817449713578,base_link,0.0134981072058,0.0110190235852,-0.796771138118,-0.604029912905,1.0,0.0,0.0,0.0,1.0,0.0,0.0,0.0,1.0,0.201393052936,-0.011182423681,-0.0479110181332,1.21846967915e-07,0.0,0.0,0.0,1.21846967915e-07,0.0,0.0,0.0,1.21846967915e-07,1.1179581,0.5491724,10.1204628,9e-08,0.0,0.0,0.0,9e-08,0.0,0.0,0.0,9e-08
1532986817947917263,745,1532986817947145650,base_link,-0.0361996046835,-0.0315911832864,-0.791248209352,-0.609604672683,1.0,0.0,0.0,0.0,1.0,0.0,0.0,0.0,1.0,0.21444119513,-0.0943811684847,0.00933444872499,1.21846967915e-07,0.0,0.0,0.0,1.21846967915e-07,0.0,0.0,0.0,1.21846967915e-07,1.42196425,0.2353596,11.1599677,9e-08,0.0,0.0,0.0,9e-08,0.0,0.0,0.0,9e-08
1532986818381094712,746,1532986818380830329,base_link,-0.0746992772693,-0.0452459398362,-0.799839253124,-0.593826567329,1.0,0.0,0.0,0.0,1.0,0.0,0.0,0.0,1.0,-0.0775449573994,-0.0254752710462,0.0415174812078,1.21846967915e-07,0.0,0.0,0.0,1.21846967915e-07,0.0,0.0,0.0,1.21846967915e-07,1.01008495,0.7060788,9.218251,9e-08,0.0,0.0,0.0,9e-08,0.0,0.0,0.0,9e-08
1532986818894832783,747,1532986818894552112,base_link,-0.0939350778693,-0.0532987069792,-0.780534576552,-0.615711964954,1.0,0.0,0.0,0.0,1.0,0.0,0.0,0.0,1.0,0.0835997834802,-0.0343659445643,-0.195883646607,1.21846967915e-07,0.0,0.0,0.0,1.21846967915e-07,0.0,0.0,0.0,1.21846967915e-07,1.01008495,0.7453054,10.6107953,9e-08,0.0,0.0,0.0,9e-08,0.0,0.0,0.0,9e-08
1532986819281797603,748,1532986819280720934,base_link,-0.123061484418,-0.0749810476033,-0.754476655502,-0.640311400692,1.0,0.0,0.0,0.0,1.0,0.0,0.0,0.0,1.0,0.041809014976,-0.0727890133858,-0.174926519394,1.21846967915e-07,0.0,0.0,0.0,1.21846967915e-07,0.0,0.0,0.0,1.21846967915e-07,0.87279185,0.6668522,10.6107953,9e-08,0.0,0.0,0.0,9e-08,0.0,0.0,0.0,9e-08
1532986819770821604,749,1532986819770562436,base_link,-0.132104427357,-0.0694750963492,-0.722667775641,-0.674887336754,1.0,0.0,0.0,0.0,1.0,0.0,0.0,0.0,1.0,-0.182334750891,-0.0888498947024,-0.148855015635,1.21846967915e-07,0.0,0.0,0.0,1.21846967915e-07,0.0,0.0,0.0,1.21846967915e-07,1.08853815,0.392266,10.7677017,9e-08,0.0,0.0,0.0,9e-08,0.0,0.0,0.0,9e-08
1532986820205854663,750,1532986820205566760,base_link,-0.127695966234,-0.0471835205239,-0.708880181405,-0.692066719334,1.0,0.0,0.0,0.0,1.0,0.0,0.0,0.0,1.0,-0.181646227837,-0.0752079486847,-0.055091843009,1.21846967915e-07,0.0,0.0,0.0,1.21846967915e-07,0.0,0.0,0.0,1.21846967915e-07,1.02969825,0.61781895,10.42446895,9e-08,0.0,0.0,0.0,9e-08,0.0,0.0,0.0,9e-08
1532986820613209757,751,1532986820612949406,base_link,-0.115980249119,-0.0324303273158,-0.698859156582,-0.705048037332,1.0,0.0,0.0,0.0,1.0,0.0,0.0,0.0,1.0,-0.0536942854524,0.0494102053344,-0.0894837081432,1.21846967915e-07,0.0,0.0,0.0,1.21846967915e-07,0.0,0.0,0.0,1.21846967915e-07,1.36312435,0.2745862,8.73772515,9e-08,0.0,0.0,0.0,9e-08,0.0,0.0,0.0,9e-08
1532986821019703255,752,1532986821019113112,base_link,-0.098901933822,-0.0261486821942,-0.687125810627,-0.719300197605,1.0,0.0,0.0,0.0,1.0,0.0,0.0,0.0,1.0,-0.0563316233456,0.028412502259,-0.0699446648359,1.21846967915e-07,0.0,0.0,0.0,1.21846967915e-07,0.0,0.0,0.0,1.21846967915e-07,1.4906108,0.40207265,8.7083052,9e-08,0.0,0.0,0.0,9e-08,0.0,0.0,0.0,9e-08
1532986821391943031,753,1532986821391599704,base_link,-0.0830562433648,-0.0120484935462,-0.681349767314,-0.727130654575,1.0,0.0,0.0,0.0,1.0,0.0,0.0,0.0,1.0,0.108849801123,0.0282151885331,-0.0357432067394,1.21846967915e-07,0.0,0.0,0.0,1.21846967915e-07,0.0,0.0,0.0,1.21846967915e-07,1.8632635,0.4707192,10.46369555,9e-08,0.0,0.0,0.0,9e-08,0.0,0.0,0.0,9e-08
1532986821821706218,754,1532986821821147980,base_link,-0.0938888138594,-0.0336393705135,-0.662173061468,-0.742684401378,1.0,0.0,0.0,0.0,1.0,0.0,0.0,0.0,1.0,0.498061090708,0.0428989864886,-0.239002257586,1.21846967915e-07,0.0,0.0,0.0,1.21846967915e-07,0.0,0.0,0.0,1.21846967915e-07,1.34351105,0.42168595,8.40429905,9e-08,0.0,0.0,0.0,9e-08,0.0,0.0,0.0,9e-08
1532986822229025761,755,1532986822228726562,base_link,-0.174136447417,-0.102861166736,-0.624168226979,-0.754658931232,1.0,0.0,0.0,0.0,1.0,0.0,0.0,0.0,1.0,0.424946993589,-0.0477284342051,-0.218062102795,1.21846967915e-07,0.0,0.0,0.0,1.21846967915e-07,0.0,0.0,0.0,1.21846967915e-07,1.61809725,0.44129925,8.12971285,9e-08,0.0,0.0,0.0,9e-08,0.0,0.0,0.0,9e-08
1532986822663326151,756,1532986822663070760,base_link,-0.243641326837,-0.142029654083,-0.569006460308,-0.772462380538,1.0,0.0,0.0,0.0,1.0,0.0,0.0,0.0,1.0,0.406079590321,-0.166372388601,-0.297132313251,1.21846967915e-07,0.0,0.0,0.0,1.21846967915e-07,0.0,0.0,0.0,1.21846967915e-07,1.55925735,0.75511205,9.38496405,9e-08,0.0,0.0,0.0,9e-08,0.0,0.0,0.0,9e-08
1532986822984718912,757,1532986822983779491,base_link,-0.308947636287,-0.157922194799,-0.507908561904,-0.788442027779,1.0,0.0,0.0,0.0,1.0,0.0,0.0,0.0,1.0,0.205418080091,-0.289644271135,-0.306261599064,1.21846967915e-07,0.0,0.0,0.0,1.21846967915e-07,0.0,0.0,0.0,1.21846967915e-07,1.87307015,1.22583125,10.14988275,9e-08,0.0,0.0,0.0,9e-08,0.0,0.0,0.0,9e-08
1532986823271044355,758,1532986823266560080,base_link,-0.330681577449,-0.142601373575,-0.450260973979,-0.817055443591,1.0,0.0,0.0,0.0,1.0,0.0,0.0,0.0,1.0,0.0901775956154,-0.319734305143,-0.388775497675,1.21846967915e-07,0.0,0.0,0.0,1.21846967915e-07,0.0,0.0,0.0,1.21846967915e-07,2.0005566,1.26505785,12.42502555,9e-08,0.0,0.0,0.0,9e-08,0.0,0.0,0.0,9e-08
1532986823613852700,759,1532986823613479389,base_link,-0.374858731936,-0.120445391953,-0.361961512346,-0.844960177895,1.0,0.0,0.0,0.0,1.0,0.0,0.0,0.0,1.0,0.0185343176126,-0.443552970886,-0.323038220406,1.21846967915e-07,0.0,0.0,0.0,1.21846967915e-07,0.0,0.0,0.0,1.21846967915e-07,1.9417167,0.61781895,13.28801075,9e-08,0.0,0.0,0.0,9e-08,0.0,0.0,0.0,9e-08
1532986824100131973,760,1532986824099729062,base_link,-0.406413965186,-0.0629493504757,-0.241141326081,-0.879042620714,1.0,0.0,0.0,0.0,1.0,0.0,0.0,0.0,1.0,-0.0532891973853,-0.502545893192,-0.409764766693,1.21846967915e-07,0.0,0.0,0.0,1.21846967915e-07,0.0,0.0,0.0,1.21846967915e-07,1.9809433,0.53936575,13.50375705,9e-08,0.0,0.0,0.0,9e-08,0.0,0.0,0.0,9e-08
1532986824409508419,761,1532986824409135780,base_link,-0.410245939428,-0.00437732740579,-0.167418611951,-0.89646534599,1.0,0.0,0.0,0.0,1.0,0.0,0.0,0.0,1.0,-0.180677160621,-0.571324169636,-0.259732693434,1.21846967915e-07,0.0,0.0,0.0,1.21846967915e-07,0.0,0.0,0.0,1.21846967915e-07,2.38301595,1.0395049,15.11204765,9e-08,0.0,0.0,0.0,9e-08,0.0,0.0,0.0,9e-08
1532986824811648137,762,1532986824811403690,base_link,-0.35995145216,0.0704674674871,-0.0670451694689,-0.927886972301,1.0,0.0,0.0,0.0,1.0,0.0,0.0,0.0,1.0,-0.322958767414,-0.382234960794,-0.362942636013,1.21846967915e-07,0.0,0.0,0.0,1.21846967915e-07,0.0,0.0,0.0,1.21846967915e-07,2.2359162,0.89240515,14.7884282,9e-08,0.0,0.0,0.0,9e-08,0.0,0.0,0.0,9e-08
1532986825332583466,763,1532986825331433838,base_link,-0.235221552786,0.115063939245,0.0459525546052,-0.964012175087,1.0,0.0,0.0,0.0,1.0,0.0,0.0,0.0,1.0,-0.736591458321,-0.186915114522,-0.315404802561,1.21846967915e-07,0.0,0.0,0.0,1.21846967915e-07,0.0,0.0,0.0,1.21846967915e-07,1.81423025,1.14737805,13.8862164,9e-08,0.0,0.0,0.0,9e-08,0.0,0.0,0.0,9e-08
1532986825616574772,764,1532986825616116534,base_link,-0.146083026603,0.121587806702,0.097327479939,-0.976935778979,1.0,0.0,0.0,0.0,1.0,0.0,0.0,0.0,1.0,-0.589104950428,-0.113132439554,-0.19769461453,1.21846967915e-07,0.0,0.0,0.0,1.21846967915e-07,0.0,0.0,0.0,1.21846967915e-07,1.06892485,0.24516625,12.64077185,9e-08,0.0,0.0,0.0,9e-08,0.0,0.0,0.0,9e-08
1532986826141034059,765,1532986826134342175,base_link,-0.0206211834188,0.115007655402,0.121929859926,-0.985637415712,1.0,0.0,0.0,0.0,1.0,0.0,0.0,0.0,1.0,-0.333573549986,0.0726610645652,0.031741399318,1.21846967915e-07,0.0,0.0,0.0,1.21846967915e-07,0.0,0.0,0.0,1.21846967915e-07,1.02969825,0.3726527,9.8851032,9e-08,0.0,0.0,0.0,9e-08,0.0,0.0,0.0,9e-08
1532986826494582020,766,1532986826494332324,base_link,0.0304194598518,0.086302028926,0.128671174854,-0.987456502853,1.0,0.0,0.0,0.0,1.0,0.0,0.0,0.0,1.0,-0.270082861185,0.16785889864,-0.0347206033766,1.21846967915e-07,0.0,0.0,0.0,1.21846967915e-07,0.0,0.0,0.0,1.21846967915e-07,1.3533177,0.50013915,7.30595425,9e-08,0.0,0.0,0.0,9e-08,0.0,0.0,0.0,9e-08
1532986826904146292,767,1532986826903672373,base_link,0.0521212056226,0.0477945239876,0.129783700877,-0.989017317537,1.0,0.0,0.0,0.0,1.0,0.0,0.0,0.0,1.0,-0.0263798348606,0.194813430309,0.0826986134052,1.21846967915e-07,0.0,0.0,0.0,1.21846967915e-07,0.0,0.0,0.0,1.21846967915e-07,1.59848395,0.2745862,7.3353742,9e-08,0.0,0.0,0.0,9e-08,0.0,0.0,0.0,9e-08
1532986827293365345,768,1532986827293109058,base_link,0.0561937190484,0.00592493057783,0.111849708959,-0.992117333657,1.0,0.0,0.0,0.0,1.0,0.0,0.0,0.0,1.0,0.00692103616893,0.192920967937,0.102841176093,1.21846967915e-07,0.0,0.0,0.0,1.21846967915e-07,0.0,0.0,0.0,1.21846967915e-07,1.71616375,0.32361945,6.73716855,9e-08,0.0,0.0,0.0,9e-08,0.0,0.0,0.0,9e-08
1532986827835494755,769,1532986827835148388,base_link,0.0362310838681,-0.0199769934989,0.0953840157063,-0.99458037274,1.0,0.0,0.0,0.0,1.0,0.0,0.0,0.0,1.0,-0.0502964816988,0.0720711946487,0.0785045996308,1.21846967915e-07,0.0,0.0,0.0,1.21846967915e-07,0.0,0.0,0.0,1.21846967915e-07,1.89268345,0.00980665,7.7472535,9e-08,0.0,0.0,0.0,9e-08,0.0,0.0,0.0,9e-08
1532986828218198340,770,1532986828215163725,base_link,0.0221469938091,-0.0196183283846,0.0896285273059,-0.995535714553,1.0,0.0,0.0,0.0,1.0,0.0,0.0,0.0,1.0,0.199430003762,-0.04741724208,-0.00622814334929,1.21846967915e-07,0.0,0.0,0.0,1.21846967915e-07,0.0,0.0,0.0,1.21846967915e-07,1.44157755,0.3726527,11.2384209,9e-08,0.0,0.0,0.0,9e-08,0.0,0.0,0.0,9e-08
1532986828574364821,771,1532986828574129238,base_link,0.022976903411,-0.00331346111067,0.0835823585706,-0.996230431286,1.0,0.0,0.0,0.0,1.0,0.0,0.0,0.0,1.0,-0.326595842838,-0.0427454821765,0.0687047168612,1.21846967915e-07,0.0,0.0,0.0,1.21846967915e-07,0.0,0.0,0.0,1.21846967915e-07,1.0395049,0.34323275,9.50264385,9e-08,0.0,0.0,0.0,9e-08,0.0,0.0,0.0,9e-08
1532986829054814672,772,1532986829054175282,base_link,-0.00754776877666,0.0228981036862,0.0800292950515,-0.996500888092,1.0,0.0,0.0,0.0,1.0,0.0,0.0,0.0,1.0,0.360903084278,-0.0784787759185,0.0274672023952,1.21846967915e-07,0.0,0.0,0.0,1.21846967915e-07,0.0,0.0,0.0,1.21846967915e-07,0.97085835,0.10787315,12.69961175,9e-08,0.0,0.0,0.0,9e-08,0.0,0.0,0.0,9e-08
1532986829422365375,773,1532986829422035712,base_link,-0.0512700817451,0.0331952020718,0.0795086356175,-0.99496122243,1.0,0.0,0.0,0.0,1.0,0.0,0.0,0.0,1.0,0.315400451422,-0.0472929924726,-0.0848490744829,1.21846967915e-07,0.0,0.0,0.0,1.21846967915e-07,0.0,0.0,0.0,1.21846967915e-07,0.61781895,0.26477955,8.69849855,9e-08,0.0,0.0,0.0,9e-08,0.0,0.0,0.0,9e-08
1532986829881235227,774,1532986829880880380,base_link,-0.080470304369,0.0384352325736,0.109336082547,-0.989996406087,1.0,0.0,0.0,0.0,1.0,0.0,0.0,0.0,1.0,0.126745402813,-0.0498221702874,-0.138535887003,1.21846967915e-07,0.0,0.0,0.0,1.21846967915e-07,0.0,0.0,0.0,1.21846967915e-07,0.9218251,0.588399,11.179581,9e-08,0.0,0.0,0.0,9e-08,0.0,0.0,0.0,9e-08
1532986830268345231,775,1532986830259161162,base_link,-0.094352477717,0.0429833153844,0.119902396551,-0.987356804731,1.0,0.0,0.0,0.0,1.0,0.0,0.0,0.0,1.0,0.00212960224599,0.00406229123473,-0.0499369166791,1.21846967915e-07,0.0,0.0,0.0,1.21846967915e-07,0.0,0.0,0.0,1.21846967915e-07,0.51975245,0.6668522,9.85568325,9e-08,0.0,0.0,0.0,9e-08,0.0,0.0,0.0,9e-08
1532986830660488596,776,1532986830660243156,base_link,-0.0688643925258,0.028734334891,0.144204957537,-0.986730441236,1.0,0.0,0.0,0.0,1.0,0.0,0.0,0.0,1.0,-0.354315698147,0.0683137401938,-0.15444663167,1.21846967915e-07,0.0,0.0,0.0,1.21846967915e-07,0.0,0.0,0.0,1.21846967915e-07,0.7453054,0.5491724,8.825985,9e-08,0.0,0.0,0.0,9e-08,0.0,0.0,0.0,9e-08
1532986830974088293,777,1532986830972726857,base_link,-0.0539357405233,0.0108572211255,0.17044151699,-0.983830649009,1.0,0.0,0.0,0.0,1.0,0.0,0.0,0.0,1.0,-0.0281637106091,0.0473088100553,-0.199018031359,1.21846967915e-07,0.0,0.0,0.0,1.21846967915e-07,0.0,0.0,0.0,1.21846967915e-07,0.4707192,0.3530394,8.5906254,9e-08,0.0,0.0,0.0,9e-08,0.0,0.0,0.0,9e-08
1532986831297800407,778,1532986831297551928,base_link,-0.0516419916601,0.00959229165348,0.177950416273,-0.982636627643,1.0,0.0,0.0,0.0,1.0,0.0,0.0,0.0,1.0,-0.0283238086849,-0.0086779538542,0.0419903434813,1.21846967915e-07,0.0,0.0,0.0,1.21846967915e-07,0.0,0.0,0.0,1.21846967915e-07,0.81395195,0.1569064,8.99269805,9e-08,0.0,0.0,0.0,9e-08,0.0,0.0,0.0,9e-08
1532986831659616215,779,1532986831657909308,base_link,-0.029792056295,0.0057984648915,0.167939902324,-0.985329894195,1.0,0.0,0.0,0.0,1.0,0.0,0.0,0.0,1.0,-0.55398017168,-0.0171889606863,0.0693274214864,1.21846967915e-07,0.0,0.0,0.0,1.21846967915e-07,0.0,0.0,0.0,1.21846967915e-07,0.5295591,0.65704555,9.91452315,9e-08,0.0,0.0,0.0,9e-08,0.0,0.0,0.0,9e-08
1532986831973956262,780,1532986831973439624,base_link,0.0488674334733,-0.00360336245582,0.164502079724,-0.9851588986,1.0,0.0,0.0,0.0,1.0,0.0,0.0,0.0,1.0,-0.0313607603312,-0.0478906035423,0.0507699623704,1.21846967915e-07,0.0,0.0,0.0,1.21846967915e-07,0.0,0.0,0.0,1.21846967915e-07,0.77472535,-0.0588399,11.46397385,9e-08,0.0,0.0,0.0,9e-08,0.0,0.0,0.0,9e-08
1532986832311935182,781,1532986832311260336,base_link,0.0225619675542,0.00340915727186,0.145013887289,-0.989166471207,1.0,0.0,0.0,0.0,1.0,0.0,0.0,0.0,1.0,0.169277831912,-0.0379637256265,0.126993134618,1.21846967915e-07,0.0,0.0,0.0,1.21846967915e-07,0.0,0.0,0.0,1.21846967915e-07,0.2157463,0.50013915,9.1397978,9e-08,0.0,0.0,0.0,9e-08,0.0,0.0,0.0,9e-08
1532986832808515609,782,1532986832808231353,base_link,0.0124359262909,0.00397596619121,0.143280471273,-0.989596001397,1.0,0.0,0.0,0.0,1.0,0.0,0.0,0.0,1.0,-0.0346952863038,-0.00902196392417,-0.0589115768671,1.21846967915e-07,0.0,0.0,0.0,1.21846967915e-07,0.0,0.0,0.0,1.21846967915e-07,0.7060788,0.48052585,11.571847,9e-08,0.0,0.0,0.0,9e-08,0.0,0.0,0.0,9e-08
1532986833225791730,783,1532986833225396147,base_link,-0.00392717567496,0.00885290103578,0.149001188619,-0.988789587943,1.0,0.0,0.0,0.0,1.0,0.0,0.0,0.0,1.0,0.0662503167987,-0.0123340310529,0.014097776264,1.21846967915e-07,0.0,0.0,0.0,1.21846967915e-07,0.0,0.0,0.0,1.21846967915e-07,0.6080123,0.0196133,9.4536106,9e-08,0.0,0.0,0.0,9e-08,0.0,0.0,0.0,9e-08
1532986833494105003,784,1532986833493345549,base_link,-0.0147800810455,0.0102344476433,0.143432799264,-0.989496759662,1.0,0.0,0.0,0.0,1.0,0.0,0.0,0.0,1.0,0.134079560637,0.015121050179,0.0277705583721,1.21846967915e-07,0.0,0.0,0.0,1.21846967915e-07,0.0,0.0,0.0,1.21846967915e-07,0.4903325,0.196133,9.2378643,9e-08,0.0,0.0,0.0,9e-08,0.0,0.0,0.0,9e-08
1532986834033965460,785,1532986834033606229,base_link,-0.0299907489528,0.00869092252117,0.138789222431,-0.989829568451,1.0,0.0,0.0,0.0,1.0,0.0,0.0,0.0,1.0,0.0590504258871,0.00102642737329,0.013452376239,1.21846967915e-07,0.0,0.0,0.0,1.21846967915e-07,0.0,0.0,0.0,1.21846967915e-07,0.51975245,0.2549729,9.95374975,9e-08,0.0,0.0,0.0,9e-08,0.0,0.0,0.0,9e-08
1532986834414478300,786,1532986834413034272,base_link,-0.0425913528613,0.0127920944312,0.127003461827,-0.99090486913,1.0,0.0,0.0,0.0,1.0,0.0,0.0,0.0,1.0,0.023692118004,-0.00636371970177,0.0899473428726,1.21846967915e-07,0.0,0.0,0.0,1.21846967915e-07,0.0,0.0,0.0,1.21846967915e-07,0.36284605,0.1765197,10.6892485,9e-08,0.0,0.0,0.0,9e-08,0.0,0.0,0.0,9e-08
1532986834778788436,787,1532986834778443669,base_link,-0.0346122987202,0.0145312005221,0.112260547749,-0.992969487148,1.0,0.0,0.0,0.0,1.0,0.0,0.0,0.0,1.0,-0.206933215261,-0.0090578822419,0.0821776241064,1.21846967915e-07,0.0,0.0,0.0,1.21846967915e-07,0.0,0.0,0.0,1.21846967915e-07,0.2353596,0.26477955,10.56176205,9e-08,0.0,0.0,0.0,9e-08,0.0,0.0,0.0,9e-08
1532986835173434706,788,1532986835173155026,base_link,-0.0010768484395,0.00559579549192,0.0982756140301,-0.995142919965,1.0,0.0,0.0,0.0,1.0,0.0,0.0,0.0,1.0,-0.206693559885,0.0132626742125,0.0618909224868,1.21846967915e-07,0.0,0.0,0.0,1.21846967915e-07,0.0,0.0,0.0,1.21846967915e-07,0.04903325,0.02941995,7.5511205,9e-08,0.0,0.0,0.0,9e-08,0.0,0.0,0.0,9e-08
1532986835494084366,789,1532986835493779118,base_link,-0.000195038824888,0.00196488778143,0.0758228069808,-0.997119352494,1.0,0.0,0.0,0.0,1.0,0.0,0.0,0.0,1.0,0.058749075979,0.00177253456786,0.198981329799,1.21846967915e-07,0.0,0.0,0.0,1.21846967915e-07,0.0,0.0,0.0,1.21846967915e-07,0.48052585,-0.196133,9.4339973,9e-08,0.0,0.0,0.0,9e-08,0.0,0.0,0.0,9e-08
1532986835907241075,790,1532986835906686325,base_link,-0.0210843422455,0.00444870688066,0.0431688695183,-0.998835375937,1.0,0.0,0.0,0.0,1.0,0.0,0.0,0.0,1.0,0.157372653484,-0.0549193024635,0.081037953496,1.21846967915e-07,0.0,0.0,0.0,1.21846967915e-07,0.0,0.0,0.0,1.21846967915e-07,0.57859235,0.2157463,10.4735022,9e-08,0.0,0.0,0.0,9e-08,0.0,0.0,0.0,9e-08
1532986836187240329,791,1532986836186835211,base_link,-0.0518002414935,0.0119120917941,0.0285164470592,-0.998179166932,1.0,0.0,0.0,0.0,1.0,0.0,0.0,0.0,1.0,-0.0756347700953,-0.011110605672,0.0770310387015,1.21846967915e-07,0.0,0.0,0.0,1.21846967915e-07,0.0,0.0,0.0,1.21846967915e-07,0.8629852,0.5687857,12.73883835,9e-08,0.0,0.0,0.0,9e-08,0.0,0.0,0.0,9e-08
1532986836790288436,792,1532986836789840630,base_link,0.00898660204059,-0.00466713665721,0.0673620724681,-0.997677207323,1.0,0.0,0.0,0.0,1.0,0.0,0.0,0.0,1.0,-0.639738738537,0.0576969906688,-0.108470745385,1.21846967915e-07,0.0,0.0,0.0,1.21846967915e-07,0.0,0.0,0.0,1.21846967915e-07,0.3726527,0.48052585,9.54187045,9e-08,0.0,0.0,0.0,9e-08,0.0,0.0,0.0,9e-08
1532986837131773522,793,1532986837129756184,base_link,0.0551697790304,-0.0207114997687,0.081166400397,-0.994956956207,1.0,0.0,0.0,0.0,1.0,0.0,0.0,0.0,1.0,-0.0870662033558,0.0268789902329,-0.0894384607673,1.21846967915e-07,0.0,0.0,0.0,1.21846967915e-07,0.0,0.0,0.0,1.21846967915e-07,-0.0980665,0.4511059,8.8063717,9e-08,0.0,0.0,0.0,9e-08,0.0,0.0,0.0,9e-08
1532986837509817825,794,1532986837509349250,base_link,0.0416558158788,-0.0235289918681,0.0737655176756,-0.996127415518,1.0,0.0,0.0,0.0,1.0,0.0,0.0,0.0,1.0,0.218377053738,0.0279893446714,0.0643770769238,1.21846967915e-07,0.0,0.0,0.0,1.21846967915e-07,0.0,0.0,0.0,1.21846967915e-07,0.5295591,0.10787315,10.14988275,9e-08,0.0,0.0,0.0,9e-08,0.0,0.0,0.0,9e-08
1532986837972344274,795,1532986837971964147,base_link,0.00903875694197,-0.0240661907802,0.0591495419436,-0.99791805827,1.0,0.0,0.0,0.0,1.0,0.0,0.0,0.0,1.0,0.0186333879828,0.0109880883247,0.0526734516025,1.21846967915e-07,0.0,0.0,0.0,1.21846967915e-07,0.0,0.0,0.0,1.21846967915e-07,0.2941995,0.1176798,9.7085835,9e-08,0.0,0.0,0.0,9e-08,0.0,0.0,0.0,9e-08
1532986838369647560,796,1532986838369341801,base_link,0.000418261175348,-0.0235753728636,0.0449183046793,-0.998712357367,1.0,0.0,0.0,0.0,1.0,0.0,0.0,0.0,1.0,0.0655053332448,0.000237417407334,0.0337320640683,1.21846967915e-07,0.0,0.0,0.0,1.21846967915e-07,0.0,0.0,0.0,1.21846967915e-07,0.08825985,0.1765197,9.09076455,9e-08,0.0,0.0,0.0,9e-08,0.0,0.0,0.0,9e-08
1532986838888299600,797,1532986838887948498,base_link,-0.011253542547,-0.0242747838706,0.0547335351893,-0.998142441124,1.0,0.0,0.0,0.0,1.0,0.0,0.0,0.0,1.0,0.121452093124,0.0060819410719,-0.0857232660055,1.21846967915e-07,0.0,0.0,0.0,1.21846967915e-07,0.0,0.0,0.0,1.21846967915e-07,-0.14709975,1.08087142796e-15,8.825985,9e-08,0.0,0.0,0.0,9e-08,0.0,0.0,0.0,9e-08
1532986839345997520,798,1532986839345675697,base_link,-0.0560913032358,-0.0133226321178,0.05028201222,-0.99706970289,1.0,0.0,0.0,0.0,1.0,0.0,0.0,0.0,1.0,0.00363077875227,-0.0487151667476,0.108359925449,1.21846967915e-07,0.0,0.0,0.0,1.21846967915e-07,0.0,0.0,0.0,1.21846967915e-07,-0.14709975,-0.14709975,10.09104285,9e-08,0.0,0.0,0.0,9e-08,0.0,0.0,0.0,9e-08
1532986839747947704,799,1532986839747595833,base_link,-0.0380793510884,-0.00630681031605,0.0501653811376,-0.997994800437,1.0,0.0,0.0,0.0,1.0,0.0,0.0,0.0,1.0,0.016023254022,-0.0350445434451,-0.101402170956,1.21846967915e-07,0.0,0.0,0.0,1.21846967915e-07,0.0,0.0,0.0,1.21846967915e-07,-0.4118793,0.5295591,7.14904785,9e-08,0.0,0.0,0.0,9e-08,0.0,0.0,0.0,9e-08
1532986840106767009,800,1532986840106581922,base_link,-0.0442794091003,0.00116356562474,0.056544680174,-0.997417003659,1.0,0.0,0.0,0.0,1.0,0.0,0.0,0.0,1.0,0.0104949437082,-0.0525032393634,0.00968140922487,1.21846967915e-07,0.0,0.0,0.0,1.21846967915e-07,0.0,0.0,0.0,1.21846967915e-07,-0.3334261,0.0588399,9.7674234,9e-08,0.0,0.0,0.0,9e-08,0.0,0.0,0.0,9e-08
1532986840595515172,801,1532986840594853094,base_link,-0.027370244671,-0.001195225834,0.0598356254837,-0.997832219897,1.0,0.0,0.0,0.0,1.0,0.0,0.0,0.0,1.0,-0.0552929490805,0.0100722722709,-0.0529234670103,1.21846967915e-07,0.0,0.0,0.0,1.21846967915e-07,0.0,0.0,0.0,1.21846967915e-07,-0.36284605,0.196133,9.36535075,9e-08,0.0,0.0,0.0,9e-08,0.0,0.0,0.0,9e-08
1532986840965399564,802,1532986840965173900,base_link,-0.0324842169978,-0.00336845855882,0.0632237842087,-0.997464877699,1.0,0.0,0.0,0.0,1.0,0.0,0.0,0.0,1.0,-0.0290711298585,-0.00480733346194,0.0104201855138,1.21846967915e-07,0.0,0.0,0.0,1.21846967915e-07,0.0,0.0,0.0,1.21846967915e-07,-0.2157463,0.392266,9.4536106,9e-08,0.0,0.0,0.0,9e-08,0.0,0.0,0.0,9e-08
1532986841374891069,803,1532986841374461278,base_link,-0.0266804858826,-0.00133073834789,0.0660291403834,-0.997460041019,1.0,0.0,0.0,0.0,1.0,0.0,0.0,0.0,1.0,0.0383786000311,-0.0244523361325,-0.00264065619558,1.21846967915e-07,0.0,0.0,0.0,1.21846967915e-07,0.0,0.0,0.0,1.21846967915e-07,-0.0588399,0.14709975,11.30706745,9e-08,0.0,0.0,0.0,9e-08,0.0,0.0,0.0,9e-08
1532986841764706601,804,1532986841764294858,base_link,-0.0131127080766,0.00713117444583,0.060572320084,-0.99805220168,1.0,0.0,0.0,0.0,1.0,0.0,0.0,0.0,1.0,0.0316444374621,-0.0377876162529,0.0459200181067,1.21846967915e-07,0.0,0.0,0.0,1.21846967915e-07,0.0,0.0,0.0,1.21846967915e-07,-0.00980665,-0.04903325,12.1210194,9e-08,0.0,0.0,0.0,9e-08,0.0,0.0,0.0,9e-08
1532986842358021873,805,1532986842357793746,base_link,0.00359336077611,0.00185935422984,0.0615100884021,-0.998098261488,1.0,0.0,0.0,0.0,1.0,0.0,0.0,0.0,1.0,-0.083006978035,0.136579692364,-0.183474391699,1.21846967915e-07,0.0,0.0,0.0,1.21846967915e-07,0.0,0.0,0.0,1.21846967915e-07,-0.28439285,0.5295591,7.5707338,9e-08,0.0,0.0,0.0,9e-08,0.0,0.0,0.0,9e-08
1532986842694598685,806,1532986842694345502,base_link,-0.0021266759519,-0.0152823793207,0.0915363990724,-0.995682185126,1.0,0.0,0.0,0.0,1.0,0.0,0.0,0.0,1.0,0.241247877479,0.0591554120183,-0.114610701799,1.21846967915e-07,0.0,0.0,0.0,1.21846967915e-07,0.0,0.0,0.0,1.21846967915e-07,-0.36284605,-0.4314926,7.9629998,9e-08,0.0,0.0,0.0,9e-08,0.0,0.0,0.0,9e-08
1532986843146506383,807,1532986843146087504,base_link,-0.0352185154972,-0.0187238053718,0.0698381733938,-0.99676060557,1.0,0.0,0.0,0.0,1.0,0.0,0.0,0.0,1.0,0.042051024735,0.0590092018247,0.168882101774,1.21846967915e-07,0.0,0.0,0.0,1.21846967915e-07,0.0,0.0,0.0,1.21846967915e-07,0.2549729,0.1765197,10.14988275,9e-08,0.0,0.0,0.0,9e-08,0.0,0.0,0.0,9e-08
1532986843606963751,808,1532986843606646823,base_link,-0.0327880433551,-0.0285022752901,0.0448462290799,-0.99804878651,1.0,0.0,0.0,0.0,1.0,0.0,0.0,0.0,1.0,-0.100057810545,0.0850881561637,-0.0484902411699,1.21846967915e-07,0.0,0.0,0.0,1.21846967915e-07,0.0,0.0,0.0,1.21846967915e-07,0.3726527,0.93163175,9.54187045,9e-08,0.0,0.0,0.0,9e-08,0.0,0.0,0.0,9e-08
1532986844083302511,809,1532986844083061551,base_link,-0.0374855281167,-0.0445134116368,0.077000410293,-0.99533126555,1.0,0.0,0.0,0.0,1.0,0.0,0.0,0.0,1.0,0.259556174278,-0.00403358787298,-0.208392187953,1.21846967915e-07,0.0,0.0,0.0,1.21846967915e-07,0.0,0.0,0.0,1.21846967915e-07,-0.22555295,0.10787315,6.9627215,9e-08,0.0,0.0,0.0,9e-08,0.0,0.0,0.0,9e-08
1532986844603310131,810,1532986844603041812,base_link,-0.0790071992671,-0.0237131907244,0.0888520163914,-0.99262322471,1.0,0.0,0.0,0.0,1.0,0.0,0.0,0.0,1.0,0.253428339958,-0.0837674736977,0.00844690669328,1.21846967915e-07,0.0,0.0,0.0,1.21846967915e-07,0.0,0.0,0.0,1.21846967915e-07,-0.18632635,-0.12748645,10.81673495,9e-08,0.0,0.0,0.0,9e-08,0.0,0.0,0.0,9e-08
1532986844984561241,811,1532986844983812572,base_link,-0.142325233949,0.000618743528299,0.0877080249819,-0.985926187547,1.0,0.0,0.0,0.0,1.0,0.0,0.0,0.0,1.0,0.482208430767,-0.0730784982443,-0.025004370138,1.21846967915e-07,0.0,0.0,0.0,1.21846967915e-07,0.0,0.0,0.0,1.21846967915e-07,-0.5491724,0.6276256,10.4735022,9e-08,0.0,0.0,0.0,9e-08,0.0,0.0,0.0,9e-08
1532986845418094786,812,1532986845417723459,base_link,-0.180166305637,-0.00180383290544,0.151199242312,-0.971944256439,1.0,0.0,0.0,0.0,1.0,0.0,0.0,0.0,1.0,0.273707330227,-0.0623937323689,-0.433589249849,1.21846967915e-07,0.0,0.0,0.0,1.21846967915e-07,0.0,0.0,0.0,1.21846967915e-07,-0.91201845,0.2549729,8.3356525,9e-08,0.0,0.0,0.0,9e-08,0.0,0.0,0.0,9e-08
1532986845791491552,813,1532986845791068001,base_link,-0.242565918483,0.0230329018942,0.189024061538,-0.951262931466,1.0,0.0,0.0,0.0,1.0,0.0,0.0,0.0,1.0,0.281282573938,-0.144349932671,-0.0194115694612,1.21846967915e-07,0.0,0.0,0.0,1.21846967915e-07,0.0,0.0,0.0,1.21846967915e-07,-0.4511059,-0.04903325,10.77750835,9e-08,0.0,0.0,0.0,9e-08,0.0,0.0,0.0,9e-08
1532986846243180306,814,1532986846241546807,base_link,-0.28834518282,0.0562503402442,0.226263206856,-0.928707659057,1.0,0.0,0.0,0.0,1.0,0.0,0.0,0.0,1.0,0.354253321886,-0.0935755074024,-0.333969593048,1.21846967915e-07,0.0,0.0,0.0,1.21846967915e-07,0.0,0.0,0.0,1.21846967915e-07,-0.20593965,0.8433719,10.7677017,9e-08,0.0,0.0,0.0,9e-08,0.0,0.0,0.0,9e-08
1532986846615696754,815,1532986846615441139,base_link,-0.295814648891,0.0657101402627,0.301109121194,-0.904162135959,1.0,0.0,0.0,0.0,1.0,0.0,0.0,0.0,1.0,-0.0880582630634,-0.211792469025,-0.417312532663,1.21846967915e-07,0.0,0.0,0.0,1.21846967915e-07,0.0,0.0,0.0,1.21846967915e-07,-0.10787315,0.75511205,11.56204035,9e-08,0.0,0.0,0.0,9e-08,0.0,0.0,0.0,9e-08
1532986847110454755,816,1532986847110216195,base_link,-0.296502779121,0.106610020429,0.383185708379,-0.868267884015,1.0,0.0,0.0,0.0,1.0,0.0,0.0,0.0,1.0,-0.0571481920779,-0.312258422375,-0.238768219948,1.21846967915e-07,0.0,0.0,0.0,1.21846967915e-07,0.0,0.0,0.0,1.21846967915e-07,0.12748645,0.53936575,10.7284751,9e-08,0.0,0.0,0.0,9e-08,0.0,0.0,0.0,9e-08
1532986847493116964,817,1532986847491938824,base_link,-0.263672246238,0.134443492494,0.444658627327,-0.845387839416,1.0,0.0,0.0,0.0,1.0,0.0,0.0,0.0,1.0,-0.104361794889,-0.271406888962,-0.29007396102,1.21846967915e-07,0.0,0.0,0.0,1.21846967915e-07,0.0,0.0,0.0,1.21846967915e-07,0.2157463,0.7453054,12.944778,9e-08,0.0,0.0,0.0,9e-08,0.0,0.0,0.0,9e-08
1532986847861391185,818,1532986847860773267,base_link,-0.237892975685,0.154128843971,0.501896067122,-0.817160675377,1.0,0.0,0.0,0.0,1.0,0.0,0.0,0.0,1.0,-0.173120766878,-0.251340866089,-0.235446229577,1.21846967915e-07,0.0,0.0,0.0,1.21846967915e-07,0.0,0.0,0.0,1.21846967915e-07,0.0980665,0.392266,12.93497135,9e-08,0.0,0.0,0.0,9e-08,0.0,0.0,0.0,9e-08
1532986848345919329,819,1532986848345529890,base_link,-0.192915467201,0.168560072298,0.565275376155,-0.784114069287,1.0,0.0,0.0,0.0,1.0,0.0,0.0,0.0,1.0,-0.230041831732,-0.198041886091,-0.212441205978,1.21846967915e-07,0.0,0.0,0.0,1.21846967915e-07,0.0,0.0,0.0,1.21846967915e-07,-0.22555295,0.2157463,11.85623985,9e-08,0.0,0.0,0.0,9e-08,0.0,0.0,0.0,9e-08
1532986848787307826,820,1532986848780904357,base_link,-0.11818196488,0.121654945432,0.61933193124,-0.766590540234,1.0,0.0,0.0,0.0,1.0,0.0,0.0,0.0,1.0,-0.330443143845,0.00622429419309,-0.269492268562,1.21846967915e-07,0.0,0.0,0.0,1.21846967915e-07,0.0,0.0,0.0,1.21846967915e-07,-0.5295591,0.59820565,7.73744685,9e-08,0.0,0.0,0.0,9e-08,0.0,0.0,0.0,9e-08
1532986849106734258,821,1532986849106530291,base_link,-0.0999998324788,0.0972949323676,0.658888820077,-0.739188238825,1.0,0.0,0.0,0.0,1.0,0.0,0.0,0.0,1.0,-0.0608680099249,-0.0150123201311,-0.213839709759,1.21846967915e-07,0.0,0.0,0.0,1.21846967915e-07,0.0,0.0,0.0,1.21846967915e-07,-0.2745862,0.2157463,8.2768126,9e-08,0.0,0.0,0.0,9e-08,0.0,0.0,0.0,9e-08
1532986849345734563,822,1532986849345197701,base_link,-0.0963818928719,0.0909741538969,0.675557862129,-0.725297048777,1.0,0.0,0.0,0.0,1.0,0.0,0.0,0.0,1.0,-0.0735819786787,0.0127600105479,-0.138586089015,1.21846967915e-07,0.0,0.0,0.0,1.21846967915e-07,0.0,0.0,0.0,1.21846967915e-07,0.32361945,0.40207265,8.2768126,9e-08,0.0,0.0,0.0,9e-08,0.0,0.0,0.0,9e-08
1532986849800453901,823,1532986849797150583,base_link,0.0674956158398,-0.0553972830546,-0.704963072515,0.703848385139,1.0,0.0,0.0,0.0,1.0,0.0,0.0,0.0,1.0,-0.0742913633585,0.00486751040444,-0.123135171831,1.21846967915e-07,0.0,0.0,0.0,1.21846967915e-07,0.0,0.0,0.0,1.21846967915e-07,0.83356525,0.28439285,8.62004535,9e-08,0.0,0.0,0.0,9e-08,0.0,0.0,0.0,9e-08
1532986850112188164,824,1532986850110813384,base_link,0.0601979830564,-0.0522323216894,-0.712701753415,0.696924815232,1.0,0.0,0.0,0.0,1.0,0.0,0.0,0.0,1.0,0.0220959968865,-0.0522345006466,-0.0147914551198,1.21846967915e-07,0.0,0.0,0.0,1.21846967915e-07,0.0,0.0,0.0,1.21846967915e-07,0.63743225,0.48052585,10.1008495,9e-08,0.0,0.0,0.0,9e-08,0.0,0.0,0.0,9e-08
1532986850539221216,825,1532986850538933153,base_link,0.0357212098085,-0.0378856442293,-0.718549276238,0.693524052033,1.0,0.0,0.0,0.0,1.0,0.0,0.0,0.0,1.0,-0.192317083478,-0.0277719199657,-0.0392195284367,1.21846967915e-07,0.0,0.0,0.0,1.21846967915e-07,0.0,0.0,0.0,1.21846967915e-07,0.3138128,0.4314926,10.4735022,9e-08,0.0,0.0,0.0,9e-08,0.0,0.0,0.0,9e-08
1532986850958023957,826,1532986850956027035,base_link,0.00887396963299,-0.0253621984842,-0.725288581134,0.687920406463,1.0,0.0,0.0,0.0,1.0,0.0,0.0,0.0,1.0,-0.308097779751,-0.0415625944734,-0.0143109252676,1.21846967915e-07,0.0,0.0,0.0,1.21846967915e-07,0.0,0.0,0.0,1.21846967915e-07,0.588399,0.5491724,10.64021525,9e-08,0.0,0.0,0.0,9e-08,0.0,0.0,0.0,9e-08
1532986851296431676,827,1532986851291452843,base_link,-0.015465585893,-0.00857221123934,-0.729785248851,0.683447747386,1.0,0.0,0.0,0.0,1.0,0.0,0.0,0.0,1.0,-0.147579967976,-0.0498503372073,-0.00235960516147,1.21846967915e-07,0.0,0.0,0.0,1.21846967915e-07,0.0,0.0,0.0,1.21846967915e-07,0.69627215,0.18632635,10.9638347,9e-08,0.0,0.0,0.0,9e-08,0.0,0.0,0.0,9e-08
1532986851692414070,828,1532986851691634136,base_link,-0.0135080641819,-0.0206036716268,-0.725462487681,0.687820616066,1.0,0.0,0.0,0.0,1.0,0.0,0.0,0.0,1.0,0.262085914612,-0.00297790113837,0.0529165454209,1.21846967915e-07,0.0,0.0,0.0,1.21846967915e-07,0.0,0.0,0.0,1.21846967915e-07,0.392266,0.18632635,9.2378643,9e-08,0.0,0.0,0.0,9e-08,0.0,0.0,0.0,9e-08
1532986851992405872,829,1532986851992131953,base_link,0.00489264124058,-0.044852850276,-0.719245399753,0.693289505775,1.0,0.0,0.0,0.0,1.0,0.0,0.0,0.0,1.0,0.0815930813551,-0.0184639040381,0.038299895823,1.21846967915e-07,0.0,0.0,0.0,1.21846967915e-07,0.0,0.0,0.0,1.21846967915e-07,0.9610517,0.32361945,11.0030613,9e-08,0.0,0.0,0.0,9e-08,0.0,0.0,0.0,9e-08
1532986852384799701,830,1532986852384493557,base_link,0.0153500259513,-0.0540429452386,-0.714393422351,0.697485322337,1.0,0.0,0.0,0.0,1.0,0.0,0.0,0.0,1.0,0.0114493314177,0.0160352550447,0.0241114795208,1.21846967915e-07,0.0,0.0,0.0,1.21846967915e-07,0.0,0.0,0.0,1.21846967915e-07,0.7060788,0.40207265,9.62032365,9e-08,0.0,0.0,0.0,9e-08,0.0,0.0,0.0,9e-08
1532986852796041120,831,1532986852795680034,base_link,0.018952083831,-0.0480917430011,-0.717024659114,0.695128506821,1.0,0.0,0.0,0.0,1.0,0.0,0.0,0.0,1.0,0.0571905300021,0.0352142825723,-0.0616690218449,1.21846967915e-07,0.0,0.0,0.0,1.21846967915e-07,0.0,0.0,0.0,1.21846967915e-07,0.93163175,0.40207265,9.87529655,9e-08,0.0,0.0,0.0,9e-08,0.0,0.0,0.0,9e-08
1532986853096756153,832,1532986853096414778,base_link,0.0360409581201,-0.055639023338,-0.723847872476,0.686767505005,1.0,0.0,0.0,0.0,1.0,0.0,0.0,0.0,1.0,0.079001031816,0.0320453308523,-0.0894298702478,1.21846967915e-07,0.0,0.0,0.0,1.21846967915e-07,0.0,0.0,0.0,1.21846967915e-07,0.6276256,0.40207265,8.7867584,9e-08,0.0,0.0,0.0,9e-08,0.0,0.0,0.0,9e-08
1532986853532816762,833,1532986853532063644,base_link,0.0387053024517,-0.0535853387622,-0.727601632195,0.682807715143,1.0,0.0,0.0,0.0,1.0,0.0,0.0,0.0,1.0,-0.057774502784,0.00348936440423,-0.00869471300393,1.21846967915e-07,0.0,0.0,0.0,1.21846967915e-07,0.0,0.0,0.0,1.21846967915e-07,0.9218251,0.3726527,10.71866845,9e-08,0.0,0.0,0.0,9e-08,0.0,0.0,0.0,9e-08
1532986853842052088,834,1532986853840804860,base_link,0.0328017862697,-0.0420211965226,-0.729738539745,0.681645014264,1.0,0.0,0.0,0.0,1.0,0.0,0.0,0.0,1.0,-0.0710706487298,0.0594313964248,-0.0389974117279,1.21846967915e-07,0.0,0.0,0.0,1.21846967915e-07,0.0,0.0,0.0,1.21846967915e-07,0.69627215,0.4903325,8.5906254,9e-08,0.0,0.0,0.0,9e-08,0.0,0.0,0.0,9e-08
1532986854263708965,835,1532986854263476102,base_link,0.0184277924171,-0.011728242923,-0.740692730785,0.671488751467,1.0,0.0,0.0,0.0,1.0,0.0,0.0,0.0,1.0,-0.0150801260024,0.0341524705291,-0.124728001654,1.21846967915e-07,0.0,0.0,0.0,1.21846967915e-07,0.0,0.0,0.0,1.21846967915e-07,0.87279185,0.34323275,10.18910935,9e-08,0.0,0.0,0.0,9e-08,0.0,0.0,0.0,9e-08
1532986854672945367,836,1532986854672386297,base_link,0.0211875318568,-0.0155935056065,-0.748519663742,0.662590555372,1.0,0.0,0.0,0.0,1.0,0.0,0.0,0.0,1.0,-0.0980573222041,-0.00133031979203,-0.000802230322734,1.21846967915e-07,0.0,0.0,0.0,1.21846967915e-07,0.0,0.0,0.0,1.21846967915e-07,0.7256921,0.3726527,9.9243298,9e-08,0.0,0.0,0.0,9e-08,0.0,0.0,0.0,9e-08
1532986855070716843,837,1532986855070386604,base_link,-0.0017287181228,0.00622779408884,-0.75260097581,0.658445136154,1.0,0.0,0.0,0.0,1.0,0.0,0.0,0.0,1.0,-0.081726282835,-0.0257080197334,-0.0341211110353,1.21846967915e-07,0.0,0.0,0.0,1.21846967915e-07,0.0,0.0,0.0,1.21846967915e-07,0.5099458,0.20593965,10.28717585,9e-08,0.0,0.0,0.0,9e-08,0.0,0.0,0.0,9e-08
1532986855456394788,838,1532986855455249640,base_link,-0.0128379129728,0.0105988307644,-0.748194063301,0.663271058029,1.0,0.0,0.0,0.0,1.0,0.0,0.0,0.0,1.0,-0.0423388294876,-0.0420118272305,0.0718566328287,1.21846967915e-07,0.0,0.0,0.0,1.21846967915e-07,0.0,0.0,0.0,1.21846967915e-07,0.4118793,0.1569064,11.16977435,9e-08,0.0,0.0,0.0,9e-08,0.0,0.0,0.0,9e-08
1532986855807475045,839,1532986855806545800,base_link,-0.0236626358537,0.0207997279556,-0.738653760725,0.673348403688,1.0,0.0,0.0,0.0,1.0,0.0,0.0,0.0,1.0,-0.123349413276,0.00429129088297,0.0376235246658,1.21846967915e-07,0.0,0.0,0.0,1.21846967915e-07,0.0,0.0,0.0,1.21846967915e-07,0.28439285,0.2745862,7.453054,9e-08,0.0,0.0,0.0,9e-08,0.0,0.0,0.0,9e-08
1532986856158705157,840,1532986856158441606,base_link,-0.0362246768149,0.0294546994843,-0.73863891323,0.672482527156,1.0,0.0,0.0,0.0,1.0,0.0,0.0,0.0,1.0,0.111521422863,-0.02745103091,0.00161405047402,1.21846967915e-07,0.0,0.0,0.0,1.21846967915e-07,0.0,0.0,0.0,1.21846967915e-07,0.2353596,0.1569064,8.7279185,9e-08,0.0,0.0,0.0,9e-08,0.0,0.0,0.0,9e-08
1532986856566831067,841,1532986856566403228,base_link,-0.0241781496665,0.00463297730042,-0.729605177384,0.683425371006,1.0,0.0,0.0,0.0,1.0,0.0,0.0,0.0,1.0,0.00201709289104,-0.0113471169025,0.101641990244,1.21846967915e-07,0.0,0.0,0.0,1.21846967915e-07,0.0,0.0,0.0,1.21846967915e-07,0.55897905,0.14709975,9.9831697,9e-08,0.0,0.0,0.0,9e-08,0.0,0.0,0.0,9e-08
1532986856944479532,842,1532986856944179532,base_link,-0.027745411913,0.00588265558603,-0.71899965528,0.694431481277,1.0,0.0,0.0,0.0,1.0,0.0,0.0,0.0,1.0,0.125241115689,0.00927801802754,0.0497526302934,1.21846967915e-07,0.0,0.0,0.0,1.21846967915e-07,0.0,0.0,0.0,1.21846967915e-07,0.3530394,0.32361945,9.28689755,9e-08,0.0,0.0,0.0,9e-08,0.0,0.0,0.0,9e-08
1532986857421575058,843,1532986857421215859,base_link,0.00563875068271,-0.0285944144982,-0.717239240236,0.696217233495,1.0,0.0,0.0,0.0,1.0,0.0,0.0,0.0,1.0,0.2465865165,-0.00797486118972,0.0120437480509,1.21846967915e-07,0.0,0.0,0.0,1.21846967915e-07,0.0,0.0,0.0,1.21846967915e-07,0.57859235,0.06864655,9.4339973,9e-08,0.0,0.0,0.0,9e-08,0.0,0.0,0.0,9e-08
1532986857861330440,844,1532986857861093353,base_link,0.0318073664995,-0.0558343383763,-0.713844291342,0.697350088416,1.0,0.0,0.0,0.0,1.0,0.0,0.0,0.0,1.0,0.115198418498,0.0136989541352,0.0294240545481,1.21846967915e-07,0.0,0.0,0.0,1.21846967915e-07,0.0,0.0,0.0,1.21846967915e-07,0.5099458,0.1765197,9.6889702,9e-08,0.0,0.0,0.0,9e-08,0.0,0.0,0.0,9e-08
1532986858144642516,845,1532986858141615613,base_link,0.0441258760778,-0.0674029672389,-0.713024185852,0.69649569809,1.0,0.0,0.0,0.0,1.0,0.0,0.0,0.0,1.0,-0.0442888438702,0.0206497348845,-0.0259204134345,1.21846967915e-07,0.0,0.0,0.0,1.21846967915e-07,0.0,0.0,0.0,1.21846967915e-07,0.53936575,0.4314926,9.40457735,9e-08,0.0,0.0,0.0,9e-08,0.0,0.0,0.0,9e-08
1532986858591109878,846,1532986858590369401,base_link,0.0340102144383,-0.0468939721573,-0.72498452837,0.686324773204,1.0,0.0,0.0,0.0,1.0,0.0,0.0,0.0,1.0,-0.124632060528,0.00331403454766,-0.0681766495109,1.21846967915e-07,0.0,0.0,0.0,1.21846967915e-07,0.0,0.0,0.0,1.21846967915e-07,0.79433865,0.14709975,9.5516771,9e-08,0.0,0.0,0.0,9e-08,0.0,0.0,0.0,9e-08
1532986858972578652,847,1532986858972240861,base_link,0.0188233931343,-0.0315313223568,-0.732455343353,0.679823966608,1.0,0.0,0.0,0.0,1.0,0.0,0.0,0.0,1.0,-0.123757220805,-0.0397468432784,-0.0507995858788,1.21846967915e-07,0.0,0.0,0.0,1.21846967915e-07,0.0,0.0,0.0,1.21846967915e-07,0.392266,0.4314926,10.2381426,9e-08,0.0,0.0,0.0,9e-08,0.0,0.0,0.0,9e-08
1532986859472869916,848,1532986859472644349,base_link,0.00239261715304,-0.0221137913614,-0.733238035368,0.679608151146,1.0,0.0,0.0,0.0,1.0,0.0,0.0,0.0,1.0,-0.145739868283,-0.00633048824966,0.00251360842958,1.21846967915e-07,0.0,0.0,0.0,1.21846967915e-07,0.0,0.0,0.0,1.21846967915e-07,0.5099458,0.2941995,10.3165958,9e-08,0.0,0.0,0.0,9e-08,0.0,0.0,0.0,9e-08
1532986859953943190,849,1532986859953434008,base_link,-0.00821693655063,-0.0165265796155,-0.733347324861,0.67960360155,1.0,0.0,0.0,0.0,1.0,0.0,0.0,0.0,1.0,-0.060971736908,-0.034698702395,0.0248684585094,1.21846967915e-07,0.0,0.0,0.0,1.21846967915e-07,0.0,0.0,0.0,1.21846967915e-07,0.6668522,0.20593965,11.1011278,9e-08,0.0,0.0,0.0,9e-08,0.0,0.0,0.0,9e-08
1532986860379485304,850,1532986860379277336,base_link,-0.00690296632809,-0.026384295784,-0.729531029747,0.683403756669,1.0,0.0,0.0,0.0,1.0,0.0,0.0,0.0,1.0,0.108255960047,-0.0437286421657,0.0663317739964,1.21846967915e-07,0.0,0.0,0.0,1.21846967915e-07,0.0,0.0,0.0,1.21846967915e-07,0.22555295,0.14709975,9.99297635,9e-08,0.0,0.0,0.0,9e-08,0.0,0.0,0.0,9e-08
1532986860788264875,851,1532986860788006828,base_link,0.0110576334698,-0.0459727504424,-0.724929090902,0.687198696247,1.0,0.0,0.0,0.0,1.0,0.0,0.0,0.0,1.0,0.13675686717,-0.00126605387777,-0.0268847662956,1.21846967915e-07,0.0,0.0,0.0,1.21846967915e-07,0.0,0.0,0.0,1.21846967915e-07,0.59820565,0.2353596,9.09076455,9e-08,0.0,0.0,0.0,9e-08,0.0,0.0,0.0,9e-08
1532986861103842742,852,1532986861103440408,base_link,0.027419919516,-0.0597976835625,-0.72918475432,0.68114754578,1.0,0.0,0.0,0.0,1.0,0.0,0.0,0.0,1.0,0.137982934713,-0.0037351353094,-0.0487450994551,1.21846967915e-07,0.0,0.0,0.0,1.21846967915e-07,0.0,0.0,0.0,1.21846967915e-07,0.53936575,0.2157463,8.6102387,9e-08,0.0,0.0,0.0,9e-08,0.0,0.0,0.0,9e-08
1532986861493043973,853,1532986861492771142,base_link,0.0566661113756,-0.0868585160542,-0.733442913061,0.671793155139,1.0,0.0,0.0,0.0,1.0,0.0,0.0,0.0,1.0,0.237251326442,0.00127256568521,-0.0515243113041,1.21846967915e-07,0.0,0.0,0.0,1.21846967915e-07,0.0,0.0,0.0,1.21846967915e-07,0.7649187,0.3138128,10.198916,9e-08,0.0,0.0,0.0,9e-08,0.0,0.0,0.0,9e-08
1532986861792116962,854,1532986861791816323,base_link,0.0758318782548,-0.107139281309,-0.738073749159,0.661829163337,1.0,0.0,0.0,0.0,1.0,0.0,0.0,0.0,1.0,0.0114544490352,-0.0380572006106,-0.137875109911,1.21846967915e-07,0.0,0.0,0.0,1.21846967915e-07,0.0,0.0,0.0,1.21846967915e-07,0.6668522,0.75511205,10.62060195,9e-08,0.0,0.0,0.0,9e-08,0.0,0.0,0.0,9e-08
1532986862148102484,855,1532986862147333366,base_link,0.0834536899385,-0.108297840305,-0.755809435678,0.640358615435,1.0,0.0,0.0,0.0,1.0,0.0,0.0,0.0,1.0,0.0512160509825,0.0104325367138,-0.193833485246,1.21846967915e-07,0.0,0.0,0.0,1.21846967915e-07,0.0,0.0,0.0,1.21846967915e-07,0.4707192,0.77472535,8.93385815,9e-08,0.0,0.0,0.0,9e-08,0.0,0.0,0.0,9e-08
1532986862504438917,856,1532986862504193606,base_link,0.102151313767,-0.137961206547,-0.774618766118,0.6086851253,1.0,0.0,0.0,0.0,1.0,0.0,0.0,0.0,1.0,0.24109531939,-0.0807562321424,-0.156234145164,1.21846967915e-07,0.0,0.0,0.0,1.21846967915e-07,0.0,0.0,0.0,1.21846967915e-07,0.53936575,0.34323275,8.7475318,9e-08,0.0,0.0,0.0,9e-08,0.0,0.0,0.0,9e-08
1532986862960633770,857,1532986862957908914,base_link,0.107832711169,-0.182333801867,-0.780676740403,0.587937341978,1.0,0.0,0.0,0.0,1.0,0.0,0.0,0.0,1.0,0.370332658291,-0.118569761515,-0.0980623438954,1.21846967915e-07,0.0,0.0,0.0,1.21846967915e-07,0.0,0.0,0.0,1.21846967915e-07,0.73549875,0.44129925,10.69905515,9e-08,0.0,0.0,0.0,9e-08,0.0,0.0,0.0,9e-08
1532986863407540459,858,1532986863407076268,base_link,0.118384603245,-0.223046797853,-0.794663918199,0.552036655299,1.0,0.0,0.0,0.0,1.0,0.0,0.0,0.0,1.0,0.00202211318538,-0.0917578190565,-0.214000239968,1.21846967915e-07,0.0,0.0,0.0,1.21846967915e-07,0.0,0.0,0.0,1.21846967915e-07,0.50013915,0.99047165,10.1204628,9e-08,0.0,0.0,0.0,9e-08,0.0,0.0,0.0,9e-08
1532986863727504329,859,1532986863727041739,base_link,0.115159658007,-0.224498237024,-0.821958667709,0.510610167661,1.0,0.0,0.0,0.0,1.0,0.0,0.0,0.0,1.0,-0.0622892044485,-0.117177397013,-0.312971830368,1.21846967915e-07,0.0,0.0,0.0,1.21846967915e-07,0.0,0.0,0.0,1.21846967915e-07,0.5295591,0.5687857,10.2577559,9e-08,0.0,0.0,0.0,9e-08,0.0,0.0,0.0,9e-08
1532986864181699188,860,1532986864181385045,base_link,0.0993750063095,-0.231646913592,-0.854970295657,0.453310168746,1.0,0.0,0.0,0.0,1.0,0.0,0.0,0.0,1.0,0.0362009182572,-0.197302892804,-0.21762059629,1.21846967915e-07,0.0,0.0,0.0,1.21846967915e-07,0.0,0.0,0.0,1.21846967915e-07,0.59820565,0.2549729,11.6699135,9e-08,0.0,0.0,0.0,9e-08,0.0,0.0,0.0,9e-08
1532986864663491404,861,1532986864663070830,base_link,0.0678155894441,-0.255408572545,-0.878172334265,0.398724037689,1.0,0.0,0.0,0.0,1.0,0.0,0.0,0.0,1.0,-0.0601159855723,-0.213985472918,-0.21491470933,1.21846967915e-07,0.0,0.0,0.0,1.21846967915e-07,0.0,0.0,0.0,1.21846967915e-07,0.77472535,0.6668522,12.05237285,9e-08,0.0,0.0,0.0,9e-08,0.0,0.0,0.0,9e-08
1532986864957822232,862,1532986864955313631,base_link,0.0519860822352,-0.259948308452,-0.893531364306,0.362389328194,1.0,0.0,0.0,0.0,1.0,0.0,0.0,0.0,1.0,-0.00703565124422,-0.181964591146,-0.263148725033,1.21846967915e-07,0.0,0.0,0.0,1.21846967915e-07,0.0,0.0,0.0,1.21846967915e-07,0.34323275,0.6668522,11.20900095,9e-08,0.0,0.0,0.0,9e-08,0.0,0.0,0.0,9e-08
1532986865395738612,863,1532986865395389685,base_link,0.0305184779123,-0.259904922454,-0.917857104765,0.298423171055,1.0,0.0,0.0,0.0,1.0,0.0,0.0,0.0,1.0,-0.0747161284089,-0.134069159627,-0.25297087431,1.21846967915e-07,0.0,0.0,0.0,1.21846967915e-07,0.0,0.0,0.0,1.21846967915e-07,0.5295591,0.48052585,10.7088618,9e-08,0.0,0.0,0.0,9e-08,0.0,0.0,0.0,9e-08
1532986865810140854,864,1532986865809675416,base_link,0.0146843112645,-0.247576159845,-0.935278572307,0.252476549925,1.0,0.0,0.0,0.0,1.0,0.0,0.0,0.0,1.0,-0.122123658657,-0.128758296371,-0.222197413445,1.21846967915e-07,0.0,0.0,0.0,1.21846967915e-07,0.0,0.0,0.0,1.21846967915e-07,0.5295591,0.71588545,10.44408225,9e-08,0.0,0.0,0.0,9e-08,0.0,0.0,0.0,9e-08
1532986866162599699,865,1532986866162101076,base_link,3.87767953536e-05,-0.225264207164,-0.951136264083,0.211177277694,1.0,0.0,0.0,0.0,1.0,0.0,0.0,0.0,1.0,-0.188083857298,-0.0994009375572,-0.218649551272,1.21846967915e-07,0.0,0.0,0.0,1.21846967915e-07,0.0,0.0,0.0,1.21846967915e-07,0.7060788,0.5491724,10.7480884,9e-08,0.0,0.0,0.0,9e-08,0.0,0.0,0.0,9e-08
1532986866562629121,866,1532986866562438593,base_link,-0.013623427983,-0.186526727556,-0.968597652244,0.163831529885,1.0,0.0,0.0,0.0,1.0,0.0,0.0,0.0,1.0,-0.247922077775,-0.068958543241,-0.196772515774,1.21846967915e-07,0.0,0.0,0.0,1.21846967915e-07,0.0,0.0,0.0,1.21846967915e-07,0.87279185,0.40207265,10.11065615,9e-08,0.0,0.0,0.0,9e-08,0.0,0.0,0.0,9e-08
1532986866956914272,867,1532986866954949062,base_link,-0.0180433777144,-0.14207341648,-0.981234311167,0.129107735783,1.0,0.0,0.0,0.0,1.0,0.0,0.0,0.0,1.0,-0.218349516392,-0.012406649068,-0.146124452353,1.21846967915e-07,0.0,0.0,0.0,1.21846967915e-07,0.0,0.0,0.0,1.21846967915e-07,0.5295591,0.34323275,9.414384,9e-08,0.0,0.0,0.0,9e-08,0.0,0.0,0.0,9e-08
1532986867461307988,868,1532986867460908853,base_link,-0.0224744429994,-0.0962675169864,-0.990047996124,0.100162018528,1.0,0.0,0.0,0.0,1.0,0.0,0.0,0.0,1.0,-0.201577961445,-0.0171582307667,-0.0690617412329,1.21846967915e-07,0.0,0.0,0.0,1.21846967915e-07,0.0,0.0,0.0,1.21846967915e-07,0.87279185,0.4118793,9.44380395,9e-08,0.0,0.0,0.0,9e-08,0.0,0.0,0.0,9e-08
1532986867970837337,869,1532986867970103963,base_link,-0.0280733655411,-0.0568392867667,-0.994491166097,0.0834775549602,1.0,0.0,0.0,0.0,1.0,0.0,0.0,0.0,1.0,-0.153054848313,-0.0053127836436,-0.0411885604262,1.21846967915e-07,0.0,0.0,0.0,1.21846967915e-07,0.0,0.0,0.0,1.21846967915e-07,0.91201845,0.3138128,10.85596155,9e-08,0.0,0.0,0.0,9e-08,0.0,0.0,0.0,9e-08
1532986868354529048,870,1532986868354115097,base_link,-0.0269702087686,-0.0371586105192,-0.995875617026,0.0782534402792,1.0,0.0,0.0,0.0,1.0,0.0,0.0,0.0,1.0,-0.122521027923,0.0189437605441,-0.00266012921929,1.21846967915e-07,0.0,0.0,0.0,1.21846967915e-07,0.0,0.0,0.0,1.21846967915e-07,0.65704555,0.3726527,9.2967042,9e-08,0.0,0.0,0.0,9e-08,0.0,0.0,0.0,9e-08
1532986868649023363,871,1532986868648283941,base_link,-0.024756030369,-0.0196667684163,-0.996638893354,0.075572967615,1.0,0.0,0.0,0.0,1.0,0.0,0.0,0.0,1.0,-0.0953902229667,0.0149950021878,-0.0275542605668,1.21846967915e-07,0.0,0.0,0.0,1.21846967915e-07,0.0,0.0,0.0,1.21846967915e-07,0.99047165,0.2549729,10.0223963,9e-08,0.0,0.0,0.0,9e-08,0.0,0.0,0.0,9e-08
1532986869018026542,872,1532986869014485336,base_link,-0.020554612482,-0.0109947699367,-0.996796886381,0.0765022237675,1.0,0.0,0.0,0.0,1.0,0.0,0.0,0.0,1.0,-0.00382205331698,0.0208391211927,0.0492870956659,1.21846967915e-07,0.0,0.0,0.0,1.21846967915e-07,0.0,0.0,0.0,1.21846967915e-07,0.99047165,0.0392266,9.80665,9e-08,0.0,0.0,0.0,9e-08,0.0,0.0,0.0,9e-08
1532986869377603157,873,1532986869375931898,base_link,-0.0189501901797,-0.00691943568614,-0.995573495445,0.0917955710768,1.0,0.0,0.0,0.0,1.0,0.0,0.0,0.0,1.0,-0.0296527780592,0.00849144998938,0.0772467926145,1.21846967915e-07,0.0,0.0,0.0,1.21846967915e-07,0.0,0.0,0.0,1.21846967915e-07,1.0395049,0.32361945,9.2770909,9e-08,0.0,0.0,0.0,9e-08,0.0,0.0,0.0,9e-08
1532986869763510573,874,1532986869763191054,base_link,-0.0136917362572,-0.00386021932547,-0.995177910704,0.0970492715662,1.0,0.0,0.0,0.0,1.0,0.0,0.0,0.0,1.0,0.0360771864653,0.0183721296489,-0.0200838409364,1.21846967915e-07,0.0,0.0,0.0,1.21846967915e-07,0.0,0.0,0.0,1.21846967915e-07,0.95124505,0.26477955,8.65927195,9e-08,0.0,0.0,0.0,9e-08,0.0,0.0,0.0,9e-08
1532986870206936153,875,1532986870206608122,base_link,-0.00761653538658,-0.0171157074306,-0.995560812152,0.0922372498258,1.0,0.0,0.0,0.0,1.0,0.0,0.0,0.0,1.0,0.0314063169062,0.010639869608,-0.0415506623685,1.21846967915e-07,0.0,0.0,0.0,1.21846967915e-07,0.0,0.0,0.0,1.21846967915e-07,1.02969825,0.2745862,9.3751574,9e-08,0.0,0.0,0.0,9e-08,0.0,0.0,0.0,9e-08
1532986870751177557,876,1532986870737716286,base_link,-0.00469311168283,-0.0404720321995,-0.994646531648,0.0949645533523,1.0,0.0,0.0,0.0,1.0,0.0,0.0,0.0,1.0,0.102471016347,-0.00900607649237,0.0394731424749,1.21846967915e-07,0.0,0.0,0.0,1.21846967915e-07,0.0,0.0,0.0,1.21846967915e-07,0.9610517,0.24516625,8.99269805,9e-08,0.0,0.0,0.0,9e-08,0.0,0.0,0.0,9e-08
1532986871173719839,877,1532986871167301075,base_link,-0.0119575166426,-0.0370702537088,-0.994822099064,0.0938712165645,1.0,0.0,0.0,0.0,1.0,0.0,0.0,0.0,1.0,-0.06073506549,-0.0233371704817,-0.0458680279553,1.21846967915e-07,0.0,0.0,0.0,1.21846967915e-07,0.0,0.0,0.0,1.21846967915e-07,0.9218251,0.59820565,10.87557485,9e-08,0.0,0.0,0.0,9e-08,0.0,0.0,0.0,9e-08
1532986871590261660,878,1532986871589948477,base_link,-0.0134475762156,-0.0603043288652,-0.995896025912,0.066133623716,1.0,0.0,0.0,0.0,1.0,0.0,0.0,0.0,1.0,0.0665950849652,-0.0475967638195,-0.182366207242,1.21846967915e-07,0.0,0.0,0.0,1.21846967915e-07,0.0,0.0,0.0,1.21846967915e-07,0.2745862,0.4511059,9.95374975,9e-08,0.0,0.0,0.0,9e-08,0.0,0.0,0.0,9e-08
1532986871973357852,879,1532986871973084573,base_link,-0.0243569002516,-0.071188544157,-0.99637945172,0.039584350208,1.0,0.0,0.0,0.0,1.0,0.0,0.0,0.0,1.0,0.10129866749,-0.0673513039947,-0.0717090293765,1.21846967915e-07,0.0,0.0,0.0,1.21846967915e-07,0.0,0.0,0.0,1.21846967915e-07,0.18632635,0.2549729,10.62060195,9e-08,0.0,0.0,0.0,9e-08,0.0,0.0,0.0,9e-08
1532986872358403127,880,1532986872356912540,base_link,-0.0364472894576,-0.0811471569354,-0.995706275448,0.0256075583797,1.0,0.0,0.0,0.0,1.0,0.0,0.0,0.0,1.0,-0.141900092363,-0.0177446193993,-0.092947922647,1.21846967915e-07,0.0,0.0,0.0,1.21846967915e-07,0.0,0.0,0.0,1.21846967915e-07,0.4903325,0.55897905,10.8657682,9e-08,0.0,0.0,0.0,9e-08,0.0,0.0,0.0,9e-08
1532986872795608949,881,1532986872795308982,base_link,-0.0375697049071,-0.0153103820131,-0.999172135124,0.00302553578317,1.0,0.0,0.0,0.0,1.0,0.0,0.0,0.0,1.0,-0.373949885368,0.0110193667933,-0.0409982465208,1.21846967915e-07,0.0,0.0,0.0,1.21846967915e-07,0.0,0.0,0.0,1.21846967915e-07,0.6080123,0.4118793,10.05181625,9e-08,0.0,0.0,0.0,9e-08,0.0,0.0,0.0,9e-08
1532986873215763623,882,1532986873215532263,base_link,-0.0353292094538,0.0119689100476,-0.999293712167,-0.00454631440984,1.0,0.0,0.0,0.0,1.0,0.0,0.0,0.0,1.0,0.0537579022348,0.0386821739376,-0.000922484789044,1.21846967915e-07,0.0,0.0,0.0,1.21846967915e-07,0.0,0.0,0.0,1.21846967915e-07,0.9218251,0.10787315,9.9635564,9e-08,0.0,0.0,0.0,9e-08,0.0,0.0,0.0,9e-08
1532986873638851727,883,1532986873635633849,base_link,-0.0306243941258,0.0144862660449,-0.999417749695,0.00405662110746,1.0,0.0,0.0,0.0,1.0,0.0,0.0,0.0,1.0,0.016325738281,0.0186116099358,0.0834004729986,1.21846967915e-07,0.0,0.0,0.0,1.21846967915e-07,0.0,0.0,0.0,1.21846967915e-07,0.6668522,0.1176798,10.26756255,9e-08,0.0,0.0,0.0,9e-08,0.0,0.0,0.0,9e-08
1532986873992189097,884,1532986873991554859,base_link,-0.0261125464689,0.0134376979254,-0.999296837625,0.0233108023111,1.0,0.0,0.0,0.0,1.0,0.0,0.0,0.0,1.0,0.0457018725574,0.0459998473525,0.0721564367414,1.21846967915e-07,0.0,0.0,0.0,1.21846967915e-07,0.0,0.0,0.0,1.21846967915e-07,0.8825985,0.4511059,10.34601575,9e-08,0.0,0.0,0.0,9e-08,0.0,0.0,0.0,9e-08
1532986874434010938,885,1532986874433668475,base_link,-0.0152298445522,0.00206900300744,-0.999424794572,0.0302299694919,1.0,0.0,0.0,0.0,1.0,0.0,0.0,0.0,1.0,0.00338547071442,0.0582541264594,0.0637339651585,1.21846967915e-07,0.0,0.0,0.0,1.21846967915e-07,0.0,0.0,0.0,1.21846967915e-07,0.6472389,0.1176798,8.44352565,9e-08,0.0,0.0,0.0,9e-08,0.0,0.0,0.0,9e-08
1532986874793871904,886,1532986874791984838,base_link,-0.00239296105446,0.00385140696645,-0.999423453869,0.0336481835798,1.0,0.0,0.0,0.0,1.0,0.0,0.0,0.0,1.0,0.0797688886523,0.0900343880057,-0.020865868777,1.21846967915e-07,0.0,0.0,0.0,1.21846967915e-07,0.0,0.0,0.0,1.21846967915e-07,0.53936575,0.34323275,7.77667345,9e-08,0.0,0.0,0.0,9e-08,0.0,0.0,0.0,9e-08
1532986875300167151,887,1532986875299926224,base_link,0.0116007209771,-0.0188644025706,-0.99960253295,0.0174451629142,1.0,0.0,0.0,0.0,1.0,0.0,0.0,0.0,1.0,0.0339504182339,-0.00596073176712,-0.0018007948529,1.21846967915e-07,0.0,0.0,0.0,1.21846967915e-07,0.0,0.0,0.0,1.21846967915e-07,0.6668522,0.20593965,9.7085835,9e-08,0.0,0.0,0.0,9e-08,0.0,0.0,0.0,9e-08
1532986875686119847,888,1532986875685735016,base_link,0.00791759021043,-0.00726526623873,-0.999487096483,0.0301673935776,1.0,0.0,0.0,0.0,1.0,0.0,0.0,0.0,1.0,0.00699435500428,-0.0167121365666,0.137538537383,1.21846967915e-07,0.0,0.0,0.0,1.21846967915e-07,0.0,0.0,0.0,1.21846967915e-07,0.2745862,-0.26477955,7.28634095,9e-08,0.0,0.0,0.0,9e-08,0.0,0.0,0.0,9e-08
1532986876105479515,889,1532986876104028639,base_link,-0.00875711088407,-0.000390606991449,-0.998140450439,0.0603224803276,1.0,0.0,0.0,0.0,1.0,0.0,0.0,0.0,1.0,-0.394284248352,0.00439470261335,0.0622228905559,1.21846967915e-07,0.0,0.0,0.0,1.21846967915e-07,0.0,0.0,0.0,1.21846967915e-07,-0.5491724,0.0980665,10.79712165,9e-08,0.0,0.0,0.0,9e-08,0.0,0.0,0.0,9e-08
1532986876572185120,890,1532986876571776098,base_link,-0.00310089011269,0.136783317114,-0.989591038723,0.0446126071785,1.0,0.0,0.0,0.0,1.0,0.0,0.0,0.0,1.0,-0.431521356106,0.0807172507048,-0.085632443428,1.21846967915e-07,0.0,0.0,0.0,1.21846967915e-07,0.0,0.0,0.0,1.21846967915e-07,-0.9414384,-0.2157463,8.8063717,9e-08,0.0,0.0,0.0,9e-08,0.0,0.0,0.0,9e-08
1532986876949602162,891,1532986876948870164,base_link,0.00526318466589,0.186873926703,-0.98120166588,0.0478928520851,1.0,0.0,0.0,0.0,1.0,0.0,0.0,0.0,1.0,-0.218731462955,0.0224258601665,0.176017835736,1.21846967915e-07,0.0,0.0,0.0,1.21846967915e-07,0.0,0.0,0.0,1.21846967915e-07,-0.9022118,-0.5099458,7.6295737,9e-08,0.0,0.0,0.0,9e-08,0.0,0.0,0.0,9e-08
