%time,field.header.seq,field.header.stamp,field.header.frame_id,field.orientation.x,field.orientation.y,field.orientation.z,field.orientation.w,field.orientation_covariance0,field.orientation_covariance1,field.orientation_covariance2,field.orientation_covariance3,field.orientation_covariance4,field.orientation_covariance5,field.orientation_covariance6,field.orientation_covariance7,field.orientation_covariance8,field.angular_velocity.x,field.angular_velocity.y,field.angular_velocity.z,field.angular_velocity_covariance0,field.angular_velocity_covariance1,field.angular_velocity_covariance2,field.angular_velocity_covariance3,field.angular_velocity_covariance4,field.angular_velocity_covariance5,field.angular_velocity_covariance6,field.angular_velocity_covariance7,field.angular_velocity_covariance8,field.linear_acceleration.x,field.linear_acceleration.y,field.linear_acceleration.z,field.linear_acceleration_covariance0,field.linear_acceleration_covariance1,field.linear_acceleration_covariance2,field.linear_acceleration_covariance3,field.linear_acceleration_covariance4,field.linear_acceleration_covariance5,field.linear_acceleration_covariance6,field.linear_acceleration_covariance7,field.linear_acceleration_covariance8
1531945830291536019,1697,1531945830291193904,base_link,-0.0657069915508,-0.0326272755072,-0.995107236449,-0.0661788495017,1.0,0.0,0.0,0.0,1.0,0.0,0.0,0.0,1.0,0.765619397163,-0.160985976458,-0.161585092545,1.21846967915e-07,0.0,0.0,0.0,1.21846967915e-07,0.0,0.0,0.0,1.21846967915e-07,-0.6276256,0.392266,11.9052731,9e-08,0.0,0.0,0.0,9e-08,0.0,0.0,0.0,9e-08
1531945830654823718,1698,1531945830654406368,base_link,-0.0966818426029,-0.160658132452,-0.97852367218,-0.0856329888029,1.0,0.0,0.0,0.0,1.0,0.0,0.0,0.0,1.0,0.537237167358,-0.122934147716,-0.0639777332544,1.21846967915e-07,0.0,0.0,0.0,1.21846967915e-07,0.0,0.0,0.0,1.21846967915e-07,-1.36312435,-0.2941995,13.1212977,9e-08,0.0,0.0,0.0,9e-08,0.0,0.0,0.0,9e-08
1531945831046354963,1699,1531945831046013905,base_link,-0.139099350971,-0.272257291222,-0.94999477959,-0.0635394105087,1.0,0.0,0.0,0.0,1.0,0.0,0.0,0.0,1.0,0.251841157675,-0.185087054968,0.0571028478444,1.21846967915e-07,0.0,0.0,0.0,1.21846967915e-07,0.0,0.0,0.0,1.21846967915e-07,-1.7259704,0.71588545,10.93441475,9e-08,0.0,0.0,0.0,9e-08,0.0,0.0,0.0,9e-08
1531945831458300246,1700,1531945831457436572,base_link,-0.160703543407,-0.281174978558,-0.940192713567,-0.105606173708,1.0,0.0,0.0,0.0,1.0,0.0,0.0,0.0,1.0,-0.0109160933644,-0.165109574795,-0.337623387575,1.21846967915e-07,0.0,0.0,0.0,1.21846967915e-07,0.0,0.0,0.0,1.21846967915e-07,-1.73577705,0.2941995,10.1204628,9e-08,0.0,0.0,0.0,9e-08,0.0,0.0,0.0,9e-08
1531945831757577222,1701,1531945831757293439,base_link,-0.167816726705,-0.282568167334,-0.929946640678,-0.164900038018,1.0,0.0,0.0,0.0,1.0,0.0,0.0,0.0,1.0,-0.216936185956,-0.132261067629,-0.351414561272,1.21846967915e-07,0.0,0.0,0.0,1.21846967915e-07,0.0,0.0,0.0,1.21846967915e-07,-1.42196425,-0.2549729,9.8458766,9e-08,0.0,0.0,0.0,9e-08,0.0,0.0,0.0,9e-08
1531945832175039939,1702,1531945832174777446,base_link,-0.170771616478,-0.245504922571,-0.919893662206,-0.253692802878,1.0,0.0,0.0,0.0,1.0,0.0,0.0,0.0,1.0,-0.328412860632,-0.184257432818,-0.323543310165,1.21846967915e-07,0.0,0.0,0.0,1.21846967915e-07,0.0,0.0,0.0,1.21846967915e-07,-1.02969825,0.1176798,9.65955025,9e-08,0.0,0.0,0.0,9e-08,0.0,0.0,0.0,9e-08
1531945832473612933,1703,1531945832473352969,base_link,-0.166202290198,-0.197126461033,-0.911368555798,-0.320819750945,1.0,0.0,0.0,0.0,1.0,0.0,0.0,0.0,1.0,-0.422529488802,-0.119108095765,-0.363411277533,1.21846967915e-07,0.0,0.0,0.0,1.21846967915e-07,0.0,0.0,0.0,1.21846967915e-07,-0.24516625,-0.392266,13.8862164,9e-08,0.0,0.0,0.0,9e-08,0.0,0.0,0.0,9e-08
1531945832864090589,1704,1531945832863078909,base_link,-0.139760634454,-0.121182934838,-0.905210730054,-0.382590114296,1.0,0.0,0.0,0.0,1.0,0.0,0.0,0.0,1.0,-0.461488634348,-0.0520183146,-0.105086252093,1.21846967915e-07,0.0,0.0,0.0,1.21846967915e-07,0.0,0.0,0.0,1.21846967915e-07,-0.24516625,-1.1375714,11.62088025,9e-08,0.0,0.0,0.0,9e-08,0.0,0.0,0.0,9e-08
1531945833261431247,1705,1531945833261137539,base_link,-0.116788726524,-0.0589224517393,-0.910888867774,-0.391369401721,1.0,0.0,0.0,0.0,1.0,0.0,0.0,0.0,1.0,-0.427305221558,0.0496008209884,0.039438854903,1.21846967915e-07,0.0,0.0,0.0,1.21846967915e-07,0.0,0.0,0.0,1.21846967915e-07,-0.0980665,-0.2745862,9.63993695,9e-08,0.0,0.0,0.0,9e-08,0.0,0.0,0.0,9e-08
1531945833763380194,1706,1531945833763133869,base_link,-0.0400765162261,0.0247167631246,-0.914045432152,-0.40286958489,1.0,0.0,0.0,0.0,1.0,0.0,0.0,0.0,1.0,-0.306082904339,0.199487060308,-0.0168809741735,1.21846967915e-07,0.0,0.0,0.0,1.21846967915e-07,0.0,0.0,0.0,1.21846967915e-07,-0.02941995,-0.53936575,7.5118939,9e-08,0.0,0.0,0.0,9e-08,0.0,0.0,0.0,9e-08
1531945834176677222,1707,1531945834176447225,base_link,0.0153906421151,0.0460954469678,-0.914086620928,-0.402596556548,1.0,0.0,0.0,0.0,1.0,0.0,0.0,0.0,1.0,-0.133790507913,0.202417641878,0.0569673925638,1.21846967915e-07,0.0,0.0,0.0,1.21846967915e-07,0.0,0.0,0.0,1.21846967915e-07,0.2745862,0.06864655,6.2566427,9e-08,0.0,0.0,0.0,9e-08,0.0,0.0,0.0,9e-08
1531945834650949421,1708,1531945834650620017,base_link,0.0602487615406,0.0429515283322,-0.920630374948,-0.383360099214,1.0,0.0,0.0,0.0,1.0,0.0,0.0,0.0,1.0,0.0161225609481,0.142080307007,0.138541072607,1.21846967915e-07,0.0,0.0,0.0,1.21846967915e-07,0.0,0.0,0.0,1.21846967915e-07,0.38245935,-0.18632635,6.63910205,9e-08,0.0,0.0,0.0,9e-08,0.0,0.0,0.0,9e-08
1531945835062246397,1709,1531945835061905339,base_link,0.0727810379617,0.0220888086403,-0.930778160567,-0.357584984106,1.0,0.0,0.0,0.0,1.0,0.0,0.0,0.0,1.0,0.196630746126,0.032179698348,0.0971586629748,1.21846967915e-07,0.0,0.0,0.0,1.21846967915e-07,0.0,0.0,0.0,1.21846967915e-07,0.42168595,0.06864655,8.36507245,9e-08,0.0,0.0,0.0,9e-08,0.0,0.0,0.0,9e-08
1531945835494658862,1710,1531945835494418460,base_link,0.0571304898909,-0.0115707117872,-0.935528394029,-0.34840902646,1.0,0.0,0.0,0.0,1.0,0.0,0.0,0.0,1.0,0.0420906320214,-0.061834089458,0.00695340521634,1.21846967915e-07,0.0,0.0,0.0,1.21846967915e-07,0.0,0.0,0.0,1.21846967915e-07,0.5687857,0.1372931,11.2188076,9e-08,0.0,0.0,0.0,9e-08,0.0,0.0,0.0,9e-08
1531945835939887201,1711,1531945835937546667,base_link,0.0516739258059,0.00548892069629,-0.934870214562,-0.351165714537,1.0,0.0,0.0,0.0,1.0,0.0,0.0,0.0,1.0,-0.0291879586875,-0.0276351720095,-0.0457491837442,1.21846967915e-07,0.0,0.0,0.0,1.21846967915e-07,0.0,0.0,0.0,1.21846967915e-07,0.2549729,0.73549875,10.89518815,9e-08,0.0,0.0,0.0,9e-08,0.0,0.0,0.0,9e-08
1531945836254942096,1712,1531945836252413376,base_link,0.0486907941918,0.0245986922945,-0.93134398021,-0.360031250624,1.0,0.0,0.0,0.0,1.0,0.0,0.0,0.0,1.0,0.00806129164994,-0.0728892832994,-0.0782803893089,1.21846967915e-07,0.0,0.0,0.0,1.21846967915e-07,0.0,0.0,0.0,1.21846967915e-07,0.08825985,-0.3138128,11.24822755,9e-08,0.0,0.0,0.0,9e-08,0.0,0.0,0.0,9e-08
1531945836667968980,1713,1531945836665387659,base_link,0.0276517818502,0.0183624583084,-0.936992221501,-0.347769716812,1.0,0.0,0.0,0.0,1.0,0.0,0.0,0.0,1.0,0.162312522531,-0.085956916213,0.135403200984,1.21846967915e-07,0.0,0.0,0.0,1.21846967915e-07,0.0,0.0,0.0,1.21846967915e-07,0.4118793,0.81395195,11.6895268,9e-08,0.0,0.0,0.0,9e-08,0.0,0.0,0.0,9e-08
1531945837045735421,1714,1531945837044909685,base_link,0.01347211684,0.00835136429314,-0.942772566145,-0.333059522168,1.0,0.0,0.0,0.0,1.0,0.0,0.0,0.0,1.0,0.0358109921217,-0.021920889616,0.0467465929687,1.21846967915e-07,0.0,0.0,0.0,1.21846967915e-07,0.0,0.0,0.0,1.21846967915e-07,0.02941995,0.6080123,10.52253545,9e-08,0.0,0.0,0.0,9e-08,0.0,0.0,0.0,9e-08
1531945837451759815,1715,1531945837449618190,base_link,-0.000819718913964,-0.0142333982518,-0.941322559214,-0.337207025357,1.0,0.0,0.0,0.0,1.0,0.0,0.0,0.0,1.0,0.334672242403,-0.0234184656292,0.0188375413418,1.21846967915e-07,0.0,0.0,0.0,1.21846967915e-07,0.0,0.0,0.0,1.21846967915e-07,0.10787315,-0.61781895,11.0226746,9e-08,0.0,0.0,0.0,9e-08,0.0,0.0,0.0,9e-08
1531945837832995966,1716,1531945837832660831,base_link,-0.0246220610989,-0.0554123677983,-0.945250409467,-0.320663198706,1.0,0.0,0.0,0.0,1.0,0.0,0.0,0.0,1.0,0.0939909145236,-0.0525080040097,0.124389275908,1.21846967915e-07,0.0,0.0,0.0,1.21846967915e-07,0.0,0.0,0.0,1.21846967915e-07,0.38245935,-0.196133,11.81701325,9e-08,0.0,0.0,0.0,9e-08,0.0,0.0,0.0,9e-08
1531945838152208898,1717,1531945838151987897,base_link,-0.0233413392377,-0.0487528407251,-0.948186033151,-0.313083996621,1.0,0.0,0.0,0.0,1.0,0.0,0.0,0.0,1.0,-0.0441017821431,0.0671721026301,-0.0648295730352,1.21846967915e-07,0.0,0.0,0.0,1.21846967915e-07,0.0,0.0,0.0,1.21846967915e-07,0.24516625,1.0002783,9.5712904,9e-08,0.0,0.0,0.0,9e-08,0.0,0.0,0.0,9e-08
1531945838669490080,1718,1531945838668900808,base_link,-0.0097867783738,-0.095081543285,-0.922443701257,-0.374114069645,1.0,0.0,0.0,0.0,1.0,0.0,0.0,0.0,1.0,0.192495375872,0.0760047137737,-0.319455236197,1.21846967915e-07,0.0,0.0,0.0,1.21846967915e-07,0.0,0.0,0.0,1.21846967915e-07,-0.2745862,1.2748645,7.1392412,9e-08,0.0,0.0,0.0,9e-08,0.0,0.0,0.0,9e-08
1531945839050329019,1719,1531945839049853306,base_link,-0.0199821531015,-0.137694966326,-0.881684520793,-0.450858309894,1.0,0.0,0.0,0.0,1.0,0.0,0.0,0.0,1.0,0.231202751398,-0.0809026658535,-0.386468023062,1.21846967915e-07,0.0,0.0,0.0,1.21846967915e-07,0.0,0.0,0.0,1.21846967915e-07,-0.28439285,-0.36284605,8.1787461,9e-08,0.0,0.0,0.0,9e-08,0.0,0.0,0.0,9e-08
1531945839493806511,1720,1531945839491595895,base_link,-0.0390289427376,-0.12771817403,-0.856949490911,-0.497797528798,1.0,0.0,0.0,0.0,1.0,0.0,0.0,0.0,1.0,0.0954062193632,-0.12323641777,-0.0824945420027,1.21846967915e-07,0.0,0.0,0.0,1.21846967915e-07,0.0,0.0,0.0,1.21846967915e-07,0.2941995,-0.36284605,10.1793027,9e-08,0.0,0.0,0.0,9e-08,0.0,0.0,0.0,9e-08
1531945839858808849,1721,1531945839858387657,base_link,-0.0651239435057,-0.112876093682,-0.863130165011,-0.487877215808,1.0,0.0,0.0,0.0,1.0,0.0,0.0,0.0,1.0,-0.324599921703,-0.166725680232,0.161298930645,1.21846967915e-07,0.0,0.0,0.0,1.21846967915e-07,0.0,0.0,0.0,1.21846967915e-07,0.38245935,0.00980665,10.5519554,9e-08,0.0,0.0,0.0,9e-08,0.0,0.0,0.0,9e-08
1531945840352483726,1722,1531945840352183296,base_link,-0.038383372435,-0.0342159813956,-0.871251289202,-0.48813643011,1.0,0.0,0.0,0.0,1.0,0.0,0.0,0.0,1.0,-0.0386649481952,0.0543588623405,-0.118512183428,1.21846967915e-07,0.0,0.0,0.0,1.21846967915e-07,0.0,0.0,0.0,1.21846967915e-07,0.12748645,0.28439285,10.0616229,9e-08,0.0,0.0,0.0,9e-08,0.0,0.0,0.0,9e-08
1531945840787795712,1723,1531945840787587101,base_link,-0.0423740352827,-0.0336416991139,-0.848526218221,-0.526380028312,1.0,0.0,0.0,0.0,1.0,0.0,0.0,0.0,1.0,0.452964514494,-0.0524487420917,-0.265901714563,1.21846967915e-07,0.0,0.0,0.0,1.21846967915e-07,0.0,0.0,0.0,1.21846967915e-07,0.20593965,0.2745862,9.80665,9e-08,0.0,0.0,0.0,9e-08,0.0,0.0,0.0,9e-08
1531945841113868314,1724,1531945841113624262,base_link,-0.109718401614,-0.129907761084,-0.82420127074,-0.540164892665,1.0,0.0,0.0,0.0,1.0,0.0,0.0,0.0,1.0,0.580919802189,-0.063273370266,-0.104384146631,1.21846967915e-07,0.0,0.0,0.0,1.21846967915e-07,0.0,0.0,0.0,1.21846967915e-07,0.28439285,0.85317855,8.1787461,9e-08,0.0,0.0,0.0,9e-08,0.0,0.0,0.0,9e-08
1531945841497920810,1725,1531945841497485724,base_link,-0.154966195312,-0.209752795743,-0.775113915629,-0.575489062266,1.0,0.0,0.0,0.0,1.0,0.0,0.0,0.0,1.0,0.491386562586,-0.0666873529553,-0.467199653387,1.21846967915e-07,0.0,0.0,0.0,1.21846967915e-07,0.0,0.0,0.0,1.21846967915e-07,0.59820565,0.4707192,6.32528925,9e-08,0.0,0.0,0.0,9e-08,0.0,0.0,0.0,9e-08
1531945841832236107,1726,1531945841831983475,base_link,-0.21896850599,-0.265546559485,-0.705822028478,-0.619155135846,1.0,0.0,0.0,0.0,1.0,0.0,0.0,0.0,1.0,0.153981536627,-0.339634805918,-0.240681365132,1.21846967915e-07,0.0,0.0,0.0,1.21846967915e-07,0.0,0.0,0.0,1.21846967915e-07,1.7848103,0.0588399,10.99325465,9e-08,0.0,0.0,0.0,9e-08,0.0,0.0,0.0,9e-08
1531945842141149848,1727,1531945842140789133,base_link,-0.244520167247,-0.230789563069,-0.678970741088,-0.652644465337,1.0,0.0,0.0,0.0,1.0,0.0,0.0,0.0,1.0,-0.165027588606,-0.345049083233,-0.163348138332,1.21846967915e-07,0.0,0.0,0.0,1.21846967915e-07,0.0,0.0,0.0,1.21846967915e-07,1.7848103,1.12776475,9.9831697,9e-08,0.0,0.0,0.0,9e-08,0.0,0.0,0.0,9e-08
1531945842527495912,1728,1531945842527221094,base_link,-0.300040390962,-0.21863459856,-0.610400518813,-0.699704139431,1.0,0.0,0.0,0.0,1.0,0.0,0.0,0.0,1.0,0.388839513063,-0.436887472868,-0.343328028917,1.21846967915e-07,0.0,0.0,0.0,1.21846967915e-07,0.0,0.0,0.0,1.21846967915e-07,2.1770763,0.5295591,13.7685366,9e-08,0.0,0.0,0.0,9e-08,0.0,0.0,0.0,9e-08
1531945843003939126,1729,1531945843003148094,base_link,-0.37989133079,-0.179688016073,-0.512719495855,-0.748674503533,1.0,0.0,0.0,0.0,1.0,0.0,0.0,0.0,1.0,0.146634042263,-0.48033952713,-0.277845859528,1.21846967915e-07,0.0,0.0,0.0,1.21846967915e-07,0.0,0.0,0.0,1.21846967915e-07,2.61837555,0.87279185,13.73911665,9e-08,0.0,0.0,0.0,9e-08,0.0,0.0,0.0,9e-08
1531945843423830355,1730,1531945843423545419,base_link,-0.408592944973,-0.136120951738,-0.416184635637,-0.800820354934,1.0,0.0,0.0,0.0,1.0,0.0,0.0,0.0,1.0,-0.151275545359,-0.471955478191,-0.445494621992,1.21846967915e-07,0.0,0.0,0.0,1.21846967915e-07,0.0,0.0,0.0,1.21846967915e-07,2.9616083,1.3337044,14.5922952,9e-08,0.0,0.0,0.0,9e-08,0.0,0.0,0.0,9e-08
1531945843874933545,1731,1531945843874686804,base_link,-0.411179652328,-0.0622865252694,-0.290084545867,-0.861917999888,1.0,0.0,0.0,0.0,1.0,0.0,0.0,0.0,1.0,-0.199149623513,-0.533878982067,-0.360055923462,1.21846967915e-07,0.0,0.0,0.0,1.21846967915e-07,0.0,0.0,0.0,1.21846967915e-07,3.1185147,1.1571847,15.5141203,9e-08,0.0,0.0,0.0,9e-08,0.0,0.0,0.0,9e-08
1531945844279004211,1732,1531945844278287519,base_link,-0.386721523574,0.0185342297524,-0.18554068045,-0.903148715013,1.0,0.0,0.0,0.0,1.0,0.0,0.0,0.0,1.0,-0.451559871435,-0.522698998451,-0.333133935928,1.21846967915e-07,0.0,0.0,0.0,1.21846967915e-07,0.0,0.0,0.0,1.21846967915e-07,3.44213415,0.8825985,16.6909183,9e-08,0.0,0.0,0.0,9e-08,0.0,0.0,0.0,9e-08
1531945844637397749,1733,1531945844636995478,base_link,-0.311636424636,0.0917915937881,-0.0996024008743,-0.940497955282,1.0,0.0,0.0,0.0,1.0,0.0,0.0,0.0,1.0,-0.563803911209,-0.414558053017,-0.257441759109,1.21846967915e-07,0.0,0.0,0.0,1.21846967915e-07,0.0,0.0,0.0,1.21846967915e-07,2.745862,0.75511205,14.99436785,9e-08,0.0,0.0,0.0,9e-08,0.0,0.0,0.0,9e-08
1531945845070719382,1734,1531945845070451287,base_link,-0.207067329949,0.156503156763,-0.0200537052639,-0.965519410316,1.0,0.0,0.0,0.0,1.0,0.0,0.0,0.0,1.0,-0.75053447485,-0.224966794252,-0.162372797728,1.21846967915e-07,0.0,0.0,0.0,1.21846967915e-07,0.0,0.0,0.0,1.21846967915e-07,2.55953565,0.71588545,13.87640975,9e-08,0.0,0.0,0.0,9e-08,0.0,0.0,0.0,9e-08
1531945845440301076,1735,1531945845439908154,base_link,-0.0726361308722,0.174048464594,0.0392294700863,-0.981270693102,1.0,0.0,0.0,0.0,1.0,0.0,0.0,0.0,1.0,-0.768689393997,-0.0400445051491,-0.121743895113,1.21846967915e-07,0.0,0.0,0.0,1.21846967915e-07,0.0,0.0,0.0,1.21846967915e-07,2.65760215,0.30400615,9.60071035,9e-08,0.0,0.0,0.0,9e-08,0.0,0.0,0.0,9e-08
1531945845897739336,1736,1531945845897309340,base_link,0.0618157686749,0.170966679897,0.0657945725682,-0.981132141624,1.0,0.0,0.0,0.0,1.0,0.0,0.0,0.0,1.0,-0.473071783781,0.00452593388036,0.123472392559,1.21846967915e-07,0.0,0.0,0.0,1.21846967915e-07,0.0,0.0,0.0,1.21846967915e-07,3.03025485,0.32361945,11.34629405,9e-08,0.0,0.0,0.0,9e-08,0.0,0.0,0.0,9e-08
1531945846372092502,1737,1531945846371794633,base_link,0.146459126221,0.157042117274,0.0410800293641,-0.975807321624,1.0,0.0,0.0,0.0,1.0,0.0,0.0,0.0,1.0,-0.343727529049,0.136724814773,0.147786319256,1.21846967915e-07,0.0,0.0,0.0,1.21846967915e-07,0.0,0.0,0.0,1.21846967915e-07,3.0400615,0.6276256,12.77806495,9e-08,0.0,0.0,0.0,9e-08,0.0,0.0,0.0,9e-08
1531945846652147814,1738,1531945846651849208,base_link,0.153759901276,0.135710500586,0.0243362725395,-0.978441770689,1.0,0.0,0.0,0.0,1.0,0.0,0.0,0.0,1.0,-0.0345376245677,0.0630933493376,0.2084197402,1.21846967915e-07,0.0,0.0,0.0,1.21846967915e-07,0.0,0.0,0.0,1.21846967915e-07,2.157463,0.16671305,5.2171378,9e-08,0.0,0.0,0.0,9e-08,0.0,0.0,0.0,9e-08
1531945846948117557,1739,1531945846947844371,base_link,0.180020792317,0.125855159562,0.00707976068396,-0.975552597318,1.0,0.0,0.0,0.0,1.0,0.0,0.0,0.0,1.0,-0.0949210226536,0.0765166431665,0.0825661346316,1.21846967915e-07,0.0,0.0,0.0,1.21846967915e-07,0.0,0.0,0.0,1.21846967915e-07,2.745862,0.02941995,8.1199062,9e-08,0.0,0.0,0.0,9e-08,0.0,0.0,0.0,9e-08
1531945847454440484,1740,1531945847453824351,base_link,0.0993876734874,0.110988686151,-0.0386169569572,-0.98808518486,1.0,0.0,0.0,0.0,1.0,0.0,0.0,0.0,1.0,0.676577687263,0.0232764557004,0.221316635609,1.21846967915e-07,0.0,0.0,0.0,1.21846967915e-07,0.0,0.0,0.0,1.21846967915e-07,2.6674088,-0.2157463,9.3555441,9e-08,0.0,0.0,0.0,9e-08,0.0,0.0,0.0,9e-08
1531945847820839516,1741,1531945847820356695,base_link,0.0155619573889,0.0938279108924,-0.0937473011072,-0.99104267928,1.0,0.0,0.0,0.0,1.0,0.0,0.0,0.0,1.0,0.104333803058,0.04722905159,0.246770992875,1.21846967915e-07,0.0,0.0,0.0,1.21846967915e-07,0.0,0.0,0.0,1.21846967915e-07,2.34378935,0.0196133,8.69849855,9e-08,0.0,0.0,0.0,9e-08,0.0,0.0,0.0,9e-08
1531945848144399566,1742,1531945848144147574,base_link,0.0225309755841,0.0870434253111,-0.126900240652,-0.98783203338,1.0,0.0,0.0,0.0,1.0,0.0,0.0,0.0,1.0,-0.203826129436,0.082915648818,0.11891271174,1.21846967915e-07,0.0,0.0,0.0,1.21846967915e-07,0.0,0.0,0.0,1.21846967915e-07,2.28494945,0.4118793,8.91424485,9e-08,0.0,0.0,0.0,9e-08,0.0,0.0,0.0,9e-08
1531945848602391496,1743,1531945848602160155,base_link,-0.0211630550361,0.0534017781024,-0.114235665667,-0.99179160507,1.0,0.0,0.0,0.0,1.0,0.0,0.0,0.0,1.0,0.43000009656,0.111790925264,-0.149747207761,1.21846967915e-07,0.0,0.0,0.0,1.21846967915e-07,0.0,0.0,0.0,1.21846967915e-07,1.85345685,0.4118793,6.48219565,9e-08,0.0,0.0,0.0,9e-08,0.0,0.0,0.0,9e-08
1531945849022857110,1744,1531945849022683203,base_link,-0.0744396848172,0.0332447202879,-0.10020243673,-0.991621396285,1.0,0.0,0.0,0.0,1.0,0.0,0.0,0.0,1.0,0.224781632423,0.0714760795236,-0.0340541377664,1.21846967915e-07,0.0,0.0,0.0,1.21846967915e-07,0.0,0.0,0.0,1.21846967915e-07,2.0986231,-0.00980665,7.01175475,9e-08,0.0,0.0,0.0,9e-08,0.0,0.0,0.0,9e-08
1531945849527943802,1745,1531945849521459926,base_link,-0.0843747968003,0.0278735725128,-0.100905435002,-0.990919800391,1.0,0.0,0.0,0.0,1.0,0.0,0.0,0.0,1.0,-0.102290675044,0.0232874844223,0.00520424125716,1.21846967915e-07,0.0,0.0,0.0,1.21846967915e-07,0.0,0.0,0.0,1.21846967915e-07,2.3928226,0.784532,9.4928372,9e-08,0.0,0.0,0.0,9e-08,0.0,0.0,0.0,9e-08
1531945849884179036,1746,1531945849883944877,base_link,-0.0597723593226,0.0339202083104,-0.0849610520119,-0.994011219338,1.0,0.0,0.0,0.0,1.0,0.0,0.0,0.0,1.0,-0.159579336643,-0.0678225755692,-0.111504174769,1.21846967915e-07,0.0,0.0,0.0,1.21846967915e-07,0.0,0.0,0.0,1.21846967915e-07,2.83412185,0.3530394,11.9052731,9e-08,0.0,0.0,0.0,9e-08,0.0,0.0,0.0,9e-08
1531945850254442685,1747,1531945850254102236,base_link,-0.0602307153483,0.0467245834959,-0.0671776561149,-0.994824726645,1.0,0.0,0.0,0.0,1.0,0.0,0.0,0.0,1.0,0.0392143391073,-0.0812402814627,-0.0876915380359,1.21846967915e-07,0.0,0.0,0.0,1.21846967915e-07,0.0,0.0,0.0,1.21846967915e-07,2.2163029,0.55897905,12.356379,9e-08,0.0,0.0,0.0,9e-08,0.0,0.0,0.0,9e-08
1531945850540408129,1748,1531945850540137217,base_link,-0.0558535933441,0.0518763626761,-0.0633292634981,-0.99507719474,1.0,0.0,0.0,0.0,1.0,0.0,0.0,0.0,1.0,0.00633199186996,-0.0326538793743,-0.0241119079292,1.21846967915e-07,0.0,0.0,0.0,1.21846967915e-07,0.0,0.0,0.0,1.21846967915e-07,1.7455837,0.18632635,10.03220295,9e-08,0.0,0.0,0.0,9e-08,0.0,0.0,0.0,9e-08
1531945850971507748,1749,1531945850970756224,base_link,-0.0252559892344,0.0629828006152,-0.0510264153131,-0.996389284755,1.0,0.0,0.0,0.0,1.0,0.0,0.0,0.0,1.0,-0.0641256645322,-0.0517888404429,-0.0452009551227,1.21846967915e-07,0.0,0.0,0.0,1.21846967915e-07,0.0,0.0,0.0,1.21846967915e-07,1.4513842,0.3726527,10.787315,9e-08,0.0,0.0,0.0,9e-08,0.0,0.0,0.0,9e-08
1531945851275429264,1750,1531945851274356659,base_link,-0.0273275441549,0.0683621470428,-0.0524091640322,-0.995908179356,1.0,0.0,0.0,0.0,1.0,0.0,0.0,0.0,1.0,-0.0187451653183,-0.0205252375454,0.0221314281225,1.21846967915e-07,0.0,0.0,0.0,1.21846967915e-07,0.0,0.0,0.0,1.21846967915e-07,1.42196425,0.0980665,11.67972015,9e-08,0.0,0.0,0.0,9e-08,0.0,0.0,0.0,9e-08
1531945851584009022,1751,1531945851583426858,base_link,-0.0233865551113,0.0696427157452,-0.0652034383951,-0.995164043163,1.0,0.0,0.0,0.0,1.0,0.0,0.0,0.0,1.0,-0.0571704097092,-0.001818228513,0.0663813725114,1.21846967915e-07,0.0,0.0,0.0,1.21846967915e-07,0.0,0.0,0.0,1.21846967915e-07,1.63771055,0.34323275,11.1011278,9e-08,0.0,0.0,0.0,9e-08,0.0,0.0,0.0,9e-08
1531945852134915407,1752,1531945852134628711,base_link,-0.0420079159696,0.0456481118131,-0.054291454998,-0.996596218535,1.0,0.0,0.0,0.0,1.0,0.0,0.0,0.0,1.0,0.15256768465,0.109655976295,-0.165140748024,1.21846967915e-07,0.0,0.0,0.0,1.21846967915e-07,0.0,0.0,0.0,1.21846967915e-07,0.9022118,0.32361945,7.7276402,9e-08,0.0,0.0,0.0,9e-08,0.0,0.0,0.0,9e-08
1531945852500045453,1753,1531945852499831367,base_link,-0.0675298062016,0.0319697110951,-0.0375241756496,-0.996498669888,1.0,0.0,0.0,0.0,1.0,0.0,0.0,0.0,1.0,-0.00331607367843,0.026697954163,-0.0866009220481,1.21846967915e-07,0.0,0.0,0.0,1.21846967915e-07,0.0,0.0,0.0,1.21846967915e-07,0.89240515,0.32361945,8.7475318,9e-08,0.0,0.0,0.0,9e-08,0.0,0.0,0.0,9e-08
1531945852894565764,1754,1531945852894298309,base_link,-0.0625302823623,0.0261022410195,-0.0258880865169,-0.997365752258,1.0,0.0,0.0,0.0,1.0,0.0,0.0,0.0,1.0,-0.0499656461179,0.0151229780167,-0.0562842860818,1.21846967915e-07,0.0,0.0,0.0,1.21846967915e-07,0.0,0.0,0.0,1.21846967915e-07,0.99047165,1.21778180883e-15,9.9439431,9e-08,0.0,0.0,0.0,9e-08,0.0,0.0,0.0,9e-08
1531945853301758296,1755,1531945853301531596,base_link,-0.0171769510033,0.00989040810217,-0.0233865292412,-0.999529990762,1.0,0.0,0.0,0.0,1.0,0.0,0.0,0.0,1.0,-0.365283429623,0.141884982586,-0.068722769618,1.21846967915e-07,0.0,0.0,0.0,1.21846967915e-07,0.0,0.0,0.0,1.21846967915e-07,1.04931155,0.61781895,8.7083052,9e-08,0.0,0.0,0.0,9e-08,0.0,0.0,0.0,9e-08
1531945853736798856,1756,1531945853736507326,base_link,-0.0041086469108,-0.0241751365642,-0.0124257931432,-0.999622069313,1.0,0.0,0.0,0.0,1.0,0.0,0.0,0.0,1.0,0.107359692454,0.18350225687,0.0143069317564,1.21846967915e-07,0.0,0.0,0.0,1.21846967915e-07,0.0,0.0,0.0,1.21846967915e-07,1.5886773,0.12748645,6.99214145,9e-08,0.0,0.0,0.0,9e-08,0.0,0.0,0.0,9e-08
1531945854015541898,1757,1531945854015235768,base_link,-0.00937417825097,-0.0519790089347,-0.019837340588,-0.99840712504,1.0,0.0,0.0,0.0,1.0,0.0,0.0,0.0,1.0,-0.0540393181145,0.262672156096,0.0175223108381,1.21846967915e-07,0.0,0.0,0.0,1.21846967915e-07,0.0,0.0,0.0,1.21846967915e-07,2.2947561,0.392266,6.7862018,9e-08,0.0,0.0,0.0,9e-08,0.0,0.0,0.0,9e-08
1531945854296153794,1758,1531945854295717715,base_link,-0.00855332651231,-0.09199326425,-0.0194265813301,-0.99553336854,1.0,0.0,0.0,0.0,1.0,0.0,0.0,0.0,1.0,0.0814710631967,0.29865783453,-0.0730896443129,1.21846967915e-07,0.0,0.0,0.0,1.21846967915e-07,0.0,0.0,0.0,1.21846967915e-07,2.7066354,0.6080123,6.14876955,9e-08,0.0,0.0,0.0,9e-08,0.0,0.0,0.0,9e-08
1531945854719058228,1759,1531945854714728782,base_link,-0.0218308214903,-0.117276214928,0.00726417730505,-0.992832783692,1.0,0.0,0.0,0.0,1.0,0.0,0.0,0.0,1.0,0.147211834788,-0.111432030797,0.0117111830041,1.21846967915e-07,0.0,0.0,0.0,1.21846967915e-07,0.0,0.0,0.0,1.21846967915e-07,3.03025485,-0.3334261,9.3947707,9e-08,0.0,0.0,0.0,9e-08,0.0,0.0,0.0,9e-08
1531945855144645600,1760,1531945855144090008,base_link,-0.00715775487532,-0.074511106743,-0.00105718007241,-0.997193934943,1.0,0.0,0.0,0.0,1.0,0.0,0.0,0.0,1.0,-0.107356093824,-0.26517701149,-0.100909881294,1.21846967915e-07,0.0,0.0,0.0,1.21846967915e-07,0.0,0.0,0.0,1.21846967915e-07,2.59876225,0.4511059,14.4746154,9e-08,0.0,0.0,0.0,9e-08,0.0,0.0,0.0,9e-08
1531945855501828803,1761,1531945855501235402,base_link,-0.0198981349251,-0.0118760895463,0.015624405582,-0.999609374043,1.0,0.0,0.0,0.0,1.0,0.0,0.0,0.0,1.0,0.112358242273,-0.367214232683,-0.0462327823043,1.21846967915e-07,0.0,0.0,0.0,1.21846967915e-07,0.0,0.0,0.0,1.21846967915e-07,0.392266,0.0392266,15.91619295,9e-08,0.0,0.0,0.0,9e-08,0.0,0.0,0.0,9e-08
1531945855910202791,1762,1531945855909895766,base_link,-0.0300209933098,0.0475443736777,0.0167718007271,-0.998277005241,1.0,0.0,0.0,0.0,1.0,0.0,0.0,0.0,1.0,0.0422336384654,-0.233908325434,0.0934140533209,1.21846967915e-07,0.0,0.0,0.0,1.21846967915e-07,0.0,0.0,0.0,1.21846967915e-07,-0.7453054,0.1176798,13.9450563,9e-08,0.0,0.0,0.0,9e-08,0.0,0.0,0.0,9e-08
1531945856408280398,1763,1531945856407951218,base_link,0.0157215299569,0.0801095760544,0.0213992672846,-0.996432316156,1.0,0.0,0.0,0.0,1.0,0.0,0.0,0.0,1.0,-0.253430038691,-0.0458220690489,-0.100477673113,1.21846967915e-07,0.0,0.0,0.0,1.21846967915e-07,0.0,0.0,0.0,1.21846967915e-07,-1.0198916,0.3334261,12.1406327,9e-08,0.0,0.0,0.0,9e-08,0.0,0.0,0.0,9e-08
1531945856762714425,1764,1531945856762298707,base_link,-0.00952568728453,0.0826618079629,0.0328090692783,-0.99599189342,1.0,0.0,0.0,0.0,1.0,0.0,0.0,0.0,1.0,0.294453173876,-0.00290676951408,0.0139481220394,1.21846967915e-07,0.0,0.0,0.0,1.21846967915e-07,0.0,0.0,0.0,1.21846967915e-07,-1.04931155,-0.4511059,8.63965865,9e-08,0.0,0.0,0.0,9e-08,0.0,0.0,0.0,9e-08
1531945857277630421,1765,1531945857273977808,base_link,-0.0224503581107,0.0649172508201,0.0123131589958,-0.997562087332,1.0,0.0,0.0,0.0,1.0,0.0,0.0,0.0,1.0,0.021677095443,0.110427394509,-0.032464236021,1.21846967915e-07,0.0,0.0,0.0,1.21846967915e-07,0.0,0.0,0.0,1.21846967915e-07,-0.53936575,0.6080123,8.1199062,9e-08,0.0,0.0,0.0,9e-08,0.0,0.0,0.0,9e-08
1531945857734664649,1766,1531945857734025338,base_link,-0.0395935060344,0.0274523708474,0.0242334950062,-0.998544670676,1.0,0.0,0.0,0.0,1.0,0.0,0.0,0.0,1.0,0.028413919732,0.190675765276,-0.063285574317,1.21846967915e-07,0.0,0.0,0.0,1.21846967915e-07,0.0,0.0,0.0,1.21846967915e-07,-0.46091255,0.2745862,5.4721107,9e-08,0.0,0.0,0.0,9e-08,0.0,0.0,0.0,9e-08
1531945858252785045,1767,1531945858252053594,base_link,0.049508028175,-0.0346518146023,0.0442366189323,-0.997191721003,1.0,0.0,0.0,0.0,1.0,0.0,0.0,0.0,1.0,-0.287934243679,0.301495969296,-0.117115490139,1.21846967915e-07,0.0,0.0,0.0,1.21846967915e-07,0.0,0.0,0.0,1.21846967915e-07,-0.14709975,-0.2549729,2.7066354,9e-08,0.0,0.0,0.0,9e-08,0.0,0.0,0.0,9e-08
1531945858609800713,1768,1531945858609445697,base_link,0.00864539803753,-0.068048249663,0.0532530829511,-0.996222265344,1.0,0.0,0.0,0.0,1.0,0.0,0.0,0.0,1.0,0.605724930763,0.209933802485,0.154196351767,1.21846967915e-07,0.0,0.0,0.0,1.21846967915e-07,0.0,0.0,0.0,1.21846967915e-07,0.40207265,-0.8433719,7.3157609,9e-08,0.0,0.0,0.0,9e-08,0.0,0.0,0.0,9e-08
1531945859020962520,1769,1531945859020661353,base_link,0.026419969652,-0.121324515875,-0.00243947146899,-0.992258230518,1.0,0.0,0.0,0.0,1.0,0.0,0.0,0.0,1.0,-0.10983504355,0.311292052269,0.147220179439,1.21846967915e-07,0.0,0.0,0.0,1.21846967915e-07,0.0,0.0,0.0,1.21846967915e-07,1.01008495,0.4314926,3.8442068,9e-08,0.0,0.0,0.0,9e-08,0.0,0.0,0.0,9e-08
1531945859399951334,1770,1531945859399631406,base_link,0.0487488068258,-0.169206118339,0.00522639114642,-0.98436046659,1.0,0.0,0.0,0.0,1.0,0.0,0.0,0.0,1.0,-0.0423480980098,0.120601721108,-0.0671107769012,1.21846967915e-07,0.0,0.0,0.0,1.21846967915e-07,0.0,0.0,0.0,1.21846967915e-07,1.8044236,-0.7256921,-0.7256921,9e-08,0.0,0.0,0.0,9e-08,0.0,0.0,0.0,9e-08
1531945859842452523,1771,1531945859842039399,base_link,0.016369329038,-0.133394086437,0.00100368156345,-0.990927371402,1.0,0.0,0.0,0.0,1.0,0.0,0.0,0.0,1.0,0.0332075171173,-0.392224609852,0.0749829486012,1.21846967915e-07,0.0,0.0,0.0,1.21846967915e-07,0.0,0.0,0.0,1.21846967915e-07,1.36312435,0.75511205,16.3967188,9e-08,0.0,0.0,0.0,9e-08,0.0,0.0,0.0,9e-08
1531945860173427323,1772,1531945860173050984,base_link,0.0012705640928,-0.0617517316235,-0.010317059066,-0.998037407916,1.0,0.0,0.0,0.0,1.0,0.0,0.0,0.0,1.0,0.0141820963472,-0.385200530291,0.237373024225,1.21846967915e-07,0.0,0.0,0.0,1.21846967915e-07,0.0,0.0,0.0,1.21846967915e-07,1.0198916,-0.6668522,24.36952525,9e-08,0.0,0.0,0.0,9e-08,0.0,0.0,0.0,9e-08
1531945860664249775,1773,1531945860663692486,base_link,-0.0139644982279,-0.00776635746901,0.0253035699038,-0.999552102609,1.0,0.0,0.0,0.0,1.0,0.0,0.0,0.0,1.0,0.450087964535,-0.25183314085,-0.193290874362,1.21846967915e-07,0.0,0.0,0.0,1.21846967915e-07,0.0,0.0,0.0,1.21846967915e-07,-1.81423025,-0.59820565,12.0229529,9e-08,0.0,0.0,0.0,9e-08,0.0,0.0,0.0,9e-08
1531945861094434528,1774,1531945861093818427,base_link,-0.099459905888,0.0436489858277,0.023108442069,-0.993815120162,1.0,0.0,0.0,0.0,1.0,0.0,0.0,0.0,1.0,0.4034088552,-0.191616520286,0.09021730721,1.21846967915e-07,0.0,0.0,0.0,1.21846967915e-07,0.0,0.0,0.0,1.21846967915e-07,-1.4906108,0.2941995,17.8284897,9e-08,0.0,0.0,0.0,9e-08,0.0,0.0,0.0,9e-08
1531945861559717342,1775,1531945861555795097,base_link,-0.165489877403,0.0662095011962,0.0473541044859,-0.982846372134,1.0,0.0,0.0,0.0,1.0,0.0,0.0,0.0,1.0,0.436582386494,-0.100049830973,-0.293074369431,1.21846967915e-07,0.0,0.0,0.0,1.21846967915e-07,0.0,0.0,0.0,1.21846967915e-07,-1.2944778,0.36284605,11.44436055,9e-08,0.0,0.0,0.0,9e-08,0.0,0.0,0.0,9e-08
1531945861951622588,1776,1531945861951204117,base_link,-0.249462131582,0.0804309663917,0.0958626579201,-0.960265512954,1.0,0.0,0.0,0.0,1.0,0.0,0.0,0.0,1.0,0.391514509916,-0.0919638052583,-0.200239032507,1.21846967915e-07,0.0,0.0,0.0,1.21846967915e-07,0.0,0.0,0.0,1.21846967915e-07,-0.83356525,0.0588399,9.22805765,9e-08,0.0,0.0,0.0,9e-08,0.0,0.0,0.0,9e-08
1531945862360299184,1777,1531945862359958638,base_link,-0.309850893744,0.0951638122586,0.130091855377,-0.937023148939,1.0,0.0,0.0,0.0,1.0,0.0,0.0,0.0,1.0,0.137648224831,-0.0989331230521,-0.215775251389,1.21846967915e-07,0.0,0.0,0.0,1.21846967915e-07,0.0,0.0,0.0,1.21846967915e-07,-0.44129925,0.3138128,9.7478101,9e-08,0.0,0.0,0.0,9e-08,0.0,0.0,0.0,9e-08
1531945862769529866,1778,1531945862769180325,base_link,-0.329493627824,0.099068409251,0.182106692471,-0.921117013234,1.0,0.0,0.0,0.0,1.0,0.0,0.0,0.0,1.0,-0.0134049300104,-0.124064520001,-0.32523009181,1.21846967915e-07,0.0,0.0,0.0,1.21846967915e-07,0.0,0.0,0.0,1.21846967915e-07,-0.26477955,0.6080123,9.75761675,9e-08,0.0,0.0,0.0,9e-08,0.0,0.0,0.0,9e-08
1531945863165829486,1779,1531945863165528287,base_link,-0.344114798598,0.109676249431,0.245162073179,-0.899695328192,1.0,0.0,0.0,0.0,1.0,0.0,0.0,0.0,1.0,0.107100836933,-0.193849802017,-0.314706116915,1.21846967915e-07,0.0,0.0,0.0,1.21846967915e-07,0.0,0.0,0.0,1.21846967915e-07,0.02941995,0.1765197,9.80665,9e-08,0.0,0.0,0.0,9e-08,0.0,0.0,0.0,9e-08
1531945863554151784,1780,1531945863553799713,base_link,-0.356857376523,0.13959747433,0.306266929092,-0.871416046517,1.0,0.0,0.0,0.0,1.0,0.0,0.0,0.0,1.0,-0.0529622770846,-0.285796582699,-0.229614794254,1.21846967915e-07,0.0,0.0,0.0,1.21846967915e-07,0.0,0.0,0.0,1.21846967915e-07,0.38245935,0.36284605,11.26784085,9e-08,0.0,0.0,0.0,9e-08,0.0,0.0,0.0,9e-08
1531945863984024773,1781,1531945863983762889,base_link,-0.337944989086,0.157787379685,0.384908257009,-0.844240463879,1.0,0.0,0.0,0.0,1.0,0.0,0.0,0.0,1.0,-0.0614567697048,-0.258495241404,-0.360566973686,1.21846967915e-07,0.0,0.0,0.0,1.21846967915e-07,0.0,0.0,0.0,1.21846967915e-07,0.2941995,0.392266,11.6699135,9e-08,0.0,0.0,0.0,9e-08,0.0,0.0,0.0,9e-08
1531945864374668108,1782,1531945864374378435,base_link,-0.311089470774,0.176551672745,0.463878338174,-0.810475006029,1.0,0.0,0.0,0.0,1.0,0.0,0.0,0.0,1.0,-0.144272640347,-0.257645636797,-0.375295817852,1.21846967915e-07,0.0,0.0,0.0,1.21846967915e-07,0.0,0.0,0.0,1.21846967915e-07,0.36284605,0.91201845,14.7884282,9e-08,0.0,0.0,0.0,9e-08,0.0,0.0,0.0,9e-08
1531945864832989603,1783,1531945864832104255,base_link,-0.27679012853,0.187203044005,0.5642088872,-0.754990448065,1.0,0.0,0.0,0.0,1.0,0.0,0.0,0.0,1.0,-0.269935637712,-0.302338987589,-0.386915445328,1.21846967915e-07,0.0,0.0,0.0,1.21846967915e-07,0.0,0.0,0.0,1.21846967915e-07,0.0,0.588399,13.34685065,9e-08,0.0,0.0,0.0,9e-08,0.0,0.0,0.0,9e-08
1531945865263207780,1784,1531945865263018378,base_link,-0.20894246952,0.177822837374,0.645797863401,-0.712507685969,1.0,0.0,0.0,0.0,1.0,0.0,0.0,0.0,1.0,-0.33561193943,-0.286736637354,-0.30195954442,1.21846967915e-07,0.0,0.0,0.0,1.21846967915e-07,0.0,0.0,0.0,1.21846967915e-07,-0.392266,0.22555295,13.1605243,9e-08,0.0,0.0,0.0,9e-08,0.0,0.0,0.0,9e-08
1531945865762419557,1785,1531945865760396197,base_link,0.111481288254,-0.135153259082,-0.70731652015,0.684842214858,1.0,0.0,0.0,0.0,1.0,0.0,0.0,0.0,1.0,-0.436905711889,-0.128091201186,-0.171368345618,1.21846967915e-07,0.0,0.0,0.0,1.21846967915e-07,0.0,0.0,0.0,1.21846967915e-07,-0.5295591,0.40207265,10.44408225,9e-08,0.0,0.0,0.0,9e-08,0.0,0.0,0.0,9e-08
1531945866103624011,1786,1531945866102977304,base_link,0.0388104588779,-0.0741691546578,-0.737605440655,0.670023058331,1.0,0.0,0.0,0.0,1.0,0.0,0.0,0.0,1.0,-0.366137176752,-0.0458490736783,-0.106681346893,1.21846967915e-07,0.0,0.0,0.0,1.21846967915e-07,0.0,0.0,0.0,1.21846967915e-07,-0.2745862,0.04903325,9.9439431,9e-08,0.0,0.0,0.0,9e-08,0.0,0.0,0.0,9e-08
1531945866582590405,1787,1531945866581863276,base_link,-0.0248003295396,-0.00564296380036,-0.738739552232,0.673510931302,1.0,0.0,0.0,0.0,1.0,0.0,0.0,0.0,1.0,-0.263990521431,0.0507367253304,0.0898125991225,1.21846967915e-07,0.0,0.0,0.0,1.21846967915e-07,0.0,0.0,0.0,1.21846967915e-07,0.04903325,0.02941995,9.65955025,9e-08,0.0,0.0,0.0,9e-08,0.0,0.0,0.0,9e-08
1531945867012660928,1788,1531945867012369654,base_link,-0.0513753932533,0.058791579175,-0.736365942124,0.672063478004,1.0,0.0,0.0,0.0,1.0,0.0,0.0,0.0,1.0,-0.152933835983,0.154968366027,-0.0170440599322,1.21846967915e-07,0.0,0.0,0.0,1.21846967915e-07,0.0,0.0,0.0,1.21846967915e-07,0.8041453,0.10787315,9.4928372,9e-08,0.0,0.0,0.0,9e-08,0.0,0.0,0.0,9e-08
1531945867255279629,1789,1531945867254975069,base_link,-0.0466742808536,0.076364349141,-0.73547465274,0.671615241686,1.0,0.0,0.0,0.0,1.0,0.0,0.0,0.0,1.0,-0.0762935951352,0.126214072108,0.0546830967069,1.21846967915e-07,0.0,0.0,0.0,1.21846967915e-07,0.0,0.0,0.0,1.21846967915e-07,1.02969825,0.1372931,7.1392412,9e-08,0.0,0.0,0.0,9e-08,0.0,0.0,0.0,9e-08
1531945867753071116,1790,1531945867752500221,base_link,-0.0294052095595,0.0959286302902,-0.71300592448,0.693942060404,1.0,0.0,0.0,0.0,1.0,0.0,0.0,0.0,1.0,-0.0270580034703,0.0723201110959,0.143217980862,1.21846967915e-07,0.0,0.0,0.0,1.21846967915e-07,0.0,0.0,0.0,1.21846967915e-07,1.2160246,0.24516625,7.9433865,9e-08,0.0,0.0,0.0,9e-08,0.0,0.0,0.0,9e-08
1531945868239360025,1791,1531945868238819673,base_link,-0.0261150263768,0.0858377556739,-0.701921787977,0.706580277577,1.0,0.0,0.0,0.0,1.0,0.0,0.0,0.0,1.0,0.0478853173554,-0.0986754223704,0.0262268222868,1.21846967915e-07,0.0,0.0,0.0,1.21846967915e-07,0.0,0.0,0.0,1.21846967915e-07,0.83356525,0.3334261,10.93441475,9e-08,0.0,0.0,0.0,9e-08,0.0,0.0,0.0,9e-08
1531945868636861398,1792,1531945868636472254,base_link,-0.00103801332204,-0.0249158857231,0.700339402779,-0.713374265082,1.0,0.0,0.0,0.0,1.0,0.0,0.0,0.0,1.0,0.151382371783,-0.101655855775,0.0639417096972,1.21846967915e-07,0.0,0.0,0.0,1.21846967915e-07,0.0,0.0,0.0,1.21846967915e-07,0.588399,-0.30400615,13.5724036,9e-08,0.0,0.0,0.0,9e-08,0.0,0.0,0.0,9e-08
1531945868952450274,1793,1531945868951986502,base_link,0.0159998547447,-0.0157682525241,0.690470245524,-0.723011899561,1.0,0.0,0.0,0.0,1.0,0.0,0.0,0.0,1.0,-0.0670234113932,-0.0977439060807,0.045719217509,1.21846967915e-07,0.0,0.0,0.0,1.21846967915e-07,0.0,0.0,0.0,1.21846967915e-07,0.4707192,0.0784532,12.1994726,9e-08,0.0,0.0,0.0,9e-08,0.0,0.0,0.0,9e-08
1531945869278284587,1794,1531945869277571769,base_link,0.0459283274724,-0.0260461931115,0.689522287554,-0.722337316997,1.0,0.0,0.0,0.0,1.0,0.0,0.0,0.0,1.0,-0.111840412021,-0.069041736424,-0.0604337751865,1.21846967915e-07,0.0,0.0,0.0,1.21846967915e-07,0.0,0.0,0.0,1.21846967915e-07,0.16671305,0.16671305,12.9251647,9e-08,0.0,0.0,0.0,9e-08,0.0,0.0,0.0,9e-08
1531945869612507968,1795,1531945869612221753,base_link,0.0672135238773,-0.0347556132061,0.68606647523,-0.723593242868,1.0,0.0,0.0,0.0,1.0,0.0,0.0,0.0,1.0,-0.152513995767,-0.0565742887557,0.0486598163843,1.21846967915e-07,0.0,0.0,0.0,1.21846967915e-07,0.0,0.0,0.0,1.21846967915e-07,0.46091255,-0.1372931,10.40485565,9e-08,0.0,0.0,0.0,9e-08,0.0,0.0,0.0,9e-08
1531945870023181448,1796,1531945870022902659,base_link,0.0101111668387,0.021182157973,0.679683547036,-0.733129835962,1.0,0.0,0.0,0.0,1.0,0.0,0.0,0.0,1.0,0.382693558931,0.0265730749816,0.0139624942094,1.21846967915e-07,0.0,0.0,0.0,1.21846967915e-07,0.0,0.0,0.0,1.21846967915e-07,0.6668522,0.18632635,9.30651085,9e-08,0.0,0.0,0.0,9e-08,0.0,0.0,0.0,9e-08
1531945870339160525,1797,1531945870338844791,base_link,-0.0268012052761,0.0484037546093,0.672846463323,-0.737710247136,1.0,0.0,0.0,0.0,1.0,0.0,0.0,0.0,1.0,0.11966727674,0.0370987802744,0.0597869418561,1.21846967915e-07,0.0,0.0,0.0,1.21846967915e-07,0.0,0.0,0.0,1.21846967915e-07,0.7453054,-0.1765197,7.9237732,9e-08,0.0,0.0,0.0,9e-08,0.0,0.0,0.0,9e-08
1531945870763975178,1798,1531945870763407740,base_link,-0.0321031085731,0.0478223679054,0.669331869624,-0.740727520653,1.0,0.0,0.0,0.0,1.0,0.0,0.0,0.0,1.0,-0.0630344450474,0.0388165190816,-0.0644840523601,1.21846967915e-07,0.0,0.0,0.0,1.21846967915e-07,0.0,0.0,0.0,1.21846967915e-07,0.7060788,0.28439285,9.7870367,9e-08,0.0,0.0,0.0,9e-08,0.0,0.0,0.0,9e-08
1531945871228172229,1799,1531945871227888702,base_link,-0.0371538769315,0.0444194130995,0.68869379979,-0.72273602048,1.0,0.0,0.0,0.0,1.0,0.0,0.0,0.0,1.0,-0.0440325811505,0.00562446890399,-0.127023279667,1.21846967915e-07,0.0,0.0,0.0,1.21846967915e-07,0.0,0.0,0.0,1.21846967915e-07,0.4314926,0.392266,9.32612415,9e-08,0.0,0.0,0.0,9e-08,0.0,0.0,0.0,9e-08
1531945871642757388,1800,1531945871641985502,base_link,-0.02709049465,0.0419834795087,0.70263339875,-0.709795604036,1.0,0.0,0.0,0.0,1.0,0.0,0.0,0.0,1.0,-0.114747308195,-0.0495610423386,-0.0713499635458,1.21846967915e-07,0.0,0.0,0.0,1.21846967915e-07,0.0,0.0,0.0,1.21846967915e-07,0.4903325,-0.0196133,9.3751574,9e-08,0.0,0.0,0.0,9e-08,0.0,0.0,0.0,9e-08
1531945872174465991,1801,1531945872172985513,base_link,-0.00260132828861,-0.0277399934703,-0.707246111018,0.706418193639,1.0,0.0,0.0,0.0,1.0,0.0,0.0,0.0,1.0,-0.211018010974,-0.0140874423087,-0.0171671379358,1.21846967915e-07,0.0,0.0,0.0,1.21846967915e-07,0.0,0.0,0.0,1.21846967915e-07,0.51975245,0.36284605,10.2185293,9e-08,0.0,0.0,0.0,9e-08,0.0,0.0,0.0,9e-08
1531945872572263441,1802,1531945872571957856,base_link,-0.013456435594,-0.0225043284995,-0.710583566114,0.703124082299,1.0,0.0,0.0,0.0,1.0,0.0,0.0,0.0,1.0,-0.0622901283205,-0.0278828274459,0.0112406695262,1.21846967915e-07,0.0,0.0,0.0,1.21846967915e-07,0.0,0.0,0.0,1.21846967915e-07,0.44129925,0.1176798,9.9439431,9e-08,0.0,0.0,0.0,9e-08,0.0,0.0,0.0,9e-08
1531945873077346452,1803,1531945873076793293,base_link,0.00947582225676,0.031777634269,0.705301475306,-0.708131498864,1.0,0.0,0.0,0.0,1.0,0.0,0.0,0.0,1.0,0.16049721837,0.0393861420453,0.015422469005,1.21846967915e-07,0.0,0.0,0.0,1.21846967915e-07,0.0,0.0,0.0,1.21846967915e-07,0.7060788,0.3138128,10.6500219,9e-08,0.0,0.0,0.0,9e-08,0.0,0.0,0.0,9e-08
1531945873574877559,1804,1531945873572718967,base_link,0.0580862001699,-0.0934559750947,-0.716422582142,0.688934436551,1.0,0.0,0.0,0.0,1.0,0.0,0.0,0.0,1.0,0.543158113956,-0.013562778011,-0.129845961928,1.21846967915e-07,0.0,0.0,0.0,1.21846967915e-07,0.0,0.0,0.0,1.21846967915e-07,0.588399,-0.2745862,8.38468575,9e-08,0.0,0.0,0.0,9e-08,0.0,0.0,0.0,9e-08
1531945874087457759,1805,1531945874086422836,base_link,0.130531552256,-0.183444780576,-0.716760829192,0.65997230251,1.0,0.0,0.0,0.0,1.0,0.0,0.0,0.0,1.0,0.375308573246,-0.0753210037947,-0.109694465995,1.21846967915e-07,0.0,0.0,0.0,1.21846967915e-07,0.0,0.0,0.0,1.21846967915e-07,0.588399,0.48052585,10.71866845,9e-08,0.0,0.0,0.0,9e-08,0.0,0.0,0.0,9e-08
1531945874434048768,1806,1531945874433644000,base_link,0.154037744541,-0.218183715224,-0.739225401108,0.618234620532,1.0,0.0,0.0,0.0,1.0,0.0,0.0,0.0,1.0,0.224196091294,-0.121085591614,-0.349792838097,1.21846967915e-07,0.0,0.0,0.0,1.21846967915e-07,0.0,0.0,0.0,1.21846967915e-07,0.38245935,0.4118793,10.8853815,9e-08,0.0,0.0,0.0,9e-08,0.0,0.0,0.0,9e-08
1531945874708664987,1807,1531945874708282022,base_link,0.162674828021,-0.24435665501,-0.766659472082,0.571016619152,1.0,0.0,0.0,0.0,1.0,0.0,0.0,0.0,1.0,0.123173303902,-0.201563984156,-0.381293416023,1.21846967915e-07,0.0,0.0,0.0,1.21846967915e-07,0.0,0.0,0.0,1.21846967915e-07,0.2157463,0.7060788,12.56231865,9e-08,0.0,0.0,0.0,9e-08,0.0,0.0,0.0,9e-08
1531945875136724892,1808,1531945875136461567,base_link,0.161334733551,-0.299033443125,-0.800979475469,0.492932027281,1.0,0.0,0.0,0.0,1.0,0.0,0.0,0.0,1.0,0.0512912459671,-0.324501901865,-0.17554217577,1.21846967915e-07,0.0,0.0,0.0,1.21846967915e-07,0.0,0.0,0.0,1.21846967915e-07,-0.0980665,0.2745862,12.3367657,9e-08,0.0,0.0,0.0,9e-08,0.0,0.0,0.0,9e-08
1531945875580155642,1809,1531945875579808021,base_link,0.134127790672,-0.310852926127,-0.839829970827,0.424341624389,1.0,0.0,0.0,0.0,1.0,0.0,0.0,0.0,1.0,0.0749032273889,-0.236753299832,-0.433798730373,1.21846967915e-07,0.0,0.0,0.0,1.21846967915e-07,0.0,0.0,0.0,1.21846967915e-07,-0.4903325,0.4903325,10.5323421,9e-08,0.0,0.0,0.0,9e-08,0.0,0.0,0.0,9e-08
1531945875883723550,1810,1531945875883290609,base_link,0.126580026506,-0.343526334338,-0.862319369788,0.349817751113,1.0,0.0,0.0,0.0,1.0,0.0,0.0,0.0,1.0,0.249457299709,-0.33442696929,-0.345971465111,1.21846967915e-07,0.0,0.0,0.0,1.21846967915e-07,0.0,0.0,0.0,1.21846967915e-07,-0.36284605,0.196133,12.2779258,9e-08,0.0,0.0,0.0,9e-08,0.0,0.0,0.0,9e-08
1531945876147114219,1811,1531945876146432552,base_link,0.105293136795,-0.369450145411,-0.874101502908,0.297265046741,1.0,0.0,0.0,0.0,1.0,0.0,0.0,0.0,1.0,-0.0555015578866,-0.358345478773,-0.260734498501,1.21846967915e-07,0.0,0.0,0.0,1.21846967915e-07,0.0,0.0,0.0,1.21846967915e-07,-0.02941995,0.4903325,13.9842829,9e-08,0.0,0.0,0.0,9e-08,0.0,0.0,0.0,9e-08
1531945876528038095,1812,1531945876527528733,base_link,0.065696787172,-0.365008206678,-0.902639135738,0.218393067304,1.0,0.0,0.0,0.0,1.0,0.0,0.0,0.0,1.0,-0.134672105312,-0.316610306501,-0.360435456038,1.21846967915e-07,0.0,0.0,0.0,1.21846967915e-07,0.0,0.0,0.0,1.21846967915e-07,-0.08825985,0.4707192,12.89574475,9e-08,0.0,0.0,0.0,9e-08,0.0,0.0,0.0,9e-08
1531945876973591516,1813,1531945876972307963,base_link,0.0353467139276,-0.34716434273,-0.930650975457,0.11007402433,1.0,0.0,0.0,0.0,1.0,0.0,0.0,0.0,1.0,0.0385812483728,-0.314754635096,-0.427761375904,1.21846967915e-07,0.0,0.0,0.0,1.21846967915e-07,0.0,0.0,0.0,1.21846967915e-07,-0.24516625,-0.02941995,11.6699135,9e-08,0.0,0.0,0.0,9e-08,0.0,0.0,0.0,9e-08
1531945877335815383,1814,1531945877335314313,base_link,-0.00149194468945,-0.326206438198,-0.944556096735,0.0374287843633,1.0,0.0,0.0,0.0,1.0,0.0,0.0,0.0,1.0,-0.410854697227,-0.318873524666,-0.26374745369,1.21846967915e-07,0.0,0.0,0.0,1.21846967915e-07,0.0,0.0,0.0,1.21846967915e-07,-0.1372931,0.73549875,12.1014061,9e-08,0.0,0.0,0.0,9e-08,0.0,0.0,0.0,9e-08
1531945877694485051,1815,1531945877694000021,base_link,-0.0324615814763,-0.243188266934,-0.968665511354,-0.0386372833799,1.0,0.0,0.0,0.0,1.0,0.0,0.0,0.0,1.0,-0.559133648872,-0.198473036289,-0.361649662256,1.21846967915e-07,0.0,0.0,0.0,1.21846967915e-07,0.0,0.0,0.0,1.21846967915e-07,0.0980665,0.67665885,14.121576,9e-08,0.0,0.0,0.0,9e-08,0.0,0.0,0.0,9e-08
1531945878089880498,1816,1531945878089458922,base_link,-0.0481133201024,-0.153072941145,-0.980054223346,-0.117249743795,1.0,0.0,0.0,0.0,1.0,0.0,0.0,0.0,1.0,-0.441968291998,-0.174602612853,-0.326569795609,1.21846967915e-07,0.0,0.0,0.0,1.21846967915e-07,0.0,0.0,0.0,1.21846967915e-07,-0.1569064,-0.7256921,12.71922505,9e-08,0.0,0.0,0.0,9e-08,0.0,0.0,0.0,9e-08
1531945878472303805,1817,1531945878471966813,base_link,-0.0633660499377,-0.0923101400329,-0.979902857404,-0.165087770029,1.0,0.0,0.0,0.0,1.0,0.0,0.0,0.0,1.0,-0.308849394321,-0.113396793604,-0.0573275610805,1.21846967915e-07,0.0,0.0,0.0,1.21846967915e-07,0.0,0.0,0.0,1.21846967915e-07,-0.196133,-0.61781895,11.50320045,9e-08,0.0,0.0,0.0,9e-08,0.0,0.0,0.0,9e-08
1531945878838469894,1818,1531945878837474446,base_link,-0.0624163883891,-0.00992467755585,-0.982582066032,-0.174751763218,1.0,0.0,0.0,0.0,1.0,0.0,0.0,0.0,1.0,-0.369103193283,-0.0387386158109,-0.0421258918941,1.21846967915e-07,0.0,0.0,0.0,1.21846967915e-07,0.0,0.0,0.0,1.21846967915e-07,0.00980665,1.33667766591e-15,10.91480145,9e-08,0.0,0.0,0.0,9e-08,0.0,0.0,0.0,9e-08
1531945879273005063,1819,1531945879272744716,base_link,-0.0456420357234,0.0773514740592,-0.978944120435,-0.183308382517,1.0,0.0,0.0,0.0,1.0,0.0,0.0,0.0,1.0,-0.785856842995,0.0117551032454,0.0217016525567,1.21846967915e-07,0.0,0.0,0.0,1.21846967915e-07,0.0,0.0,0.0,1.21846967915e-07,0.00980665,-0.1176798,11.52281375,9e-08,0.0,0.0,0.0,9e-08,0.0,0.0,0.0,9e-08
1531945879783453019,1820,1531945879782591266,base_link,-0.0195234280933,0.139511930697,-0.978542250053,-0.150367289694,1.0,0.0,0.0,0.0,1.0,0.0,0.0,0.0,1.0,-0.012514215894,0.0383566431701,0.357979506254,1.21846967915e-07,0.0,0.0,0.0,1.21846967915e-07,0.0,0.0,0.0,1.21846967915e-07,0.02941995,-0.6276256,10.64021525,9e-08,0.0,0.0,0.0,9e-08,0.0,0.0,0.0,9e-08
1531945880150842890,1821,1531945880150475931,base_link,-0.00929388434714,0.153585606544,-0.9848700089,-0.0797254711155,1.0,0.0,0.0,0.0,1.0,0.0,0.0,0.0,1.0,-0.0617483370006,-0.0221073776484,0.333903133869,1.21846967915e-07,0.0,0.0,0.0,1.21846967915e-07,0.0,0.0,0.0,1.21846967915e-07,-0.30400615,-0.20593965,9.610517,9e-08,0.0,0.0,0.0,9e-08,0.0,0.0,0.0,9e-08
1531945880677783823,1822,1531945880677555811,base_link,-0.00720883611564,0.147271952721,-0.988779931185,-0.0239426880029,1.0,0.0,0.0,0.0,1.0,0.0,0.0,0.0,1.0,0.14347858727,-0.0227475594729,0.14080773294,1.21846967915e-07,0.0,0.0,0.0,1.21846967915e-07,0.0,0.0,0.0,1.21846967915e-07,-0.12748645,0.3530394,8.97308475,9e-08,0.0,0.0,0.0,9e-08,0.0,0.0,0.0,9e-08
1531945880992220440,1823,1531945880991737299,base_link,-0.00598338175607,0.121685733516,-0.992500448085,-0.00998208155505,1.0,0.0,0.0,0.0,1.0,0.0,0.0,0.0,1.0,0.2121514678,0.026562102139,0.0433695390821,1.21846967915e-07,0.0,0.0,0.0,1.21846967915e-07,0.0,0.0,0.0,1.21846967915e-07,-0.06864655,0.32361945,9.50264385,9e-08,0.0,0.0,0.0,9e-08,0.0,0.0,0.0,9e-08
1531945881457270408,1824,1531945881450425048,base_link,0.00429463128492,0.0347843890365,-0.999385454073,0.000562679351533,1.0,0.0,0.0,0.0,1.0,0.0,0.0,0.0,1.0,0.409304797649,0.0550446100533,0.0755614116788,1.21846967915e-07,0.0,0.0,0.0,1.21846967915e-07,0.0,0.0,0.0,1.21846967915e-07,-0.3138128,-0.0784532,8.4925589,9e-08,0.0,0.0,0.0,9e-08,0.0,0.0,0.0,9e-08
1531945881862758130,1825,1531945881858216392,base_link,0.0187627371096,-0.00992445433949,-0.999502892195,0.0233116579551,1.0,0.0,0.0,0.0,1.0,0.0,0.0,0.0,1.0,0.101618498564,0.0728407427669,0.106275126338,1.21846967915e-07,0.0,0.0,0.0,1.21846967915e-07,0.0,0.0,0.0,1.21846967915e-07,-0.32361945,0.2157463,7.6884136,9e-08,0.0,0.0,0.0,9e-08,0.0,0.0,0.0,9e-08
1531945882228283276,1826,1531945882227925186,base_link,0.0319085055974,-0.0179815730368,-0.998721116991,0.0348516969178,1.0,0.0,0.0,0.0,1.0,0.0,0.0,0.0,1.0,0.00916011631489,0.0927415788174,-0.0174257028848,1.21846967915e-07,0.0,0.0,0.0,1.21846967915e-07,0.0,0.0,0.0,1.21846967915e-07,-0.26477955,0.392266,8.433719,9e-08,0.0,0.0,0.0,9e-08,0.0,0.0,0.0,9e-08
1531945882544483162,1827,1531945882544185004,base_link,0.0451027831745,-0.0281546497209,-0.998316628695,0.0231724733458,1.0,0.0,0.0,0.0,1.0,0.0,0.0,0.0,1.0,0.138596907258,0.064560122788,-0.0919270738959,1.21846967915e-07,0.0,0.0,0.0,1.21846967915e-07,0.0,0.0,0.0,1.21846967915e-07,-0.30400615,0.2549729,7.7668668,9e-08,0.0,0.0,0.0,9e-08,0.0,0.0,0.0,9e-08
1531945882982984757,1828,1531945882982700174,base_link,0.0515639674235,-0.0617752600168,-0.996754364391,-0.00238989142841,1.0,0.0,0.0,0.0,1.0,0.0,0.0,0.0,1.0,0.171148553491,0.0169681962579,-0.14590357244,1.21846967915e-07,0.0,0.0,0.0,1.21846967915e-07,0.0,0.0,0.0,1.21846967915e-07,-0.24516625,0.10787315,9.30651085,9e-08,0.0,0.0,0.0,9e-08,0.0,0.0,0.0,9e-08
1531945883340482189,1829,1531945883340133544,base_link,0.0527410096088,-0.0406016825763,-0.997502257956,-0.0236460282282,1.0,0.0,0.0,0.0,1.0,0.0,0.0,0.0,1.0,-0.278512269258,0.0147134605795,-0.123324774206,1.21846967915e-07,0.0,0.0,0.0,1.21846967915e-07,0.0,0.0,0.0,1.21846967915e-07,-0.16671305,1.09888595176e-15,8.97308475,9e-08,0.0,0.0,0.0,9e-08,0.0,0.0,0.0,9e-08
1531945883907215059,1830,1531945883905710505,base_link,0.0487010675458,-0.0261921058858,-0.997379154048,-0.0466583612971,1.0,0.0,0.0,0.0,1.0,0.0,0.0,0.0,1.0,0.14059150219,-0.0184005983174,-0.045512072742,1.21846967915e-07,0.0,0.0,0.0,1.21846967915e-07,0.0,0.0,0.0,1.21846967915e-07,-0.1569064,-0.16671305,10.20872265,9e-08,0.0,0.0,0.0,9e-08,0.0,0.0,0.0,9e-08
1531945884176037233,1831,1531945884175640885,base_link,0.0436826526524,-0.0363638184577,-0.997268967679,-0.0471604142168,1.0,0.0,0.0,0.0,1.0,0.0,0.0,0.0,1.0,-0.118770971894,-0.0217737480998,0.0283536594361,1.21846967915e-07,0.0,0.0,0.0,1.21846967915e-07,0.0,0.0,0.0,1.21846967915e-07,0.0196133,0.08825985,9.8851032,9e-08,0.0,0.0,0.0,9e-08,0.0,0.0,0.0,9e-08
1531945884624392912,1832,1531945884624059826,base_link,0.0373101340381,-0.0327328831216,-0.997896194392,-0.0417096808736,1.0,0.0,0.0,0.0,1.0,0.0,0.0,0.0,1.0,0.127113938332,-0.0404025763273,0.0208799503744,1.21846967915e-07,0.0,0.0,0.0,1.21846967915e-07,0.0,0.0,0.0,1.21846967915e-07,-0.0980665,-0.0196133,9.3555441,9e-08,0.0,0.0,0.0,9e-08,0.0,0.0,0.0,9e-08
1531945884996776959,1833,1531945884995896670,base_link,0.0329438096087,-0.0596050275342,-0.997008641935,-0.036547421356,1.0,0.0,0.0,0.0,1.0,0.0,0.0,0.0,1.0,0.206858381629,-0.00320313312113,0.0259009487927,1.21846967915e-07,0.0,0.0,0.0,1.21846967915e-07,0.0,0.0,0.0,1.21846967915e-07,0.0196133,0.14709975,8.85540495,9e-08,0.0,0.0,0.0,9e-08,0.0,0.0,0.0,9e-08
1531945885317352649,1834,1531945885315962486,base_link,0.0338394152483,-0.0656901456635,-0.996538630786,-0.0380848538187,1.0,0.0,0.0,0.0,1.0,0.0,0.0,0.0,1.0,-0.0458422899246,0.0292714759707,-0.0408776775002,1.21846967915e-07,0.0,0.0,0.0,1.21846967915e-07,0.0,0.0,0.0,1.21846967915e-07,-0.10787315,0.08825985,9.0809579,9e-08,0.0,0.0,0.0,9e-08,0.0,0.0,0.0,9e-08
1531945885626620254,1835,1531945885626241898,base_link,0.0373737190208,-0.0628653568725,-0.996162502702,-0.0480772320507,1.0,0.0,0.0,0.0,1.0,0.0,0.0,0.0,1.0,-0.0213558133692,0.0105045260862,-0.120591111481,1.21846967915e-07,0.0,0.0,0.0,1.21846967915e-07,0.0,0.0,0.0,1.21846967915e-07,-0.1765197,0.3726527,7.9041599,9e-08,0.0,0.0,0.0,9e-08,0.0,0.0,0.0,9e-08
1531945886202336970,1836,1531945886201672335,base_link,0.0438581384425,-0.027519408124,-0.993961791549,-0.0967424560886,1.0,0.0,0.0,0.0,1.0,0.0,0.0,0.0,1.0,-0.123401992023,0.0416493080556,-0.237785980105,1.21846967915e-07,0.0,0.0,0.0,1.21846967915e-07,0.0,0.0,0.0,1.21846967915e-07,-0.0196133,0.0196133,9.9047165,9e-08,0.0,0.0,0.0,9e-08,0.0,0.0,0.0,9e-08
1531945886561060937,1837,1531945886560463373,base_link,0.0417008185361,-0.0160846462185,-0.990506099335,-0.129999973346,1.0,0.0,0.0,0.0,1.0,0.0,0.0,0.0,1.0,-0.121094875038,-0.0578449144959,-0.163902431726,1.21846967915e-07,0.0,0.0,0.0,1.21846967915e-07,0.0,0.0,0.0,1.21846967915e-07,-0.48052585,0.00980665,8.6494653,9e-08,0.0,0.0,0.0,9e-08,0.0,0.0,0.0,9e-08
1531945886988275961,1838,1531945886987909227,base_link,0.0252475137227,0.0194718355526,-0.98902471566,-0.144268924182,1.0,0.0,0.0,0.0,1.0,0.0,0.0,0.0,1.0,0.242387577891,-0.112986668944,0.0391053073108,1.21846967915e-07,0.0,0.0,0.0,1.21846967915e-07,0.0,0.0,0.0,1.21846967915e-07,0.4707192,-0.50013915,11.79739995,9e-08,0.0,0.0,0.0,9e-08,0.0,0.0,0.0,9e-08
1531945887260375722,1839,1531945887260072058,base_link,0.0121397121851,-0.00256454521014,-0.992675290918,-0.120174112426,1.0,0.0,0.0,0.0,1.0,0.0,0.0,0.0,1.0,-0.0532667413354,-0.0848800241947,0.27234351635,1.21846967915e-07,0.0,0.0,0.0,1.21846967915e-07,0.0,0.0,0.0,1.21846967915e-07,0.42168595,-0.48052585,11.85623985,9e-08,0.0,0.0,0.0,9e-08,0.0,0.0,0.0,9e-08
1531945887679531658,1840,1531945887679112803,base_link,-0.00582850746538,0.0241577909214,-0.996504113116,-0.0797620347065,1.0,0.0,0.0,0.0,1.0,0.0,0.0,0.0,1.0,-0.0648511052132,-0.0966070815921,0.0722478926182,1.21846967915e-07,0.0,0.0,0.0,1.21846967915e-07,0.0,0.0,0.0,1.21846967915e-07,0.14709975,0.4707192,10.7284751,9e-08,0.0,0.0,0.0,9e-08,0.0,0.0,0.0,9e-08
1531945888184171546,1841,1531945888183873612,base_link,-0.0313975916317,-0.010334028397,-0.995701946275,-0.0865160868284,1.0,0.0,0.0,0.0,1.0,0.0,0.0,0.0,1.0,0.309518784285,-0.0273113194853,-0.0747712478042,1.21846967915e-07,0.0,0.0,0.0,1.21846967915e-07,0.0,0.0,0.0,1.21846967915e-07,0.32361945,0.5099458,9.3751574,9e-08,0.0,0.0,0.0,9e-08,0.0,0.0,0.0,9e-08
1531945888532595585,1842,1531945888532230676,base_link,-0.0418450714537,-0.0656228023063,-0.991815439958,-0.101216455543,1.0,0.0,0.0,0.0,1.0,0.0,0.0,0.0,1.0,-0.0838480740786,-0.0449750572443,-0.107693754137,1.21846967915e-07,0.0,0.0,0.0,1.21846967915e-07,0.0,0.0,0.0,1.21846967915e-07,0.20593965,0.67665885,7.9041599,9e-08,0.0,0.0,0.0,9e-08,0.0,0.0,0.0,9e-08
1531945888881244787,1843,1531945888876420674,base_link,-0.0384110135357,-0.0201746963785,-0.991131045569,-0.125605836545,1.0,0.0,0.0,0.0,1.0,0.0,0.0,0.0,1.0,-0.208011239767,-0.00259769614786,-0.137032151222,1.21846967915e-07,0.0,0.0,0.0,1.21846967915e-07,0.0,0.0,0.0,1.21846967915e-07,1.1571847,0.65704555,11.3953273,9e-08,0.0,0.0,0.0,9e-08,0.0,0.0,0.0,9e-08
1531945889203125224,1844,1531945889202679509,base_link,-0.0378523230946,-0.0110538843106,-0.988189730203,-0.148074543386,1.0,0.0,0.0,0.0,1.0,0.0,0.0,0.0,1.0,0.0327181629837,-0.0223144292831,-0.107016466558,1.21846967915e-07,0.0,0.0,0.0,1.21846967915e-07,0.0,0.0,0.0,1.21846967915e-07,0.8433719,0.3334261,10.71866845,9e-08,0.0,0.0,0.0,9e-08,0.0,0.0,0.0,9e-08
1531945889558295473,1845,1531945889557906168,base_link,-0.0484343888509,-0.00533511549914,-0.987142425297,-0.152234945718,1.0,0.0,0.0,0.0,1.0,0.0,0.0,0.0,1.0,-0.0743524208665,-0.0831138715148,0.0713560134172,1.21846967915e-07,0.0,0.0,0.0,1.21846967915e-07,0.0,0.0,0.0,1.21846967915e-07,1.1375714,0.0392266,12.46425215,9e-08,0.0,0.0,0.0,9e-08,0.0,0.0,0.0,9e-08
1531945889993805824,1846,1531945889993491147,base_link,-0.0569880752304,0.0195811693118,-0.989131693589,-0.134117224205,1.0,0.0,0.0,0.0,1.0,0.0,0.0,0.0,1.0,-0.0285428259522,-0.0136089762673,0.0694412440062,1.21846967915e-07,0.0,0.0,0.0,1.21846967915e-07,0.0,0.0,0.0,1.21846967915e-07,0.93163175,0.3726527,11.6110736,9e-08,0.0,0.0,0.0,9e-08,0.0,0.0,0.0,9e-08
1531945890426175518,1847,1531945890425661770,base_link,-0.0502242026487,0.0220556291888,-0.989727489904,-0.13202490075,1.0,0.0,0.0,0.0,1.0,0.0,0.0,0.0,1.0,0.047251932323,0.0907768681645,-0.0244838632643,1.21846967915e-07,0.0,0.0,0.0,1.21846967915e-07,0.0,0.0,0.0,1.21846967915e-07,0.44129925,0.0784532,7.77667345,9e-08,0.0,0.0,0.0,9e-08,0.0,0.0,0.0,9e-08
1531945890834686979,1848,1531945890832638423,base_link,-0.0376212897151,-0.00199213209754,-0.98962019252,-0.138681449832,1.0,0.0,0.0,0.0,1.0,0.0,0.0,0.0,1.0,0.0128514710814,0.0619460642338,0.00771785574034,1.21846967915e-07,0.0,0.0,0.0,1.21846967915e-07,0.0,0.0,0.0,1.21846967915e-07,0.55897905,0.0784532,7.7276402,9e-08,0.0,0.0,0.0,9e-08,0.0,0.0,0.0,9e-08
1531945891096843014,1849,1531945891096616763,base_link,-0.0295134905238,-0.00506604032815,-0.990198430377,-0.136419784457,1.0,0.0,0.0,0.0,1.0,0.0,0.0,0.0,1.0,0.101137250662,0.0645472332835,0.0105547402054,1.21846967915e-07,0.0,0.0,0.0,1.21846967915e-07,0.0,0.0,0.0,1.21846967915e-07,0.91201845,0.4118793,8.69849855,9e-08,0.0,0.0,0.0,9e-08,0.0,0.0,0.0,9e-08
1531945891468746258,1850,1531945891468517958,base_link,-0.0214722184452,0.00101316659411,-0.990401586583,-0.136537960371,1.0,0.0,0.0,0.0,1.0,0.0,0.0,0.0,1.0,-0.00989776384085,0.0345613658428,-0.0380091480911,1.21846967915e-07,0.0,0.0,0.0,1.21846967915e-07,0.0,0.0,0.0,1.21846967915e-07,1.3140911,0.4707192,10.44408225,9e-08,0.0,0.0,0.0,9e-08,0.0,0.0,0.0,9e-08
1531945891917897002,1851,1531945891917351975,base_link,-0.019477569857,0.00254323405513,-0.991142239248,-0.131343891412,1.0,0.0,0.0,0.0,1.0,0.0,0.0,0.0,1.0,0.048523068428,-0.00952914915979,0.00883014686406,1.21846967915e-07,0.0,0.0,0.0,1.21846967915e-07,0.0,0.0,0.0,1.21846967915e-07,1.0591182,0.26477955,9.9047165,9e-08,0.0,0.0,0.0,9e-08,0.0,0.0,0.0,9e-08
1531945892355499739,1852,1531945892355110018,base_link,-0.0258740302714,-0.0349699765049,-0.990637803081,-0.129400071127,1.0,0.0,0.0,0.0,1.0,0.0,0.0,0.0,1.0,0.256586045027,0.0191430002451,-0.0065493863076,1.21846967915e-07,0.0,0.0,0.0,1.21846967915e-07,0.0,0.0,0.0,1.21846967915e-07,0.91201845,0.0980665,8.0806796,9e-08,0.0,0.0,0.0,9e-08,0.0,0.0,0.0,9e-08
1531945892877221812,1853,1531945892874174734,base_link,-0.0271954884674,-0.0318984395688,-0.991171261359,-0.125787223581,1.0,0.0,0.0,0.0,1.0,0.0,0.0,0.0,1.0,-0.167976677418,-0.0351068675518,0.0494311265647,1.21846967915e-07,0.0,0.0,0.0,1.21846967915e-07,0.0,0.0,0.0,1.21846967915e-07,1.42196425,0.04903325,9.1790244,9e-08,0.0,0.0,0.0,9e-08,0.0,0.0,0.0,9e-08
1531945893227260217,1854,1531945893226894155,base_link,-0.0348128128579,-0.00780189886111,-0.992351783007,-0.118174181607,1.0,0.0,0.0,0.0,1.0,0.0,0.0,0.0,1.0,-0.10315772146,-0.0682929456234,0.0579804517329,1.21846967915e-07,0.0,0.0,0.0,1.21846967915e-07,0.0,0.0,0.0,1.21846967915e-07,1.8044236,0.2157463,11.2384209,9e-08,0.0,0.0,0.0,9e-08,0.0,0.0,0.0,9e-08
1531945893662683520,1855,1531945893662389140,base_link,-0.0499276741158,-0.00792258013647,-0.993727561429,-0.0997496553278,1.0,0.0,0.0,0.0,1.0,0.0,0.0,0.0,1.0,-0.0232217460871,-0.0705538764596,0.0765623003244,1.21846967915e-07,0.0,0.0,0.0,1.21846967915e-07,0.0,0.0,0.0,1.21846967915e-07,1.48080415,0.4314926,9.87529655,9e-08,0.0,0.0,0.0,9e-08,0.0,0.0,0.0,9e-08
1531945893994029728,1856,1531945893993719341,base_link,-0.0628325829546,-0.00770055594857,-0.993889555449,-0.0904230033103,1.0,0.0,0.0,0.0,1.0,0.0,0.0,0.0,1.0,0.0452150739729,-0.0638861954212,0.0251178536564,1.21846967915e-07,0.0,0.0,0.0,1.21846967915e-07,0.0,0.0,0.0,1.21846967915e-07,1.81423025,0.1569064,11.01286795,9e-08,0.0,0.0,0.0,9e-08,0.0,0.0,0.0,9e-08
1531945894381311692,1857,1531945894381044686,base_link,-0.0686134425625,0.00464437947036,-0.994502614389,-0.0789631256568,1.0,0.0,0.0,0.0,1.0,0.0,0.0,0.0,1.0,-0.25424104929,0.0320168808103,0.00482670962811,1.21846967915e-07,0.0,0.0,0.0,1.21846967915e-07,0.0,0.0,0.0,1.21846967915e-07,1.50041745,0.6276256,9.4536106,9e-08,0.0,0.0,0.0,9e-08,0.0,0.0,0.0,9e-08
1531945894766552849,1858,1531945894764868850,base_link,-0.0725779251462,-0.0279640913911,-0.99406122545,-0.0761100153149,1.0,0.0,0.0,0.0,1.0,0.0,0.0,0.0,1.0,0.0385334119201,0.0107662649825,0.143969461322,1.21846967915e-07,0.0,0.0,0.0,1.21846967915e-07,0.0,0.0,0.0,1.21846967915e-07,1.52003075,0.196133,9.65955025,9e-08,0.0,0.0,0.0,9e-08,0.0,0.0,0.0,9e-08
1531945895216033477,1859,1531945895215736408,base_link,-0.0593767987711,0.00301102824108,-0.996550018582,-0.057908461732,1.0,0.0,0.0,0.0,1.0,0.0,0.0,0.0,1.0,-0.0625036135316,0.0806624516845,-0.0867859423161,1.21846967915e-07,0.0,0.0,0.0,1.21846967915e-07,0.0,0.0,0.0,1.21846967915e-07,2.01036325,0.51975245,9.16921775,9e-08,0.0,0.0,0.0,9e-08,0.0,0.0,0.0,9e-08
1531945895560289074,1860,1531945895559952883,base_link,-0.0573638817026,-0.0214334755669,-0.995576912101,-0.0712502862603,1.0,0.0,0.0,0.0,1.0,0.0,0.0,0.0,1.0,0.0593475103378,-0.0215475857258,0.0226601809263,1.21846967915e-07,0.0,0.0,0.0,1.21846967915e-07,0.0,0.0,0.0,1.21846967915e-07,1.73577705,0.0980665,9.0809579,9e-08,0.0,0.0,0.0,9e-08,0.0,0.0,0.0,9e-08
1531945895955075880,1861,1531945895954645532,base_link,-0.0651201258022,-0.0177461237108,-0.996199126735,-0.0550612767766,1.0,0.0,0.0,0.0,1.0,0.0,0.0,0.0,1.0,0.00817047338933,-0.00379400420934,0.076895006001,1.21846967915e-07,0.0,0.0,0.0,1.21846967915e-07,0.0,0.0,0.0,1.21846967915e-07,1.79461695,0.3334261,8.0806796,9e-08,0.0,0.0,0.0,9e-08,0.0,0.0,0.0,9e-08
1531945896509778434,1862,1531945896509377860,base_link,-0.0671698721884,0.00964210083399,-0.996621104288,-0.0462775609708,1.0,0.0,0.0,0.0,1.0,0.0,0.0,0.0,1.0,0.0221185255796,-0.00832846015692,0.0122757125646,1.21846967915e-07,0.0,0.0,0.0,1.21846967915e-07,0.0,0.0,0.0,1.21846967915e-07,2.42224255,0.57859235,11.0030613,9e-08,0.0,0.0,0.0,9e-08,0.0,0.0,0.0,9e-08
1531945896959000251,1863,1531945896958598461,base_link,-0.0855925091416,-0.00631969847594,-0.995680615038,-0.0354132267389,1.0,0.0,0.0,0.0,1.0,0.0,0.0,0.0,1.0,0.133488625288,-0.0743907243013,0.0788792967796,1.21846967915e-07,0.0,0.0,0.0,1.21846967915e-07,0.0,0.0,0.0,1.21846967915e-07,2.3339827,0.51975245,11.2188076,9e-08,0.0,0.0,0.0,9e-08,0.0,0.0,0.0,9e-08
1531945897355001553,1864,1531945897354570724,base_link,-0.0842367635812,-0.0299858468755,-0.994853211503,-0.0476665942797,1.0,0.0,0.0,0.0,1.0,0.0,0.0,0.0,1.0,0.18456953764,0.0368197523057,-0.196220561862,1.21846967915e-07,0.0,0.0,0.0,1.21846967915e-07,0.0,0.0,0.0,1.21846967915e-07,2.06920315,0.46091255,8.36507245,9e-08,0.0,0.0,0.0,9e-08,0.0,0.0,0.0,9e-08
1531945897825755315,1865,1531945897824649990,base_link,-0.0931688126696,-0.0774775949007,-0.990201289245,-0.0694132653812,1.0,0.0,0.0,0.0,1.0,0.0,0.0,0.0,1.0,-0.0900745242834,-0.064140111208,0.016130194068,1.21846967915e-07,0.0,0.0,0.0,1.21846967915e-07,0.0,0.0,0.0,1.21846967915e-07,2.353596,-0.18632635,10.5715687,9e-08,0.0,0.0,0.0,9e-08,0.0,0.0,0.0,9e-08
1531945898378855700,1866,1531945898376431158,base_link,-0.107059028079,-0.0872090595843,-0.988914242725,-0.0546037083874,1.0,0.0,0.0,0.0,1.0,0.0,0.0,0.0,1.0,-0.238989904523,0.0341086238623,-0.0428338572383,1.21846967915e-07,0.0,0.0,0.0,1.21846967915e-07,0.0,0.0,0.0,1.21846967915e-07,2.18688295,0.6668522,9.87529655,9e-08,0.0,0.0,0.0,9e-08,0.0,0.0,0.0,9e-08
1531945898674161864,1867,1531945898672415372,base_link,-0.0930774168486,-0.0335918547778,-0.99209948131,-0.0771155039483,1.0,0.0,0.0,0.0,1.0,0.0,0.0,0.0,1.0,-0.437526017427,0.0915106087923,-0.16687053442,1.21846967915e-07,0.0,0.0,0.0,1.21846967915e-07,0.0,0.0,0.0,1.21846967915e-07,1.9417167,0.79433865,8.8848249,9e-08,0.0,0.0,0.0,9e-08,0.0,0.0,0.0,9e-08
1531945899129926498,1868,1531945899129538026,base_link,-0.0714646054647,0.0139649210023,-0.991759074088,-0.105412191477,1.0,0.0,0.0,0.0,1.0,0.0,0.0,0.0,1.0,0.0838699936867,0.0303344298154,-0.0128896478564,1.21846967915e-07,0.0,0.0,0.0,1.21846967915e-07,0.0,0.0,0.0,1.21846967915e-07,2.02997655,0.28439285,9.3359308,9e-08,0.0,0.0,0.0,9e-08,0.0,0.0,0.0,9e-08
1531945899491308718,1869,1531945899485749344,base_link,-0.0672484809281,0.00908129939712,-0.99303475613,-0.0963179367048,1.0,0.0,0.0,0.0,1.0,0.0,0.0,0.0,1.0,0.0736051723361,0.040943980217,0.058041471988,1.21846967915e-07,0.0,0.0,0.0,1.21846967915e-07,0.0,0.0,0.0,1.21846967915e-07,1.71616375,0.36284605,7.01175475,9e-08,0.0,0.0,0.0,9e-08,0.0,0.0,0.0,9e-08
1531945899926929106,1870,1531945899925943935,base_link,-0.0716767438484,-0.00898598704504,-0.99318041847,-0.0915114899658,1.0,0.0,0.0,0.0,1.0,0.0,0.0,0.0,1.0,0.0974159017205,-0.0367237664759,-0.0173020325601,1.21846967915e-07,0.0,0.0,0.0,1.21846967915e-07,0.0,0.0,0.0,1.21846967915e-07,1.8632635,0.4903325,10.1204628,9e-08,0.0,0.0,0.0,9e-08,0.0,0.0,0.0,9e-08
1531945900381467750,1871,1531945900380647617,base_link,-0.086134613812,-0.0261370888934,-0.992800849072,-0.0790199656436,1.0,0.0,0.0,0.0,1.0,0.0,0.0,0.0,1.0,0.0801575779915,-0.0566744692624,0.0983496382833,1.21846967915e-07,0.0,0.0,0.0,1.21846967915e-07,0.0,0.0,0.0,1.21846967915e-07,1.8044236,0.42168595,10.73828175,9e-08,0.0,0.0,0.0,9e-08,0.0,0.0,0.0,9e-08
1531945900663665679,1872,1531945900663126191,base_link,-0.0926101866228,-0.0472749556953,-0.992058523708,-0.0707694668363,1.0,0.0,0.0,0.0,1.0,0.0,0.0,0.0,1.0,0.193058937788,-0.0287885740399,-0.0307000093162,1.21846967915e-07,0.0,0.0,0.0,1.21846967915e-07,0.0,0.0,0.0,1.21846967915e-07,1.569064,0.73549875,10.2773692,9e-08,0.0,0.0,0.0,9e-08,0.0,0.0,0.0,9e-08
1531945901067063354,1873,1531945901066495853,base_link,-0.0971028197052,-0.101787338762,-0.985964168,-0.0899168476574,1.0,0.0,0.0,0.0,1.0,0.0,0.0,0.0,1.0,0.3052739501,-0.0208733938634,-0.158089056611,1.21846967915e-07,0.0,0.0,0.0,1.21846967915e-07,0.0,0.0,0.0,1.21846967915e-07,1.5494507,0.4903325,10.42446895,9e-08,0.0,0.0,0.0,9e-08,0.0,0.0,0.0,9e-08
1531945901458403468,1874,1531945901457694620,base_link,-0.0998258879506,-0.14548231328,-0.978204873749,-0.109475630126,1.0,0.0,0.0,0.0,1.0,0.0,0.0,0.0,1.0,0.25161293149,-0.00731730554253,-0.0768233686686,1.21846967915e-07,0.0,0.0,0.0,1.21846967915e-07,0.0,0.0,0.0,1.21846967915e-07,1.57887065,0.06864655,10.99325465,9e-08,0.0,0.0,0.0,9e-08,0.0,0.0,0.0,9e-08
1531945901976216166,1875,1531945901976012294,base_link,-0.10173736497,-0.186550844519,-0.968863761251,-0.127087777197,1.0,0.0,0.0,0.0,1.0,0.0,0.0,0.0,1.0,-0.118529371917,-0.023245356977,-0.169501110911,1.21846967915e-07,0.0,0.0,0.0,1.21846967915e-07,0.0,0.0,0.0,1.21846967915e-07,1.4513842,0.53936575,9.3751574,9e-08,0.0,0.0,0.0,9e-08,0.0,0.0,0.0,9e-08
1531945902414856867,1876,1531945902414586051,base_link,-0.0880582856015,-0.198883323675,-0.959185520899,-0.180705003801,1.0,0.0,0.0,0.0,1.0,0.0,0.0,0.0,1.0,0.140427514911,-0.0245635416359,-0.318748682737,1.21846967915e-07,0.0,0.0,0.0,1.21846967915e-07,0.0,0.0,0.0,1.21846967915e-07,1.67693715,0.5687857,9.07115125,9e-08,0.0,0.0,0.0,9e-08,0.0,0.0,0.0,9e-08
1531945902887490914,1877,1531945902887201848,base_link,-0.0971356113899,-0.241958330811,-0.93335718828,-0.246708731581,1.0,0.0,0.0,0.0,1.0,0.0,0.0,0.0,1.0,0.118356123567,-0.127028048038,-0.269569545984,1.21846967915e-07,0.0,0.0,0.0,1.21846967915e-07,0.0,0.0,0.0,1.21846967915e-07,1.2552512,0.5491724,7.79628675,9e-08,0.0,0.0,0.0,9e-08,0.0,0.0,0.0,9e-08
1531945903252436392,1878,1531945903252061174,base_link,-0.112093235301,-0.25616441882,-0.912144164863,-0.299679695068,1.0,0.0,0.0,0.0,1.0,0.0,0.0,0.0,1.0,0.0594936907291,-0.190899938345,-0.305469125509,1.21846967915e-07,0.0,0.0,0.0,1.21846967915e-07,0.0,0.0,0.0,1.21846967915e-07,1.3533177,0.4314926,9.4536106,9e-08,0.0,0.0,0.0,9e-08,0.0,0.0,0.0,9e-08
1531945903735348851,1879,1531945903735050405,base_link,-0.152153589753,-0.268847790884,-0.878723016197,-0.36389010878,1.0,0.0,0.0,0.0,1.0,0.0,0.0,0.0,1.0,0.0135996770114,-0.253353625536,-0.260964184999,1.21846967915e-07,0.0,0.0,0.0,1.21846967915e-07,0.0,0.0,0.0,1.21846967915e-07,1.8436502,0.67665885,10.4931155,9e-08,0.0,0.0,0.0,9e-08,0.0,0.0,0.0,9e-08
1531945904058495777,1880,1531945904057975338,base_link,-0.164957658021,-0.240192564518,-0.861296462859,-0.416251013305,1.0,0.0,0.0,0.0,1.0,0.0,0.0,0.0,1.0,0.00685279536992,-0.211730211973,-0.311354368925,1.21846967915e-07,0.0,0.0,0.0,1.21846967915e-07,0.0,0.0,0.0,1.21846967915e-07,1.6671305,0.97085835,12.4740588,9e-08,0.0,0.0,0.0,9e-08,0.0,0.0,0.0,9e-08
1531945904512208397,1881,1531945904511119240,base_link,-0.18629375075,-0.227134070289,-0.815962650672,-0.49790531756,1.0,0.0,0.0,0.0,1.0,0.0,0.0,0.0,1.0,-0.0607737228274,-0.236622869968,-0.383722543716,1.21846967915e-07,0.0,0.0,0.0,1.21846967915e-07,0.0,0.0,0.0,1.21846967915e-07,1.1571847,0.79433865,12.42502555,9e-08,0.0,0.0,0.0,9e-08,0.0,0.0,0.0,9e-08
1531945904869916041,1882,1531945904869627681,base_link,-0.198617245479,-0.205867486544,-0.77772380222,-0.559745884525,1.0,0.0,0.0,0.0,1.0,0.0,0.0,0.0,1.0,-0.181722775102,-0.2288043648,-0.324418276548,1.21846967915e-07,0.0,0.0,0.0,1.21846967915e-07,0.0,0.0,0.0,1.21846967915e-07,1.0395049,0.57859235,11.4149406,9e-08,0.0,0.0,0.0,9e-08,0.0,0.0,0.0,9e-08
1531945905395843758,1883,1531945905395508143,base_link,-0.213016571771,-0.154226936654,-0.72769306525,-0.633483066031,1.0,0.0,0.0,0.0,1.0,0.0,0.0,0.0,1.0,-0.184501156211,-0.25710183382,-0.245663017035,1.21846967915e-07,0.0,0.0,0.0,1.21846967915e-07,0.0,0.0,0.0,1.21846967915e-07,1.20621795,0.44129925,11.8660465,9e-08,0.0,0.0,0.0,9e-08,0.0,0.0,0.0,9e-08
1531945905762270035,1884,1531945905761902405,base_link,-0.214680422201,-0.110504791685,-0.700473638118,-0.671593396066,1.0,0.0,0.0,0.0,1.0,0.0,0.0,0.0,1.0,-0.278139352798,-0.182171091437,-0.17350359261,1.21846967915e-07,0.0,0.0,0.0,1.21846967915e-07,0.0,0.0,0.0,1.21846967915e-07,1.176798,0.2941995,12.1994726,9e-08,0.0,0.0,0.0,9e-08,0.0,0.0,0.0,9e-08
1531945906133291132,1885,1531945906132943319,base_link,-0.180378697944,-0.0498055787364,-0.681541705828,-0.707448819967,1.0,0.0,0.0,0.0,1.0,0.0,0.0,0.0,1.0,-0.358468085527,-0.0454356893897,-0.160088256001,1.21846967915e-07,0.0,0.0,0.0,1.21846967915e-07,0.0,0.0,0.0,1.21846967915e-07,1.0983448,0.4511059,11.42474725,9e-08,0.0,0.0,0.0,9e-08,0.0,0.0,0.0,9e-08
1531945906532102695,1886,1531945906531840299,base_link,-0.125364586205,-0.00581257340746,-0.653311307819,-0.746615208519,1.0,0.0,0.0,0.0,1.0,0.0,0.0,0.0,1.0,-0.368739455938,0.0167007893324,-0.231338977814,1.21846967915e-07,0.0,0.0,0.0,1.21846967915e-07,0.0,0.0,0.0,1.21846967915e-07,0.6668522,0.2549729,9.2967042,9e-08,0.0,0.0,0.0,9e-08,0.0,0.0,0.0,9e-08
1531945907038489652,1887,1531945907037161630,base_link,-0.0545143398705,0.0423055163355,-0.63049509765,-0.773119888423,1.0,0.0,0.0,0.0,1.0,0.0,0.0,0.0,1.0,-0.322768032551,0.0553742647171,-0.0240050703287,1.21846967915e-07,0.0,0.0,0.0,1.21846967915e-07,0.0,0.0,0.0,1.21846967915e-07,0.67665885,0.20593965,9.5320638,9e-08,0.0,0.0,0.0,9e-08,0.0,0.0,0.0,9e-08
1531945907429247410,1888,1531945907428703728,base_link,-0.0205159167695,0.0562490938967,-0.635946242198,-0.76940724823,1.0,0.0,0.0,0.0,1.0,0.0,0.0,0.0,1.0,-0.0948112905025,0.0357254594564,0.104785941541,1.21846967915e-07,0.0,0.0,0.0,1.21846967915e-07,0.0,0.0,0.0,1.21846967915e-07,0.89240515,-0.1765197,8.8063717,9e-08,0.0,0.0,0.0,9e-08,0.0,0.0,0.0,9e-08
1531945907830450380,1889,1531945907829939770,base_link,0.020120026778,0.0736300604425,-0.657781750025,-0.749331013676,1.0,0.0,0.0,0.0,1.0,0.0,0.0,0.0,1.0,-0.267510443926,0.0658521950245,0.172066986561,1.21846967915e-07,0.0,0.0,0.0,1.21846967915e-07,0.0,0.0,0.0,1.21846967915e-07,0.97085835,0.3138128,8.5513988,9e-08,0.0,0.0,0.0,9e-08,0.0,0.0,0.0,9e-08
1531945908190791530,1890,1531945908187459453,base_link,0.0567464429708,0.0836842468385,-0.6668005079,-0.738345360049,1.0,0.0,0.0,0.0,1.0,0.0,0.0,0.0,1.0,-0.0938326641917,0.110825262964,0.0187694113702,1.21846967915e-07,0.0,0.0,0.0,1.21846967915e-07,0.0,0.0,0.0,1.21846967915e-07,0.8237586,0.5099458,8.63965865,9e-08,0.0,0.0,0.0,9e-08,0.0,0.0,0.0,9e-08
1531945908678017395,1891,1531945908677156122,base_link,0.0635217922253,0.0704631035092,-0.676930519355,-0.729907531762,1.0,0.0,0.0,0.0,1.0,0.0,0.0,0.0,1.0,0.106854133308,0.0481153428555,0.0808618217707,1.21846967915e-07,0.0,0.0,0.0,1.21846967915e-07,0.0,0.0,0.0,1.21846967915e-07,0.95124505,0.06864655,8.237586,9e-08,0.0,0.0,0.0,9e-08,0.0,0.0,0.0,9e-08
1531945909109884610,1892,1531945909109427497,base_link,0.0428497232543,0.0426299724841,-0.697720894739,-0.71381519997,1.0,0.0,0.0,0.0,1.0,0.0,0.0,0.0,1.0,0.172355994582,0.0123916296288,0.123555503786,1.21846967915e-07,0.0,0.0,0.0,1.21846967915e-07,0.0,0.0,0.0,1.21846967915e-07,1.0591182,-0.0392266,10.1400761,9e-08,0.0,0.0,0.0,9e-08,0.0,0.0,0.0,9e-08
1531945909581445731,1893,1531945909578614308,base_link,0.00077273953543,0.00238178398436,-0.725671639148,-0.688036628469,1.0,0.0,0.0,0.0,1.0,0.0,0.0,0.0,1.0,0.253626167774,0.00362485740334,0.179552778602,1.21846967915e-07,0.0,0.0,0.0,1.21846967915e-07,0.0,0.0,0.0,1.21846967915e-07,0.6864655,0.0784532,8.1199062,9e-08,0.0,0.0,0.0,9e-08,0.0,0.0,0.0,9e-08
1531945910084562625,1894,1531945910083901895,base_link,-0.0137722789543,-0.0103499314853,-0.74015647301,-0.672213953077,1.0,0.0,0.0,0.0,1.0,0.0,0.0,0.0,1.0,0.063939191401,0.0349663347006,-0.0417173653841,1.21846967915e-07,0.0,0.0,0.0,1.21846967915e-07,0.0,0.0,0.0,1.21846967915e-07,0.9022118,0.4118793,10.1204628,9e-08,0.0,0.0,0.0,9e-08,0.0,0.0,0.0,9e-08
1531945910619346416,1895,1531945910618741009,base_link,-0.036294783513,-0.0429397629811,-0.720978076811,-0.690673206519,1.0,0.0,0.0,0.0,1.0,0.0,0.0,0.0,1.0,0.0502069368958,-0.0159650482237,-0.202474936843,1.21846967915e-07,0.0,0.0,0.0,1.21846967915e-07,0.0,0.0,0.0,1.21846967915e-07,0.8825985,0.02941995,10.8461549,9e-08,0.0,0.0,0.0,9e-08,0.0,0.0,0.0,9e-08
1531945910949337581,1896,1531945910948601456,base_link,-0.0515605847819,-0.0447425209583,-0.710939485065,-0.699931897752,1.0,0.0,0.0,0.0,1.0,0.0,0.0,0.0,1.0,0.103745736182,-0.0958651527762,0.0255953855813,1.21846967915e-07,0.0,0.0,0.0,1.21846967915e-07,0.0,0.0,0.0,1.21846967915e-07,0.980665,1.47238707853e-15,12.0229529,9e-08,0.0,0.0,0.0,9e-08,0.0,0.0,0.0,9e-08
1531945911332128103,1897,1531945911331568861,base_link,-0.0670803441059,-0.030973164896,-0.722948190882,-0.686940174827,1.0,0.0,0.0,0.0,1.0,0.0,0.0,0.0,1.0,-0.131847918034,-0.0906381234527,0.0991589576006,1.21846967915e-07,0.0,0.0,0.0,1.21846967915e-07,0.0,0.0,0.0,1.21846967915e-07,0.77472535,0.3138128,12.07198615,9e-08,0.0,0.0,0.0,9e-08,0.0,0.0,0.0,9e-08
1531945911678772834,1898,1531945911678353691,base_link,-0.0556745723732,-0.00506402586895,-0.723013445154,-0.688568265141,1.0,0.0,0.0,0.0,1.0,0.0,0.0,0.0,1.0,-0.221605017781,0.0158805176616,-0.10558372736,1.21846967915e-07,0.0,0.0,0.0,1.21846967915e-07,0.0,0.0,0.0,1.21846967915e-07,0.63743225,0.57859235,11.30706745,9e-08,0.0,0.0,0.0,9e-08,0.0,0.0,0.0,9e-08
1531945912183788036,1899,1531945912183437277,base_link,-0.0258843975251,0.0117218971195,-0.695912500119,-0.717564204285,1.0,0.0,0.0,0.0,1.0,0.0,0.0,0.0,1.0,-0.122658334672,0.0181616544724,-0.121987059712,1.21846967915e-07,0.0,0.0,0.0,1.21846967915e-07,0.0,0.0,0.0,1.21846967915e-07,0.18632635,0.28439285,9.65955025,9e-08,0.0,0.0,0.0,9e-08,0.0,0.0,0.0,9e-08
1531945912603663097,1900,1531945912603067614,base_link,0.00852736099078,0.0310533643521,-0.685453687525,-0.727403749602,1.0,0.0,0.0,0.0,1.0,0.0,0.0,0.0,1.0,0.119769245386,0.0271131545305,-0.0231474060565,1.21846967915e-07,0.0,0.0,0.0,1.21846967915e-07,0.0,0.0,0.0,1.21846967915e-07,0.1176798,-0.08825985,5.52114395,9e-08,0.0,0.0,0.0,9e-08,0.0,0.0,0.0,9e-08
1531945912866993962,1901,1531945912866754808,base_link,0.00567888421864,0.0179775966222,-0.691391372193,-0.722234398759,1.0,0.0,0.0,0.0,1.0,0.0,0.0,0.0,1.0,0.0700213611126,0.0341682992876,0.0404604524374,1.21846967915e-07,0.0,0.0,0.0,1.21846967915e-07,0.0,0.0,0.0,1.21846967915e-07,0.2549729,0.08825985,6.8254284,9e-08,0.0,0.0,0.0,9e-08,0.0,0.0,0.0,9e-08
1531945913270170892,1902,1531945913269721847,base_link,0.0127296829751,0.0174641680996,-0.691129250508,-0.722407999054,1.0,0.0,0.0,0.0,1.0,0.0,0.0,0.0,1.0,0.0550947189331,0.0174591448158,-0.0369950942695,1.21846967915e-07,0.0,0.0,0.0,1.21846967915e-07,0.0,0.0,0.0,1.21846967915e-07,0.75511205,0.16671305,8.79656505,9e-08,0.0,0.0,0.0,9e-08,0.0,0.0,0.0,9e-08
1531945913724577986,1903,1531945913724225595,base_link,-0.0342138372464,-0.0239792456606,-0.692499121096,-0.720207870271,1.0,0.0,0.0,0.0,1.0,0.0,0.0,0.0,1.0,0.524586737156,-0.0363472476602,0.0308592431247,1.21846967915e-07,0.0,0.0,0.0,1.21846967915e-07,0.0,0.0,0.0,1.21846967915e-07,1.1571847,0.0784532,9.77723005,9e-08,0.0,0.0,0.0,9e-08,0.0,0.0,0.0,9e-08
1531945914098119127,1904,1531945914097776084,base_link,-0.0429550468436,-0.0279099898332,-0.696402321602,-0.715820999193,1.0,0.0,0.0,0.0,1.0,0.0,0.0,0.0,1.0,-0.35124155879,-0.00419932138175,-0.0496141165495,1.21846967915e-07,0.0,0.0,0.0,1.21846967915e-07,0.0,0.0,0.0,1.21846967915e-07,1.0983448,0.63743225,9.3751574,9e-08,0.0,0.0,0.0,9e-08,0.0,0.0,0.0,9e-08
1531945914518319974,1905,1531945914518009331,base_link,-0.00239714978137,0.0208901680945,-0.695772464015,-0.717954408628,1.0,0.0,0.0,0.0,1.0,0.0,0.0,0.0,1.0,-0.0490586310625,-0.00798112060875,0.0714683532715,1.21846967915e-07,0.0,0.0,0.0,1.21846967915e-07,0.0,0.0,0.0,1.21846967915e-07,0.9218251,0.42168595,11.38552065,9e-08,0.0,0.0,0.0,9e-08,0.0,0.0,0.0,9e-08
1531945914840987601,1906,1531945914840680031,base_link,-0.0121103572151,0.0186995420822,-0.701185505923,-0.712630726715,1.0,0.0,0.0,0.0,1.0,0.0,0.0,0.0,1.0,0.0618786551058,-0.0440614782274,0.00071123149246,1.21846967915e-07,0.0,0.0,0.0,1.21846967915e-07,0.0,0.0,0.0,1.21846967915e-07,0.392266,0.4511059,9.63993695,9e-08,0.0,0.0,0.0,9e-08,0.0,0.0,0.0,9e-08
1531945915159075070,1907,1531945915158611810,base_link,-0.0157543754099,0.0349600385935,-0.704177663153,-0.708987597969,1.0,0.0,0.0,0.0,1.0,0.0,0.0,0.0,1.0,-0.00973160564899,-0.0545758865774,0.0281441546977,1.21846967915e-07,0.0,0.0,0.0,1.21846967915e-07,0.0,0.0,0.0,1.21846967915e-07,0.9218251,0.4903325,12.3956056,9e-08,0.0,0.0,0.0,9e-08,0.0,0.0,0.0,9e-08
1531945915651197467,1908,1531945915650716215,base_link,-0.0426672045688,0.0210236712262,-0.706944716081,-0.705667544462,1.0,0.0,0.0,0.0,1.0,0.0,0.0,0.0,1.0,0.138705134392,0.0121277282014,-0.0419044084847,1.21846967915e-07,0.0,0.0,0.0,1.21846967915e-07,0.0,0.0,0.0,1.21846967915e-07,0.61781895,0.4707192,9.7870367,9e-08,0.0,0.0,0.0,9e-08,0.0,0.0,0.0,9e-08
1531945916096403491,1909,1531945916094380163,base_link,-0.0461138444853,0.0172574332214,-0.699509598017,-0.71292497265,1.0,0.0,0.0,0.0,1.0,0.0,0.0,0.0,1.0,-0.132118165493,0.0261000171304,-0.0978261604905,1.21846967915e-07,0.0,0.0,0.0,1.21846967915e-07,0.0,0.0,0.0,1.21846967915e-07,0.42168595,0.588399,8.44352565,9e-08,0.0,0.0,0.0,9e-08,0.0,0.0,0.0,9e-08
1531945916480050387,1910,1531945916479758665,base_link,-0.0523762052847,0.00507269473903,-0.684261134265,-0.727336030334,1.0,0.0,0.0,0.0,1.0,0.0,0.0,0.0,1.0,0.196614399552,0.0038935970515,-0.0957910642028,1.21846967915e-07,0.0,0.0,0.0,1.21846967915e-07,0.0,0.0,0.0,1.21846967915e-07,0.67665885,0.0588399,8.22777935,9e-08,0.0,0.0,0.0,9e-08,0.0,0.0,0.0,9e-08
1531945916935516095,1911,1531945916935175614,base_link,-0.101861625876,-0.0372603018665,-0.684798130219,-0.72061598645,1.0,0.0,0.0,0.0,1.0,0.0,0.0,0.0,1.0,0.272407710552,0.000692445784807,0.0318988412619,1.21846967915e-07,0.0,0.0,0.0,1.21846967915e-07,0.0,0.0,0.0,1.21846967915e-07,1.0002783,0.5295591,9.75761675,9e-08,0.0,0.0,0.0,9e-08,0.0,0.0,0.0,9e-08
1531945917281924778,1912,1531945917281628285,base_link,-0.136167199627,-0.0772423350173,-0.675258596608,-0.720775931294,1.0,0.0,0.0,0.0,1.0,0.0,0.0,0.0,1.0,0.291021704674,0.05197981745,-0.146900638938,1.21846967915e-07,0.0,0.0,0.0,1.21846967915e-07,0.0,0.0,0.0,1.21846967915e-07,1.16699135,0.73549875,8.3748791,9e-08,0.0,0.0,0.0,9e-08,0.0,0.0,0.0,9e-08
1531945917658736623,1913,1531945917658397230,base_link,-0.149082369655,-0.110497086286,-0.633909365925,-0.750815394603,1.0,0.0,0.0,0.0,1.0,0.0,0.0,0.0,1.0,0.182102501392,-0.000186390243471,-0.32769086957,1.21846967915e-07,0.0,0.0,0.0,1.21846967915e-07,0.0,0.0,0.0,1.21846967915e-07,1.0002783,0.59820565,8.1002929,9e-08,0.0,0.0,0.0,9e-08,0.0,0.0,0.0,9e-08
1531945918049042902,1914,1531945918048821261,base_link,-0.175723151308,-0.126027367365,-0.585179881861,-0.781538855486,1.0,0.0,0.0,0.0,1.0,0.0,0.0,0.0,1.0,0.12483638525,-0.127303212881,-0.246656507254,1.21846967915e-07,0.0,0.0,0.0,1.21846967915e-07,0.0,0.0,0.0,1.21846967915e-07,1.52003075,0.1569064,9.54187045,9e-08,0.0,0.0,0.0,9e-08,0.0,0.0,0.0,9e-08
1531945918494268936,1915,1531945918494001577,base_link,-0.220977259702,-0.110223511086,-0.53926081446,-0.805119619862,1.0,0.0,0.0,0.0,1.0,0.0,0.0,0.0,1.0,0.0869092568755,-0.272101789713,-0.154256403446,1.21846967915e-07,0.0,0.0,0.0,1.21846967915e-07,0.0,0.0,0.0,1.21846967915e-07,2.36340265,0.87279185,13.18994425,9e-08,0.0,0.0,0.0,9e-08,0.0,0.0,0.0,9e-08
1531945918894269127,1916,1531945918893929158,base_link,-0.235294524138,-0.076521811941,-0.49251866774,-0.834389753734,1.0,0.0,0.0,0.0,1.0,0.0,0.0,0.0,1.0,-0.0841648206115,-0.191394641995,-0.310813486576,1.21846967915e-07,0.0,0.0,0.0,1.21846967915e-07,0.0,0.0,0.0,1.21846967915e-07,1.65732385,0.7060788,13.99408955,9e-08,0.0,0.0,0.0,9e-08,0.0,0.0,0.0,9e-08
1531945919361767168,1917,1531945919361468659,base_link,-0.253445697177,-0.0527074539045,-0.421344119944,-0.86916991174,1.0,0.0,0.0,0.0,1.0,0.0,0.0,0.0,1.0,0.0923375561833,-0.168864876032,-0.352281689644,1.21846967915e-07,0.0,0.0,0.0,1.21846967915e-07,0.0,0.0,0.0,1.21846967915e-07,0.9022118,0.8041453,11.89546645,9e-08,0.0,0.0,0.0,9e-08,0.0,0.0,0.0,9e-08
1531945919710517570,1918,1531945919709200145,base_link,-0.272117541222,-0.0452657939878,-0.37388831605,-0.885500185644,1.0,0.0,0.0,0.0,1.0,0.0,0.0,0.0,1.0,-0.394908964634,-0.180500566959,-0.169757962227,1.21846967915e-07,0.0,0.0,0.0,1.21846967915e-07,0.0,0.0,0.0,1.21846967915e-07,1.1964113,0.1765197,7.9826131,9e-08,0.0,0.0,0.0,9e-08,0.0,0.0,0.0,9e-08
1531945920169031381,1919,1531945920168667752,base_link,-0.213792273511,0.0106930962834,-0.327952574471,-0.920122617034,1.0,0.0,0.0,0.0,1.0,0.0,0.0,0.0,1.0,-0.0404231399298,-0.0985616073012,-0.227562218904,1.21846967915e-07,0.0,0.0,0.0,1.21846967915e-07,0.0,0.0,0.0,1.21846967915e-07,2.71644205,1.176798,14.0431228,9e-08,0.0,0.0,0.0,9e-08,0.0,0.0,0.0,9e-08
1531945920594895588,1920,1531945920594711372,base_link,-0.209640621674,0.0253591304319,-0.277762520678,-0.937152979163,1.0,0.0,0.0,0.0,1.0,0.0,0.0,0.0,1.0,-0.0921876505017,-0.081856392324,-0.158470094204,1.21846967915e-07,0.0,0.0,0.0,1.21846967915e-07,0.0,0.0,0.0,1.21846967915e-07,2.28494945,0.2745862,12.9840046,9e-08,0.0,0.0,0.0,9e-08,0.0,0.0,0.0,9e-08
1531945920960244714,1921,1531945920959892098,base_link,-0.213026085261,0.0290177490445,-0.238857069865,-0.946955731497,1.0,0.0,0.0,0.0,1.0,0.0,0.0,0.0,1.0,-0.0856994315982,-0.028262456879,-0.237569600344,1.21846967915e-07,0.0,0.0,0.0,1.21846967915e-07,0.0,0.0,0.0,1.21846967915e-07,1.34351105,0.5687857,7.9629998,9e-08,0.0,0.0,0.0,9e-08,0.0,0.0,0.0,9e-08
1531945921448914656,1922,1531945921443052099,base_link,-0.19806510402,0.0276694127207,-0.187289752413,-0.961731338166,1.0,0.0,0.0,0.0,1.0,0.0,0.0,0.0,1.0,-0.129592880607,-0.0046158330515,-0.216958761215,1.21846967915e-07,0.0,0.0,0.0,1.21846967915e-07,0.0,0.0,0.0,1.21846967915e-07,1.5886773,0.5687857,8.20816605,9e-08,0.0,0.0,0.0,9e-08,0.0,0.0,0.0,9e-08
1531945921897978511,1923,1531945921896810309,base_link,-0.17542754587,0.0219450346221,-0.129334398641,-0.975713177596,1.0,0.0,0.0,0.0,1.0,0.0,0.0,0.0,1.0,-0.0643618702888,-0.0212297346443,-0.245992168784,1.21846967915e-07,0.0,0.0,0.0,1.21846967915e-07,0.0,0.0,0.0,1.21846967915e-07,1.85345685,0.4314926,8.87501825,9e-08,0.0,0.0,0.0,9e-08,0.0,0.0,0.0,9e-08
1531945922221131488,1924,1531945922220917466,base_link,-0.172475268942,0.0242993315234,-0.0965567315511,-0.979968684032,1.0,0.0,0.0,0.0,1.0,0.0,0.0,0.0,1.0,-0.052385546267,-0.0625494197011,-0.138890936971,1.21846967915e-07,0.0,0.0,0.0,1.21846967915e-07,0.0,0.0,0.0,1.21846967915e-07,1.73577705,0.4118793,9.42419065,9e-08,0.0,0.0,0.0,9e-08,0.0,0.0,0.0,9e-08
1531945922692801428,1925,1531945922692464309,base_link,-0.144747876084,0.0312845919045,-0.0539374730966,-0.987501937049,1.0,0.0,0.0,0.0,1.0,0.0,0.0,0.0,1.0,-0.169100165367,-0.0163616687059,-0.202318429947,1.21846967915e-07,0.0,0.0,0.0,1.21846967915e-07,0.0,0.0,0.0,1.21846967915e-07,1.5886773,0.55897905,8.42391235,9e-08,0.0,0.0,0.0,9e-08,0.0,0.0,0.0,9e-08
1531945923037328259,1926,1531945923036730951,base_link,-0.135421763939,0.0394314386322,-0.0250301627223,-0.989686616285,1.0,0.0,0.0,0.0,1.0,0.0,0.0,0.0,1.0,0.0503737255931,-0.0538194701076,-0.102744624019,1.21846967915e-07,0.0,0.0,0.0,1.21846967915e-07,0.0,0.0,0.0,1.21846967915e-07,1.85345685,0.196133,11.11093445,9e-08,0.0,0.0,0.0,9e-08,0.0,0.0,0.0,9e-08
1531945923552962355,1927,1531945923552727076,base_link,-0.0946879502697,0.0408136225353,0.0260237442523,-0.994329525371,1.0,0.0,0.0,0.0,1.0,0.0,0.0,0.0,1.0,-0.230828851461,-0.00637679174542,-0.230914652348,1.21846967915e-07,0.0,0.0,0.0,1.21846967915e-07,0.0,0.0,0.0,1.21846967915e-07,1.4513842,0.196133,9.414384,9e-08,0.0,0.0,0.0,9e-08,0.0,0.0,0.0,9e-08
1531945924058448309,1928,1531945924057815753,base_link,-0.0341026022723,0.0502829704512,0.0588620410673,-0.996415523525,1.0,0.0,0.0,0.0,1.0,0.0,0.0,0.0,1.0,-0.153013363481,-0.0490817949176,0.00743248080835,1.21846967915e-07,0.0,0.0,0.0,1.21846967915e-07,0.0,0.0,0.0,1.21846967915e-07,1.63771055,0.1765197,10.30678915,9e-08,0.0,0.0,0.0,9e-08,0.0,0.0,0.0,9e-08
1531945924432770076,1929,1531945924432335758,base_link,0.00297331031209,0.0537905988397,0.0597505293071,-0.996758549073,1.0,0.0,0.0,0.0,1.0,0.0,0.0,0.0,1.0,-0.136139571667,-0.0146119734272,-0.0118031091988,1.21846967915e-07,0.0,0.0,0.0,1.21846967915e-07,0.0,0.0,0.0,1.21846967915e-07,1.53964405,0.2941995,9.79684335,9e-08,0.0,0.0,0.0,9e-08,0.0,0.0,0.0,9e-08
1531945924792484240,1930,1531945924791713058,base_link,0.0262549796992,0.0548500237523,0.0617030003195,-0.996240377965,1.0,0.0,0.0,0.0,1.0,0.0,0.0,0.0,1.0,0.00634164595976,-0.00745879113674,0.0338573083282,1.21846967915e-07,0.0,0.0,0.0,1.21846967915e-07,0.0,0.0,0.0,1.21846967915e-07,1.53964405,0.0980665,9.6301303,9e-08,0.0,0.0,0.0,9e-08,0.0,0.0,0.0,9e-08
1531945925318927210,1931,1531945925318678324,base_link,0.0468801163694,0.0562115228046,0.029617129506,-0.996877798445,1.0,0.0,0.0,0.0,1.0,0.0,0.0,0.0,1.0,-0.0532868914306,0.0110562490299,0.167981922626,1.21846967915e-07,0.0,0.0,0.0,1.21846967915e-07,0.0,0.0,0.0,1.21846967915e-07,1.8632635,0.12748645,10.002783,9e-08,0.0,0.0,0.0,9e-08,0.0,0.0,0.0,9e-08
1531945925611876928,1932,1531945925611468542,base_link,0.0450351053816,0.050151672271,0.0141808935987,-0.997624955235,1.0,0.0,0.0,0.0,1.0,0.0,0.0,0.0,1.0,0.0807695016265,0.0524311922491,0.0487960539758,1.21846967915e-07,0.0,0.0,0.0,1.21846967915e-07,0.0,0.0,0.0,1.21846967915e-07,1.59848395,0.5491724,9.38496405,9e-08,0.0,0.0,0.0,9e-08,0.0,0.0,0.0,9e-08
1531945925918556424,1933,1531945925908799379,base_link,0.0398045522276,0.0429309795734,0.0116198944272,-0.998217164082,1.0,0.0,0.0,0.0,1.0,0.0,0.0,0.0,1.0,-0.0151995364577,0.0430537834764,-0.0142812673002,1.21846967915e-07,0.0,0.0,0.0,1.21846967915e-07,0.0,0.0,0.0,1.21846967915e-07,1.48080415,0.53936575,8.7083052,9e-08,0.0,0.0,0.0,9e-08,0.0,0.0,0.0,9e-08
1531945926255346559,1934,1531945926254859032,base_link,0.0336402703372,0.035852384012,0.010810041886,-0.998732237272,1.0,0.0,0.0,0.0,1.0,0.0,0.0,0.0,1.0,0.141483619809,0.0523134469986,0.0588293969631,1.21846967915e-07,0.0,0.0,0.0,1.21846967915e-07,0.0,0.0,0.0,1.21846967915e-07,1.67693715,-0.10787315,9.7085835,9e-08,0.0,0.0,0.0,9e-08,0.0,0.0,0.0,9e-08
1531945926709549364,1935,1531945926707421571,base_link,-0.00655843767924,0.030990749675,-0.00581090511554,-0.999481262311,1.0,0.0,0.0,0.0,1.0,0.0,0.0,0.0,1.0,-0.027242725715,0.0272474009544,0.0337059944868,1.21846967915e-07,0.0,0.0,0.0,1.21846967915e-07,0.0,0.0,0.0,1.21846967915e-07,1.50041745,0.196133,10.11065615,9e-08,0.0,0.0,0.0,9e-08,0.0,0.0,0.0,9e-08
1531945927107358020,1936,1531945927104467080,base_link,-0.0418765337944,0.0242731387474,-0.00621939472746,-0.998808535097,1.0,0.0,0.0,0.0,1.0,0.0,0.0,0.0,1.0,0.0104555152357,0.0185112245381,-0.0400888435543,1.21846967915e-07,0.0,0.0,0.0,1.21846967915e-07,0.0,0.0,0.0,1.21846967915e-07,1.3337044,0.32361945,8.40429905,9e-08,0.0,0.0,0.0,9e-08,0.0,0.0,0.0,9e-08
1531945927511698766,1937,1531945927511356972,base_link,-0.0477187812992,0.0155502367166,0.0114088772213,-0.998674594435,1.0,0.0,0.0,0.0,1.0,0.0,0.0,0.0,1.0,0.110853776336,0.0435952469707,-0.114905804396,1.21846967915e-07,0.0,0.0,0.0,1.21846967915e-07,0.0,0.0,0.0,1.21846967915e-07,1.4317709,0.0980665,8.34545915,9e-08,0.0,0.0,0.0,9e-08,0.0,0.0,0.0,9e-08
1531945927781595210,1938,1531945927781235583,base_link,-0.0662719593041,0.0130556342617,0.0247956768794,-0.997408016928,1.0,0.0,0.0,0.0,1.0,0.0,0.0,0.0,1.0,0.0645612627268,-0.0117223653942,-0.104500435293,1.21846967915e-07,0.0,0.0,0.0,1.21846967915e-07,0.0,0.0,0.0,1.21846967915e-07,1.42196425,-0.0588399,9.022118,9e-08,0.0,0.0,0.0,9e-08,0.0,0.0,0.0,9e-08
1531945928279019450,1939,1531945928277815359,base_link,-0.0743415551386,0.0281519279917,0.0206755925696,-0.996620952018,1.0,0.0,0.0,0.0,1.0,0.0,0.0,0.0,1.0,-0.171232447028,-0.0830022543669,0.0826831459999,1.21846967915e-07,0.0,0.0,0.0,1.21846967915e-07,0.0,0.0,0.0,1.21846967915e-07,1.04931155,0.26477955,11.76798,9e-08,0.0,0.0,0.0,9e-08,0.0,0.0,0.0,9e-08
1531945928681050365,1940,1531945928680605034,base_link,-0.034031612066,0.0347736203108,0.00734194735384,-0.998788636559,1.0,0.0,0.0,0.0,1.0,0.0,0.0,0.0,1.0,0.0436817482114,-0.0319470092654,-0.00207321532071,1.21846967915e-07,0.0,0.0,0.0,1.21846967915e-07,0.0,0.0,0.0,1.21846967915e-07,0.7256921,0.46091255,10.4931155,9e-08,0.0,0.0,0.0,9e-08,0.0,0.0,0.0,9e-08
1531945929111987571,1941,1531945929111453269,base_link,-0.0163727843218,0.0385173519588,0.0149908006997,-0.999011321971,1.0,0.0,0.0,0.0,1.0,0.0,0.0,0.0,1.0,-0.178310498595,-0.00108488835394,-0.0108524002135,1.21846967915e-07,0.0,0.0,0.0,1.21846967915e-07,0.0,0.0,0.0,1.21846967915e-07,0.40207265,0.10787315,10.6892485,9e-08,0.0,0.0,0.0,9e-08,0.0,0.0,0.0,9e-08
1531945929463464130,1942,1531945929463193986,base_link,0.0205926232207,0.0341343717657,0.00911270449483,-0.999163523729,1.0,0.0,0.0,0.0,1.0,0.0,0.0,0.0,1.0,-0.152897000313,0.0397566445172,0.037977181375,1.21846967915e-07,0.0,0.0,0.0,1.21846967915e-07,0.0,0.0,0.0,1.21846967915e-07,0.2745862,0.2941995,9.40457735,9e-08,0.0,0.0,0.0,9e-08,0.0,0.0,0.0,9e-08
1531945929874323010,1943,1531945929873922019,base_link,0.0398875729159,0.026967575938,0.000971354408467,-0.998839720799,1.0,0.0,0.0,0.0,1.0,0.0,0.0,0.0,1.0,-0.0372457504272,0.0230196900666,0.0475536733866,1.21846967915e-07,0.0,0.0,0.0,1.21846967915e-07,0.0,0.0,0.0,1.21846967915e-07,0.48052585,0.28439285,10.4538889,9e-08,0.0,0.0,0.0,9e-08,0.0,0.0,0.0,9e-08
1531945930351797721,1944,1531945930351421606,base_link,0.0555564174975,0.0139194333751,-0.00571264832705,-0.998342175558,1.0,0.0,0.0,0.0,1.0,0.0,0.0,0.0,1.0,0.122756429017,0.0368439815938,0.00453865295276,1.21846967915e-07,0.0,0.0,0.0,1.21846967915e-07,0.0,0.0,0.0,1.21846967915e-07,0.3726527,1.04964625337e-15,8.5710121,9e-08,0.0,0.0,0.0,9e-08,0.0,0.0,0.0,9e-08
1531945930782732045,1945,1531945930782382920,base_link,0.0383880373663,0.00116595182203,-0.0153328777131,-0.999144585135,1.0,0.0,0.0,0.0,1.0,0.0,0.0,0.0,1.0,0.021325673908,0.0509349741042,0.0219004396349,1.21846967915e-07,0.0,0.0,0.0,1.21846967915e-07,0.0,0.0,0.0,1.21846967915e-07,0.3726527,0.00980665,8.91424485,9e-08,0.0,0.0,0.0,9e-08,0.0,0.0,0.0,9e-08
1531945931217353495,1946,1531945931216914439,base_link,0.0461644802239,-0.0101796518271,-0.0168340284856,-0.998740121823,1.0,0.0,0.0,0.0,1.0,0.0,0.0,0.0,1.0,0.00543815642595,0.059972435236,-0.0367514379323,1.21846967915e-07,0.0,0.0,0.0,1.21846967915e-07,0.0,0.0,0.0,1.21846967915e-07,0.34323275,0.4511059,10.0420096,9e-08,0.0,0.0,0.0,9e-08,0.0,0.0,0.0,9e-08
1531945931564351162,1947,1531945931564010328,base_link,0.0132531685919,-0.018777366902,-0.00815345888815,-0.999702598337,1.0,0.0,0.0,0.0,1.0,0.0,0.0,0.0,1.0,0.300293296576,0.0510317832232,-0.0156561508775,1.21846967915e-07,0.0,0.0,0.0,1.21846967915e-07,0.0,0.0,0.0,1.21846967915e-07,0.04903325,-0.06864655,7.61976705,9e-08,0.0,0.0,0.0,9e-08,0.0,0.0,0.0,9e-08
1531945931967632910,1948,1531945931967272323,base_link,-0.00151710110663,-0.0211900612284,-0.0269892765281,-0.999409955255,1.0,0.0,0.0,0.0,1.0,0.0,0.0,0.0,1.0,-0.10740365088,-0.00544739421457,0.0852390527725,1.21846967915e-07,0.0,0.0,0.0,1.21846967915e-07,0.0,0.0,0.0,1.21846967915e-07,0.2549729,0.26477955,10.2185293,9e-08,0.0,0.0,0.0,9e-08,0.0,0.0,0.0,9e-08
1531945932239983158,1949,1531945932239578998,base_link,-0.000503608499798,-0.0251136318758,-0.0298989889345,-0.999237260281,1.0,0.0,0.0,0.0,1.0,0.0,0.0,0.0,1.0,0.100346252322,0.0147237293422,-0.0707459300756,1.21846967915e-07,0.0,0.0,0.0,1.21846967915e-07,0.0,0.0,0.0,1.21846967915e-07,0.1372931,0.4707192,8.69849855,9e-08,0.0,0.0,0.0,9e-08,0.0,0.0,0.0,9e-08
1531945932692869242,1950,1531945932687303401,base_link,0.00364914894377,-0.0225929671315,-0.0231282944428,-0.999470521598,1.0,0.0,0.0,0.0,1.0,0.0,0.0,0.0,1.0,0.07621204108,0.0303935445845,-0.0483261458576,1.21846967915e-07,0.0,0.0,0.0,1.21846967915e-07,0.0,0.0,0.0,1.21846967915e-07,0.30400615,0.12748645,10.46369555,9e-08,0.0,0.0,0.0,9e-08,0.0,0.0,0.0,9e-08
1531945933099699330,1951,1531945933099042634,base_link,-0.0268385509668,-0.0225806666899,-0.0275729775783,-0.999004272554,1.0,0.0,0.0,0.0,1.0,0.0,0.0,0.0,1.0,0.195344507694,-0.0383470393717,0.135703757405,1.21846967915e-07,0.0,0.0,0.0,1.21846967915e-07,0.0,0.0,0.0,1.21846967915e-07,0.0784532,-0.6080123,8.8455983,9e-08,0.0,0.0,0.0,9e-08,0.0,0.0,0.0,9e-08
1531945933496163987,1952,1531945933492107118,base_link,-0.0298385359278,-0.00929530510717,-0.0591099725559,-0.997762131082,1.0,0.0,0.0,0.0,1.0,0.0,0.0,0.0,1.0,-0.274228185415,-0.0471412166953,0.148545503616,1.21846967915e-07,0.0,0.0,0.0,1.21846967915e-07,0.0,0.0,0.0,1.21846967915e-07,0.3530394,0.2745862,11.48358715,9e-08,0.0,0.0,0.0,9e-08,0.0,0.0,0.0,9e-08
1531945933858979623,1953,1531945933858590798,base_link,-0.00842799848399,-0.0145407007915,-0.0554838733974,-0.998318123974,1.0,0.0,0.0,0.0,1.0,0.0,0.0,0.0,1.0,-0.0026879333891,0.0555720739067,-0.141748860478,1.21846967915e-07,0.0,0.0,0.0,1.21846967915e-07,0.0,0.0,0.0,1.21846967915e-07,0.1176798,0.6668522,10.77750835,9e-08,0.0,0.0,0.0,9e-08,0.0,0.0,0.0,9e-08
1531945934336152879,1954,1531945934335583649,base_link,-0.0346616635334,-0.0187240683257,-0.027026041293,-0.99885813379,1.0,0.0,0.0,0.0,1.0,0.0,0.0,0.0,1.0,0.234944909811,-0.00375766959041,-0.0141710843891,1.21846967915e-07,0.0,0.0,0.0,1.21846967915e-07,0.0,0.0,0.0,1.21846967915e-07,-0.0588399,-0.2745862,10.591182,9e-08,0.0,0.0,0.0,9e-08,0.0,0.0,0.0,9e-08
1531945934680894851,1955,1531945934680135771,base_link,-0.0397310937877,-0.0173502027307,-0.0363236242015,-0.998399221242,1.0,0.0,0.0,0.0,1.0,0.0,0.0,0.0,1.0,-0.115411490202,0.00711997691542,0.0153273437172,1.21846967915e-07,0.0,0.0,0.0,1.21846967915e-07,0.0,0.0,0.0,1.21846967915e-07,-0.1765197,0.53936575,10.1793027,9e-08,0.0,0.0,0.0,9e-08,0.0,0.0,0.0,9e-08
1531945935081146778,1956,1531945935080706761,base_link,-0.00843664703997,-0.0285894922598,-0.0096028194487,-0.999509504596,1.0,0.0,0.0,0.0,1.0,0.0,0.0,0.0,1.0,-0.0676844492555,0.0894336625934,-0.270273953676,1.21846967915e-07,0.0,0.0,0.0,1.21846967915e-07,0.0,0.0,0.0,1.21846967915e-07,-0.42168595,0.16671305,6.6881353,9e-08,0.0,0.0,0.0,9e-08,0.0,0.0,0.0,9e-08
1531945935384450016,1957,1531945935383661066,base_link,-0.0233827377303,-0.0327991077771,0.0220100712224,-0.998945955931,1.0,0.0,0.0,0.0,1.0,0.0,0.0,0.0,1.0,0.160725176334,0.000745153054595,-0.167800173163,1.21846967915e-07,0.0,0.0,0.0,1.21846967915e-07,0.0,0.0,0.0,1.21846967915e-07,-0.38245935,-0.3334261,9.48303055,9e-08,0.0,0.0,0.0,9e-08,0.0,0.0,0.0,9e-08
1531945935798393879,1958,1531945935797987702,base_link,-0.043738900584,-0.0290407335031,0.0150064735772,-0.998508062123,1.0,0.0,0.0,0.0,1.0,0.0,0.0,0.0,1.0,-0.0542844459414,-0.0147527744994,0.160233303905,1.21846967915e-07,0.0,0.0,0.0,1.21846967915e-07,0.0,0.0,0.0,1.21846967915e-07,-0.392266,-0.0980665,10.73828175,9e-08,0.0,0.0,0.0,9e-08,0.0,0.0,0.0,9e-08
1531945936269977699,1959,1531945936269503330,base_link,-0.0198090618132,-0.0217793726604,0.0170983348142,-0.999420285437,1.0,0.0,0.0,0.0,1.0,0.0,0.0,0.0,1.0,-0.109493687749,-0.0306890066713,-0.149146199226,1.21846967915e-07,0.0,0.0,0.0,1.21846967915e-07,0.0,0.0,0.0,1.21846967915e-07,-0.46091255,0.2157463,10.0420096,9e-08,0.0,0.0,0.0,9e-08,0.0,0.0,0.0,9e-08
1531945936614348103,1960,1531945936613390016,base_link,-0.0507914234064,-0.0180446524022,0.032993216977,-0.998001036804,1.0,0.0,0.0,0.0,1.0,0.0,0.0,0.0,1.0,-0.191786825657,0.0285558141768,0.0318788811564,1.21846967915e-07,0.0,0.0,0.0,1.21846967915e-07,0.0,0.0,0.0,1.21846967915e-07,-0.1176798,-0.67665885,12.38579895,9e-08,0.0,0.0,0.0,9e-08,0.0,0.0,0.0,9e-08
1531945937093501402,1961,1531945937089222124,base_link,0.00291844100529,-0.0364524765374,0.0241906714541,-0.999038293095,1.0,0.0,0.0,0.0,1.0,0.0,0.0,0.0,1.0,-0.00851066969335,0.0699363574386,-0.0918087661266,1.21846967915e-07,0.0,0.0,0.0,1.21846967915e-07,0.0,0.0,0.0,1.21846967915e-07,-0.6276256,0.71588545,7.65899365,9e-08,0.0,0.0,0.0,9e-08,0.0,0.0,0.0,9e-08
1531945937498487223,1962,1531945937495913810,base_link,-0.0124422708711,-0.0430843293792,0.0470827709157,-0.997883832488,1.0,0.0,0.0,0.0,1.0,0.0,0.0,0.0,1.0,0.0988629385829,0.031155385077,-0.0907494500279,1.21846967915e-07,0.0,0.0,0.0,1.21846967915e-07,0.0,0.0,0.0,1.21846967915e-07,-0.2941995,0.0392266,8.0806796,9e-08,0.0,0.0,0.0,9e-08,0.0,0.0,0.0,9e-08
1531945937899144814,1963,1531945937896361829,base_link,-0.00752374723727,-0.0429272470813,0.0481960384607,-0.997886660179,1.0,0.0,0.0,0.0,1.0,0.0,0.0,0.0,1.0,0.127406269312,-0.00171453133225,0.037345468998,1.21846967915e-07,0.0,0.0,0.0,1.21846967915e-07,0.0,0.0,0.0,1.21846967915e-07,-0.1372931,-0.32361945,8.1787461,9e-08,0.0,0.0,0.0,9e-08,0.0,0.0,0.0,9e-08
1531945938331045677,1964,1531945938330798744,base_link,-0.0252147644353,-0.0307838818852,0.0391450628215,-0.998440900768,1.0,0.0,0.0,0.0,1.0,0.0,0.0,0.0,1.0,0.0133680831641,-0.0560489781201,0.0171453803778,1.21846967915e-07,0.0,0.0,0.0,1.21846967915e-07,0.0,0.0,0.0,1.21846967915e-07,0.20593965,0.34323275,11.76798,9e-08,0.0,0.0,0.0,9e-08,0.0,0.0,0.0,9e-08
1531945938753867448,1965,1531945938753602747,base_link,-0.00482094406025,-0.0232807866134,0.0445322168893,-0.998725009766,1.0,0.0,0.0,0.0,1.0,0.0,0.0,0.0,1.0,-0.160437822342,-0.0521843396127,-0.0580276213586,1.21846967915e-07,0.0,0.0,0.0,1.21846967915e-07,0.0,0.0,0.0,1.21846967915e-07,0.24516625,0.12748645,10.14988275,9e-08,0.0,0.0,0.0,9e-08,0.0,0.0,0.0,9e-08
1531945939167860551,1966,1531945939167165405,base_link,0.00487809913891,-0.0141796683534,0.0535383351566,-0.998453197613,1.0,0.0,0.0,0.0,1.0,0.0,0.0,0.0,1.0,-0.0439118929207,-0.0698246136308,0.0186652764678,1.21846967915e-07,0.0,0.0,0.0,1.21846967915e-07,0.0,0.0,0.0,1.21846967915e-07,0.3530394,-0.0588399,10.93441475,9e-08,0.0,0.0,0.0,9e-08,0.0,0.0,0.0,9e-08
1531945939480809006,1967,1531945939478864595,base_link,0.00423286961782,-0.00659940416815,0.0432771237067,-0.999032342441,1.0,0.0,0.0,0.0,1.0,0.0,0.0,0.0,1.0,-0.0870468020439,-0.0127174854279,0.0986801534891,1.21846967915e-07,0.0,0.0,0.0,1.21846967915e-07,0.0,0.0,0.0,1.21846967915e-07,0.5099458,0.00980665,10.60098865,9e-08,0.0,0.0,0.0,9e-08,0.0,0.0,0.0,9e-08
1531945939973834231,1968,1531945939973458821,base_link,0.0223687317637,-0.00926202234709,0.0304472669409,-0.999243122927,1.0,0.0,0.0,0.0,1.0,0.0,0.0,0.0,1.0,0.0522166416049,0.0371686555445,-0.00544017879292,1.21846967915e-07,0.0,0.0,0.0,1.21846967915e-07,0.0,0.0,0.0,1.21846967915e-07,0.79433865,-0.0588399,8.1983594,9e-08,0.0,0.0,0.0,9e-08,0.0,0.0,0.0,9e-08
1531945940312862228,1969,1531945940300929750,base_link,-0.000338886758434,-0.0105072102238,0.0284366437775,-0.999540314835,1.0,0.0,0.0,0.0,1.0,0.0,0.0,0.0,1.0,0.335023105145,0.00915828999132,0.0152881126851,1.21846967915e-07,0.0,0.0,0.0,1.21846967915e-07,0.0,0.0,0.0,1.21846967915e-07,1.30428445,0.04903325,8.69849855,9e-08,0.0,0.0,0.0,9e-08,0.0,0.0,0.0,9e-08
1531945940677570282,1970,1531945940677345119,base_link,-0.0342517801519,-0.0113523617365,0.013546221711,-0.999256943592,1.0,0.0,0.0,0.0,1.0,0.0,0.0,0.0,1.0,0.110291354358,0.0101844510064,0.0556800141931,1.21846967915e-07,0.0,0.0,0.0,1.21846967915e-07,0.0,0.0,0.0,1.21846967915e-07,1.99074995,0.18632635,10.52253545,9e-08,0.0,0.0,0.0,9e-08,0.0,0.0,0.0,9e-08
1531945941127256383,1971,1531945941126858755,base_link,-0.103353149541,-0.0214532436289,0.0326571844537,-0.993876950694,1.0,0.0,0.0,0.0,1.0,0.0,0.0,0.0,1.0,0.482431560755,0.0618416294456,-0.255401432514,1.21846967915e-07,0.0,0.0,0.0,1.21846967915e-07,0.0,0.0,0.0,1.21846967915e-07,2.0593965,0.5295591,7.91396655,9e-08,0.0,0.0,0.0,9e-08,0.0,0.0,0.0,9e-08
1531945941471011712,1972,1531945941470705390,base_link,-0.178304782154,-0.0105033180663,0.0692358035104,-0.981480253741,1.0,0.0,0.0,0.0,1.0,0.0,0.0,0.0,1.0,0.434498906136,-0.131241902709,-0.089421197772,1.21846967915e-07,0.0,0.0,0.0,1.21846967915e-07,0.0,0.0,0.0,1.21846967915e-07,1.9024901,-0.0588399,11.11093445,9e-08,0.0,0.0,0.0,9e-08,0.0,0.0,0.0,9e-08
1531945941884282007,1973,1531945941884017209,base_link,-0.243601549894,0.0259809657923,0.0869496027886,-0.965620547048,1.0,0.0,0.0,0.0,1.0,0.0,0.0,0.0,1.0,0.0342001989484,-0.176318973303,-0.0180000886321,1.21846967915e-07,0.0,0.0,0.0,1.21846967915e-07,0.0,0.0,0.0,1.21846967915e-07,1.96133,1.28503603102e-15,10.4931155,9e-08,0.0,0.0,0.0,9e-08,0.0,0.0,0.0,9e-08
1531945942170501940,1974,1531945942169368666,base_link,-0.236333759112,0.0530086684457,0.10917140893,-0.964063296079,1.0,0.0,0.0,0.0,1.0,0.0,0.0,0.0,1.0,-0.107116222382,-0.192359060049,-0.194540858269,1.21846967915e-07,0.0,0.0,0.0,1.21846967915e-07,0.0,0.0,0.0,1.21846967915e-07,1.9221034,0.93163175,13.83718315,9e-08,0.0,0.0,0.0,9e-08,0.0,0.0,0.0,9e-08
1531945942608351610,1975,1531945942607671095,base_link,-0.29434734623,0.0887418000225,0.188082621748,-0.932796580232,1.0,0.0,0.0,0.0,1.0,0.0,0.0,0.0,1.0,0.403049051762,-0.272365868092,-0.333443075418,1.21846967915e-07,0.0,0.0,0.0,1.21846967915e-07,0.0,0.0,0.0,1.21846967915e-07,0.73549875,0.1569064,13.2782041,9e-08,0.0,0.0,0.0,9e-08,0.0,0.0,0.0,9e-08
1531945943104390009,1976,1531945943103789211,base_link,-0.330568616368,0.15293269864,0.26123403332,-0.893919884215,1.0,0.0,0.0,0.0,1.0,0.0,0.0,0.0,1.0,0.104141302407,-0.345985412598,-0.259302228689,1.21846967915e-07,0.0,0.0,0.0,1.21846967915e-07,0.0,0.0,0.0,1.21846967915e-07,0.3334261,0.3334261,13.30762405,9e-08,0.0,0.0,0.0,9e-08,0.0,0.0,0.0,9e-08
1531945943603407901,1977,1531945943602997338,base_link,-0.312859714978,0.207786948117,0.350755528364,-0.857854266328,1.0,0.0,0.0,0.0,1.0,0.0,0.0,0.0,1.0,-0.168322786689,-0.327278256416,-0.322866916656,1.21846967915e-07,0.0,0.0,0.0,1.21846967915e-07,0.0,0.0,0.0,1.21846967915e-07,0.4903325,0.7256921,14.6707484,9e-08,0.0,0.0,0.0,9e-08,0.0,0.0,0.0,9e-08
1531945943987231137,1978,1531945943986995409,base_link,-0.296990059683,0.226937487484,0.431258571647,-0.821165224303,1.0,0.0,0.0,0.0,1.0,0.0,0.0,0.0,1.0,-0.0798933953047,-0.307418465614,-0.388280808926,1.21846967915e-07,0.0,0.0,0.0,1.21846967915e-07,0.0,0.0,0.0,1.21846967915e-07,0.06864655,0.55897905,13.3566573,9e-08,0.0,0.0,0.0,9e-08,0.0,0.0,0.0,9e-08
1531945944314711030,1979,1531945944314368564,base_link,-0.271116263237,0.236700839003,0.49643815463,-0.789948000346,1.0,0.0,0.0,0.0,1.0,0.0,0.0,0.0,1.0,-0.230382025242,-0.280479490757,-0.361757904291,1.21846967915e-07,0.0,0.0,0.0,1.21846967915e-07,0.0,0.0,0.0,1.21846967915e-07,0.4903325,0.44129925,12.20927925,9e-08,0.0,0.0,0.0,9e-08,0.0,0.0,0.0,9e-08
1531945944725735364,1980,1531945944723323276,base_link,-0.239452469479,0.252532829269,0.574019969039,-0.741208985473,1.0,0.0,0.0,0.0,1.0,0.0,0.0,0.0,1.0,-0.25283396244,-0.304920941591,-0.321819037199,1.21846967915e-07,0.0,0.0,0.0,1.21846967915e-07,0.0,0.0,0.0,1.21846967915e-07,0.24516625,0.51975245,12.7094184,9e-08,0.0,0.0,0.0,9e-08,0.0,0.0,0.0,9e-08
1531945945201830477,1981,1531945945201370706,base_link,-0.150278734758,0.239694788088,0.645736389137,-0.709215923529,1.0,0.0,0.0,0.0,1.0,0.0,0.0,0.0,1.0,-0.467709749937,-0.217929318547,-0.207551285625,1.21846967915e-07,0.0,0.0,0.0,1.21846967915e-07,0.0,0.0,0.0,1.21846967915e-07,0.20593965,0.57859235,12.32695905,9e-08,0.0,0.0,0.0,9e-08,0.0,0.0,0.0,9e-08
1531945945496672132,1982,1531945945496398883,base_link,0.0874958253066,-0.20595543643,-0.690375507799,0.68797419791,1.0,0.0,0.0,0.0,1.0,0.0,0.0,0.0,1.0,-0.567695081234,-0.155031472445,-0.178821831942,1.21846967915e-07,0.0,0.0,0.0,1.21846967915e-07,0.0,0.0,0.0,1.21846967915e-07,0.51975245,0.0784532,12.03275955,9e-08,0.0,0.0,0.0,9e-08,0.0,0.0,0.0,9e-08
1531945945892739321,1983,1531945945892270875,base_link,0.00459983136872,-0.148617052153,-0.725669612878,0.671785253118,1.0,0.0,0.0,0.0,1.0,0.0,0.0,0.0,1.0,-0.642662405968,-0.0461274012923,-0.0738701373339,1.21846967915e-07,0.0,0.0,0.0,1.21846967915e-07,0.0,0.0,0.0,1.21846967915e-07,0.6472389,0.28439285,11.62088025,9e-08,0.0,0.0,0.0,9e-08,0.0,0.0,0.0,9e-08
1531945946228035724,1984,1531945946227575377,base_link,-0.0605467606091,-0.0707356725669,-0.746563071126,0.658767132785,1.0,0.0,0.0,0.0,1.0,0.0,0.0,0.0,1.0,-0.50134575367,0.0230430103838,-0.0455513596535,1.21846967915e-07,0.0,0.0,0.0,1.21846967915e-07,0.0,0.0,0.0,1.21846967915e-07,0.8825985,0.18632635,10.81673495,9e-08,0.0,0.0,0.0,9e-08,0.0,0.0,0.0,9e-08
1531945946691742526,1985,1531945946691064989,base_link,-0.119823743132,0.0278560726984,-0.746671411093,0.65371868082,1.0,0.0,0.0,0.0,1.0,0.0,0.0,0.0,1.0,-0.314661830664,0.125424847007,0.0758500397205,1.21846967915e-07,0.0,0.0,0.0,1.21846967915e-07,0.0,0.0,0.0,1.21846967915e-07,1.81423025,-0.14709975,9.65955025,9e-08,0.0,0.0,0.0,9e-08,0.0,0.0,0.0,9e-08
1531945947066962960,1986,1531945947066431892,base_link,-0.104631081397,0.0639386482611,-0.736556798495,0.665167849986,1.0,0.0,0.0,0.0,1.0,0.0,0.0,0.0,1.0,0.13957631588,0.167947813869,0.132757782936,1.21846967915e-07,0.0,0.0,0.0,1.21846967915e-07,0.0,0.0,0.0,1.21846967915e-07,1.8436502,0.0196133,8.0806796,9e-08,0.0,0.0,0.0,9e-08,0.0,0.0,0.0,9e-08
1531945947494577053,1987,1531945947494309886,base_link,-0.0542703461903,0.0853235187859,-0.722462677597,0.683975369546,1.0,0.0,0.0,0.0,1.0,0.0,0.0,0.0,1.0,0.00343136396259,0.328798294067,0.0853269100189,1.21846967915e-07,0.0,0.0,0.0,1.21846967915e-07,0.0,0.0,0.0,1.21846967915e-07,-0.12748645,0.34323275,5.3348176,9e-08,0.0,0.0,0.0,9e-08,0.0,0.0,0.0,9e-08
1531945948000123227,1988,1531945947996851947,base_link,-0.0335601615849,0.21501331185,-0.697043289804,0.683208345544,1.0,0.0,0.0,0.0,1.0,0.0,0.0,0.0,1.0,-0.466362178326,0.365844428539,0.106436833739,1.21846967915e-07,0.0,0.0,0.0,1.21846967915e-07,0.0,0.0,0.0,1.21846967915e-07,-0.9022118,-0.12748645,3.50097405,9e-08,0.0,0.0,0.0,9e-08,0.0,0.0,0.0,9e-08
1531945948393979447,1989,1531945948391699549,base_link,-0.0356999457566,0.26723955921,-0.670872654348,0.690824444786,1.0,0.0,0.0,0.0,1.0,0.0,0.0,0.0,1.0,-0.0697781890631,0.0446282103658,0.155574783683,1.21846967915e-07,0.0,0.0,0.0,1.21846967915e-07,0.0,0.0,0.0,1.21846967915e-07,-1.01008495,-0.196133,4.8640984,9e-08,0.0,0.0,0.0,9e-08,0.0,0.0,0.0,9e-08
1531945948764503892,1990,1531945948763113344,base_link,0.0428882818674,-0.286613585664,0.633225009777,-0.71766241004,1.0,0.0,0.0,0.0,1.0,0.0,0.0,0.0,1.0,-0.338506668806,-0.0328395888209,0.297105520964,1.21846967915e-07,0.0,0.0,0.0,1.21846967915e-07,0.0,0.0,0.0,1.21846967915e-07,-1.2552512,-0.02941995,6.7077486,9e-08,0.0,0.0,0.0,9e-08,0.0,0.0,0.0,9e-08
1531945949102830501,1991,1531945949102563462,base_link,0.0878761474867,-0.295275560578,0.581766637364,-0.752753416252,1.0,0.0,0.0,0.0,1.0,0.0,0.0,0.0,1.0,-0.210071235895,-0.313087165356,0.238029971719,1.21846967915e-07,0.0,0.0,0.0,1.21846967915e-07,0.0,0.0,0.0,1.21846967915e-07,-1.08853815,0.0980665,10.3165958,9e-08,0.0,0.0,0.0,9e-08,0.0,0.0,0.0,9e-08
1531945949548441613,1992,1531945949545288437,base_link,0.133750309991,-0.255053434993,0.532123705643,-0.796180231963,1.0,0.0,0.0,0.0,1.0,0.0,0.0,0.0,1.0,0.0063916137442,-0.355963587761,0.190692842007,1.21846967915e-07,0.0,0.0,0.0,1.21846967915e-07,0.0,0.0,0.0,1.21846967915e-07,-0.980665,-0.10787315,14.13138265,9e-08,0.0,0.0,0.0,9e-08,0.0,0.0,0.0,9e-08
1531945949993933533,1993,1531945949993469889,base_link,0.152993923609,-0.190292825297,0.491498328727,-0.835949097038,1.0,0.0,0.0,0.0,1.0,0.0,0.0,0.0,1.0,0.172638639808,-0.376555979252,0.172796040773,1.21846967915e-07,0.0,0.0,0.0,1.21846967915e-07,0.0,0.0,0.0,1.21846967915e-07,-0.91201845,0.02941995,14.89630135,9e-08,0.0,0.0,0.0,9e-08,0.0,0.0,0.0,9e-08
1531945950522292387,1994,1531945950521130268,base_link,0.0740783082781,-0.0753735100548,0.447005806685,-0.888266315366,1.0,0.0,0.0,0.0,1.0,0.0,0.0,0.0,1.0,0.567370355129,-0.153274446726,0.260672271252,1.21846967915e-07,0.0,0.0,0.0,1.21846967915e-07,0.0,0.0,0.0,1.21846967915e-07,-0.6864655,0.3334261,14.36674225,9e-08,0.0,0.0,0.0,9e-08,0.0,0.0,0.0,9e-08
1531945950988659396,1995,1531945950988262631,base_link,-0.00928075796146,-0.0393030429851,0.41739549607,-0.907827152163,1.0,0.0,0.0,0.0,1.0,0.0,0.0,0.0,1.0,0.253526926041,0.160632073879,0.00368319451809,1.21846967915e-07,0.0,0.0,0.0,1.21846967915e-07,0.0,0.0,0.0,1.21846967915e-07,-1.24544455,1.10128788826e-15,8.99269805,9e-08,0.0,0.0,0.0,9e-08,0.0,0.0,0.0,9e-08
1531945951472147264,1996,1531945951471747778,base_link,-0.0898379151795,-0.0773675221016,0.434391746439,-0.892887017571,1.0,0.0,0.0,0.0,1.0,0.0,0.0,0.0,1.0,0.420889765024,0.353571951389,-0.132038533688,1.21846967915e-07,0.0,0.0,0.0,1.21846967915e-07,0.0,0.0,0.0,1.21846967915e-07,-1.176798,0.2353596,3.1185147,9e-08,0.0,0.0,0.0,9e-08,0.0,0.0,0.0,9e-08
1531945951775672143,1997,1531945951775388713,base_link,-0.158835447129,-0.0911646945379,0.440919709092,-0.878663820434,1.0,0.0,0.0,0.0,1.0,0.0,0.0,0.0,1.0,0.308777391911,0.224419936538,-0.039918769151,1.21846967915e-07,0.0,0.0,0.0,1.21846967915e-07,0.0,0.0,0.0,1.21846967915e-07,-1.30428445,0.0784532,4.7464186,9e-08,0.0,0.0,0.0,9e-08,0.0,0.0,0.0,9e-08
1531945952321458307,1998,1531945952321214927,base_link,-0.285897156096,-0.0451050287612,0.465585550817,-0.836336324326,1.0,0.0,0.0,0.0,1.0,0.0,0.0,0.0,1.0,0.625237226486,-0.0416609495878,-0.137813583016,1.21846967915e-07,0.0,0.0,0.0,1.21846967915e-07,0.0,0.0,0.0,1.21846967915e-07,-1.50041745,0.1569064,9.7085835,9e-08,0.0,0.0,0.0,9e-08,0.0,0.0,0.0,9e-08
1531945952715157716,1999,1531945952714813425,base_link,-0.31985326195,0.00469179548511,0.518488440581,-0.792995343529,1.0,0.0,0.0,0.0,1.0,0.0,0.0,0.0,1.0,0.119296483696,-0.28416004777,-0.288159370422,1.21846967915e-07,0.0,0.0,0.0,1.21846967915e-07,0.0,0.0,0.0,1.21846967915e-07,-1.20621795,0.8041453,11.34629405,9e-08,0.0,0.0,0.0,9e-08,0.0,0.0,0.0,9e-08
1531945953054871574,2000,1531945953054630468,base_link,-0.327188445811,0.0567348721896,0.579157489523,-0.744516942409,1.0,0.0,0.0,0.0,1.0,0.0,0.0,0.0,1.0,0.352323591709,-0.400935947895,-0.35155326128,1.21846967915e-07,0.0,0.0,0.0,1.21846967915e-07,0.0,0.0,0.0,1.21846967915e-07,-1.32389775,0.2549729,13.58221025,9e-08,0.0,0.0,0.0,9e-08,0.0,0.0,0.0,9e-08
1531945953489606134,2001,1531945953489282140,base_link,-0.315124881951,0.133738505093,0.640317689638,-0.687607138828,1.0,0.0,0.0,0.0,1.0,0.0,0.0,0.0,1.0,-0.208322733641,-0.436646819115,-0.205853745341,1.21846967915e-07,0.0,0.0,0.0,1.21846967915e-07,0.0,0.0,0.0,1.21846967915e-07,-1.28467115,0.26477955,14.2000292,9e-08,0.0,0.0,0.0,9e-08,0.0,0.0,0.0,9e-08
1531945953929287521,2002,1531945953928619556,base_link,0.269593743584,-0.198838411744,-0.695502920422,0.635655714298,1.0,0.0,0.0,0.0,1.0,0.0,0.0,0.0,1.0,0.359184592962,-0.422112882137,-0.194768816233,1.21846967915e-07,0.0,0.0,0.0,1.21846967915e-07,0.0,0.0,0.0,1.21846967915e-07,-0.8433719,0.14709975,16.9262779,9e-08,0.0,0.0,0.0,9e-08,0.0,0.0,0.0,9e-08
1531945954245365717,2003,1531945954245077452,base_link,0.23807572497,-0.231102677112,-0.729995076497,0.597510410037,1.0,0.0,0.0,0.0,1.0,0.0,0.0,0.0,1.0,-0.00213531358168,-0.403438568115,-0.260155022144,1.21846967915e-07,0.0,0.0,0.0,1.21846967915e-07,0.0,0.0,0.0,1.21846967915e-07,-1.0002783,0.73549875,15.6514134,9e-08,0.0,0.0,0.0,9e-08,0.0,0.0,0.0,9e-08
1531945954611161615,2004,1531945954610714139,base_link,0.204680074676,-0.269406588989,-0.775694461169,0.532751592913,1.0,0.0,0.0,0.0,1.0,0.0,0.0,0.0,1.0,0.0668781548738,-0.363063246012,-0.318502306938,1.21846967915e-07,0.0,0.0,0.0,1.21846967915e-07,0.0,0.0,0.0,1.21846967915e-07,-1.06892485,0.28439285,15.26895405,9e-08,0.0,0.0,0.0,9e-08,0.0,0.0,0.0,9e-08
1531945954886368546,2005,1531945954885980554,base_link,0.179637223451,-0.286184340458,-0.809365344283,0.480371450755,1.0,0.0,0.0,0.0,1.0,0.0,0.0,0.0,1.0,-0.200308546424,-0.379712700844,-0.335773974657,1.21846967915e-07,0.0,0.0,0.0,1.21846967915e-07,0.0,0.0,0.0,1.21846967915e-07,-0.8237586,0.8629852,16.2201991,9e-08,0.0,0.0,0.0,9e-08,0.0,0.0,0.0,9e-08
1531945955274486363,2006,1531945955274223134,base_link,0.148378034618,-0.294611940857,-0.853355270233,0.403698582997,1.0,0.0,0.0,0.0,1.0,0.0,0.0,0.0,1.0,0.0366337820888,-0.312432318926,-0.388670891523,1.21846967915e-07,0.0,0.0,0.0,1.21846967915e-07,0.0,0.0,0.0,1.21846967915e-07,-0.97085835,0.14709975,13.5920169,9e-08,0.0,0.0,0.0,9e-08,0.0,0.0,0.0,9e-08
1531945955698890550,2007,1531945955698418197,base_link,0.112669148074,-0.319334646476,-0.885689661911,0.317623785975,1.0,0.0,0.0,0.0,1.0,0.0,0.0,0.0,1.0,-0.0569825470448,-0.282426923513,-0.277766942978,1.21846967915e-07,0.0,0.0,0.0,1.21846967915e-07,0.0,0.0,0.0,1.21846967915e-07,-0.81395195,-0.1569064,13.44491715,9e-08,0.0,0.0,0.0,9e-08,0.0,0.0,0.0,9e-08
1531945956110537002,2008,1531945956109806096,base_link,0.0763607042992,-0.32250982084,-0.911606539885,0.243166557608,1.0,0.0,0.0,0.0,1.0,0.0,0.0,0.0,1.0,-0.0159518066794,-0.245193809271,-0.301577627659,1.21846967915e-07,0.0,0.0,0.0,1.21846967915e-07,0.0,0.0,0.0,1.21846967915e-07,-0.83356525,0.06864655,11.7091401,9e-08,0.0,0.0,0.0,9e-08,0.0,0.0,0.0,9e-08
1531945956561461196,2009,1531945956561121194,base_link,0.0539327665198,-0.329925700973,-0.930582431183,0.14918655203,1.0,0.0,0.0,0.0,1.0,0.0,0.0,0.0,1.0,-0.0680076703429,-0.222543627024,-0.392845064402,1.21846967915e-07,0.0,0.0,0.0,1.21846967915e-07,0.0,0.0,0.0,1.21846967915e-07,-0.85317855,0.10787315,10.64021525,9e-08,0.0,0.0,0.0,9e-08,0.0,0.0,0.0,9e-08
1531945956923109013,2010,1531945956922574776,base_link,0.0362895000912,-0.35351538811,-0.931906746284,0.0725241944633,1.0,0.0,0.0,0.0,1.0,0.0,0.0,0.0,1.0,0.147733584046,-0.297886282206,-0.281644254923,1.21846967915e-07,0.0,0.0,0.0,1.21846967915e-07,0.0,0.0,0.0,1.21846967915e-07,-0.588399,0.04903325,13.2193642,9e-08,0.0,0.0,0.0,9e-08,0.0,0.0,0.0,9e-08
1531945957399357831,2011,1531945957399016261,base_link,0.00268954728275,-0.36005767189,-0.932732640118,-0.0190016132706,1.0,0.0,0.0,0.0,1.0,0.0,0.0,0.0,1.0,-0.199281468987,-0.247712343931,-0.308546185493,1.21846967915e-07,0.0,0.0,0.0,1.21846967915e-07,0.0,0.0,0.0,1.21846967915e-07,-0.7256921,0.57859235,8.69849855,9e-08,0.0,0.0,0.0,9e-08,0.0,0.0,0.0,9e-08
1531945957801636639,2012,1531945957801361628,base_link,-0.00698391371403,-0.302529736391,-0.94671988226,-0.110219998556,1.0,0.0,0.0,0.0,1.0,0.0,0.0,0.0,1.0,-0.13565915823,-0.191027328372,-0.49748429656,1.21846967915e-07,0.0,0.0,0.0,1.21846967915e-07,0.0,0.0,0.0,1.21846967915e-07,-0.392266,0.75511205,11.71894675,9e-08,0.0,0.0,0.0,9e-08,0.0,0.0,0.0,9e-08
1531945958181256440,2013,1531945958180941090,base_link,-0.016657221879,-0.296728631064,-0.928896929601,-0.220964138818,1.0,0.0,0.0,0.0,1.0,0.0,0.0,0.0,1.0,-0.097842246294,-0.253308922052,-0.524513483047,1.21846967915e-07,0.0,0.0,0.0,1.21846967915e-07,0.0,0.0,0.0,1.21846967915e-07,-0.61781895,0.18632635,10.8265416,9e-08,0.0,0.0,0.0,9e-08,0.0,0.0,0.0,9e-08
1531945958574887945,2014,1531945958574536899,base_link,-0.0282182068168,-0.257073770114,-0.913217269023,-0.314882563954,1.0,0.0,0.0,0.0,1.0,0.0,0.0,0.0,1.0,0.0246762316674,-0.220637798309,-0.357197195292,1.21846967915e-07,0.0,0.0,0.0,1.21846967915e-07,0.0,0.0,0.0,1.21846967915e-07,-0.36284605,1.2598156977e-15,10.28717585,9e-08,0.0,0.0,0.0,9e-08,0.0,0.0,0.0,9e-08
1531945959024494681,2015,1531945959024265292,base_link,-0.047048096469,-0.208692065815,-0.899825441724,-0.380195045616,1.0,0.0,0.0,0.0,1.0,0.0,0.0,0.0,1.0,-0.671764552593,-0.20796944201,-0.214153140783,1.21846967915e-07,0.0,0.0,0.0,1.21846967915e-07,0.0,0.0,0.0,1.21846967915e-07,-0.0784532,0.08825985,12.17005265,9e-08,0.0,0.0,0.0,9e-08,0.0,0.0,0.0,9e-08
1531945959330218268,2016,1531945959329879868,base_link,-0.032242200542,-0.136525759711,-0.895483693894,-0.422409885548,1.0,0.0,0.0,0.0,1.0,0.0,0.0,0.0,1.0,-0.300027579069,-0.0664306655526,-0.296167969704,1.21846967915e-07,0.0,0.0,0.0,1.21846967915e-07,0.0,0.0,0.0,1.21846967915e-07,0.00980665,0.0980665,12.8859381,9e-08,0.0,0.0,0.0,9e-08,0.0,0.0,0.0,9e-08
1531945959795669002,2017,1531945959795289206,base_link,-0.0051638175015,-0.0514355698567,-0.874993352463,-0.481367167854,1.0,0.0,0.0,0.0,1.0,0.0,0.0,0.0,1.0,-0.188778221607,-0.0103459395468,-0.196551442146,1.21846967915e-07,0.0,0.0,0.0,1.21846967915e-07,0.0,0.0,0.0,1.21846967915e-07,-0.2745862,-0.2941995,11.48358715,9e-08,0.0,0.0,0.0,9e-08,0.0,0.0,0.0,9e-08
1531945960256079264,2018,1531945960255733244,base_link,0.0424940144133,0.0227940384357,-0.870238008817,-0.490265742798,1.0,0.0,0.0,0.0,1.0,0.0,0.0,0.0,1.0,-0.522232651711,0.0384658053517,0.0592367313802,1.21846967915e-07,0.0,0.0,0.0,1.21846967915e-07,0.0,0.0,0.0,1.21846967915e-07,-0.40207265,-0.2353596,9.07115125,9e-08,0.0,0.0,0.0,9e-08,0.0,0.0,0.0,9e-08
1531945960532233685,2019,1531945960531795301,base_link,0.0777491524463,0.0729816863279,-0.872647792174,-0.476565392752,1.0,0.0,0.0,0.0,1.0,0.0,0.0,0.0,1.0,-0.407409697771,0.0840216130018,0.118026606739,1.21846967915e-07,0.0,0.0,0.0,1.21846967915e-07,0.0,0.0,0.0,1.21846967915e-07,-0.5491724,-0.3726527,8.5513988,9e-08,0.0,0.0,0.0,9e-08,0.0,0.0,0.0,9e-08
1531945960954931302,2020,1531945960953571585,base_link,0.122783172335,0.12883253273,-0.88174361146,-0.436869173495,1.0,0.0,0.0,0.0,1.0,0.0,0.0,0.0,1.0,-0.175627693534,0.0016563218087,0.188696891069,1.21846967915e-07,0.0,0.0,0.0,1.21846967915e-07,0.0,0.0,0.0,1.21846967915e-07,-0.57859235,-0.22555295,8.71811185,9e-08,0.0,0.0,0.0,9e-08,0.0,0.0,0.0,9e-08
1531945961339391575,2021,1531945961339043762,base_link,0.132046888036,0.15058583293,-0.893689997245,-0.401504315176,1.0,0.0,0.0,0.0,1.0,0.0,0.0,0.0,1.0,-0.211919426918,-0.06169616431,0.193051934242,1.21846967915e-07,0.0,0.0,0.0,1.21846967915e-07,0.0,0.0,0.0,1.21846967915e-07,-0.5295591,-0.18632635,7.97280645,9e-08,0.0,0.0,0.0,9e-08,0.0,0.0,0.0,9e-08
1531945961801209994,2022,1531945961800999334,base_link,0.1356889971,0.191414665181,-0.909853711965,-0.342220900653,1.0,0.0,0.0,0.0,1.0,0.0,0.0,0.0,1.0,-0.167101815343,-0.117378570139,0.262265473604,1.21846967915e-07,0.0,0.0,0.0,1.21846967915e-07,0.0,0.0,0.0,1.21846967915e-07,-0.24516625,-0.36284605,9.89490985,9e-08,0.0,0.0,0.0,9e-08,0.0,0.0,0.0,9e-08
1531945962232858929,2023,1531945962232506666,base_link,0.13033344168,0.223035977057,-0.929808924528,-0.262151694228,1.0,0.0,0.0,0.0,1.0,0.0,0.0,0.0,1.0,-0.00281698047183,-0.173492923379,0.404260963202,1.21846967915e-07,0.0,0.0,0.0,1.21846967915e-07,0.0,0.0,0.0,1.21846967915e-07,-0.12748645,-0.59820565,10.8657682,9e-08,0.0,0.0,0.0,9e-08,0.0,0.0,0.0,9e-08
1531945962749175526,2024,1531945962748899907,base_link,0.103387621701,0.169501769506,-0.968671341768,-0.149184387425,1.0,0.0,0.0,0.0,1.0,0.0,0.0,0.0,1.0,0.622224867344,-0.167985931039,0.389009386301,1.21846967915e-07,0.0,0.0,0.0,1.21846967915e-07,0.0,0.0,0.0,1.21846967915e-07,1.59848395,-0.00980665,10.58137535,9e-08,0.0,0.0,0.0,9e-08,0.0,0.0,0.0,9e-08
