%time,field.header.seq,field.header.stamp,field.header.frame_id,field.orientation.x,field.orientation.y,field.orientation.z,field.orientation.w,field.orientation_covariance0,field.orientation_covariance1,field.orientation_covariance2,field.orientation_covariance3,field.orientation_covariance4,field.orientation_covariance5,field.orientation_covariance6,field.orientation_covariance7,field.orientation_covariance8,field.angular_velocity.x,field.angular_velocity.y,field.angular_velocity.z,field.angular_velocity_covariance0,field.angular_velocity_covariance1,field.angular_velocity_covariance2,field.angular_velocity_covariance3,field.angular_velocity_covariance4,field.angular_velocity_covariance5,field.angular_velocity_covariance6,field.angular_velocity_covariance7,field.angular_velocity_covariance8,field.linear_acceleration.x,field.linear_acceleration.y,field.linear_acceleration.z,field.linear_acceleration_covariance0,field.linear_acceleration_covariance1,field.linear_acceleration_covariance2,field.linear_acceleration_covariance3,field.linear_acceleration_covariance4,field.linear_acceleration_covariance5,field.linear_acceleration_covariance6,field.linear_acceleration_covariance7,field.linear_acceleration_covariance8
1531945830275893301,5843,1531945830274943186,base_link,0.0,0.0,0.0,0.0,-1.0,0.0,0.0,0.0,0.0,0.0,0.0,0.0,0.0,0.85,-0.181,-0.121,1.21846967915e-07,0.0,0.0,0.0,1.21846967915e-07,0.0,0.0,0.0,1.21846967915e-07,-0.6276256,0.392266,11.9052731,9e-08,0.0,0.0,0.0,9e-08,0.0,0.0,0.0,9e-08
1531945830364215784,5844,1531945830363789437,base_link,0.0,0.0,0.0,0.0,-1.0,0.0,0.0,0.0,0.0,0.0,0.0,0.0,0.0,0.727,-0.141,-0.199,1.21846967915e-07,0.0,0.0,0.0,1.21846967915e-07,0.0,0.0,0.0,1.21846967915e-07,-0.89240515,0.2549729,10.79712165,9e-08,0.0,0.0,0.0,9e-08,0.0,0.0,0.0,9e-08
1531945830490529124,5845,1531945830489861672,base_link,0.0,0.0,0.0,0.0,-1.0,0.0,0.0,0.0,0.0,0.0,0.0,0.0,0.0,0.877,-0.14,-0.167,1.21846967915e-07,0.0,0.0,0.0,1.21846967915e-07,0.0,0.0,0.0,1.21846967915e-07,-1.3533177,-0.20593965,12.0621795,9e-08,0.0,0.0,0.0,9e-08,0.0,0.0,0.0,9e-08
1531945830558812371,5846,1531945830558423067,base_link,0.0,0.0,0.0,0.0,-1.0,0.0,0.0,0.0,0.0,0.0,0.0,0.0,0.0,0.777,-0.142,-0.126,1.21846967915e-07,0.0,0.0,0.0,1.21846967915e-07,0.0,0.0,0.0,1.21846967915e-07,-1.36312435,-0.2941995,13.1212977,9e-08,0.0,0.0,0.0,9e-08,0.0,0.0,0.0,9e-08
1531945830681265192,5847,1531945830680916771,base_link,0.0,0.0,0.0,0.0,-1.0,0.0,0.0,0.0,0.0,0.0,0.0,0.0,0.0,0.34,-0.153,0.002,1.21846967915e-07,0.0,0.0,0.0,1.21846967915e-07,0.0,0.0,0.0,1.21846967915e-07,-1.5298374,-0.6472389,11.6306869,9e-08,0.0,0.0,0.0,9e-08,0.0,0.0,0.0,9e-08
1531945830792660959,5848,1531945830792105015,base_link,0.0,0.0,0.0,0.0,-1.0,0.0,0.0,0.0,0.0,0.0,0.0,0.0,0.0,0.95,-0.167,0.066,1.21846967915e-07,0.0,0.0,0.0,1.21846967915e-07,0.0,0.0,0.0,1.21846967915e-07,-1.81423025,-0.59820565,14.38635555,9e-08,0.0,0.0,0.0,9e-08,0.0,0.0,0.0,9e-08
1531945830901177696,5849,1531945830900763067,base_link,0.0,0.0,0.0,0.0,-1.0,0.0,0.0,0.0,0.0,0.0,0.0,0.0,0.0,0.661,-0.141,0.141,1.21846967915e-07,0.0,0.0,0.0,1.21846967915e-07,0.0,0.0,0.0,1.21846967915e-07,-1.7455837,0.02941995,13.0624578,9e-08,0.0,0.0,0.0,9e-08,0.0,0.0,0.0,9e-08
1531945830969678326,5850,1531945830969301955,base_link,0.0,0.0,0.0,0.0,-1.0,0.0,0.0,0.0,0.0,0.0,0.0,0.0,0.0,0.424,-0.17,0.151,1.21846967915e-07,0.0,0.0,0.0,1.21846967915e-07,0.0,0.0,0.0,1.21846967915e-07,-1.7259704,0.71588545,10.93441475,9e-08,0.0,0.0,0.0,9e-08,0.0,0.0,0.0,9e-08
1531945831065751558,5851,1531945831064556463,base_link,0.0,0.0,0.0,0.0,-1.0,0.0,0.0,0.0,0.0,0.0,0.0,0.0,0.0,0.221,-0.192,0.019,1.21846967915e-07,0.0,0.0,0.0,1.21846967915e-07,0.0,0.0,0.0,1.21846967915e-07,-1.81423025,0.4511059,11.66010685,9e-08,0.0,0.0,0.0,9e-08,0.0,0.0,0.0,9e-08
1531945831207802798,5852,1531945831207212791,base_link,0.0,0.0,0.0,0.0,-1.0,0.0,0.0,0.0,0.0,0.0,0.0,0.0,0.0,-0.019,-0.165,-0.127,1.21846967915e-07,0.0,0.0,0.0,1.21846967915e-07,0.0,0.0,0.0,1.21846967915e-07,-1.73577705,0.95124505,11.179581,9e-08,0.0,0.0,0.0,9e-08,0.0,0.0,0.0,9e-08
1531945831276342007,5853,1531945831274445491,base_link,0.0,0.0,0.0,0.0,-1.0,0.0,0.0,0.0,0.0,0.0,0.0,0.0,0.0,-0.044,-0.181,-0.207,1.21846967915e-07,0.0,0.0,0.0,1.21846967915e-07,0.0,0.0,0.0,1.21846967915e-07,-1.6867438,0.32361945,10.69905515,9e-08,0.0,0.0,0.0,9e-08,0.0,0.0,0.0,9e-08
1531945831384198462,5854,1531945831383726238,base_link,0.0,0.0,0.0,0.0,-1.0,0.0,0.0,0.0,0.0,0.0,0.0,0.0,0.0,-0.038,-0.157,-0.303,1.21846967915e-07,0.0,0.0,0.0,1.21846967915e-07,0.0,0.0,0.0,1.21846967915e-07,-1.73577705,0.2941995,10.1204628,9e-08,0.0,0.0,0.0,9e-08,0.0,0.0,0.0,9e-08
1531945831499047804,5855,1531945831498544301,base_link,0.0,0.0,0.0,0.0,-1.0,0.0,0.0,0.0,0.0,0.0,0.0,0.0,0.0,0.04,-0.192,-0.34,1.21846967915e-07,0.0,0.0,0.0,1.21846967915e-07,0.0,0.0,0.0,1.21846967915e-07,-1.53964405,0.46091255,10.34601575,9e-08,0.0,0.0,0.0,9e-08,0.0,0.0,0.0,9e-08
1531945831568477130,5856,1531945831566446791,base_link,0.0,0.0,0.0,0.0,-1.0,0.0,0.0,0.0,0.0,0.0,0.0,0.0,0.0,0.025,-0.198,-0.362,1.21846967915e-07,0.0,0.0,0.0,1.21846967915e-07,0.0,0.0,0.0,1.21846967915e-07,-1.5494507,-0.0784532,11.13054775,9e-08,0.0,0.0,0.0,9e-08,0.0,0.0,0.0,9e-08
1531945831671507008,5857,1531945831670504612,base_link,0.0,0.0,0.0,0.0,-1.0,0.0,0.0,0.0,0.0,0.0,0.0,0.0,0.0,-0.079,-0.164,-0.33,1.21846967915e-07,0.0,0.0,0.0,1.21846967915e-07,0.0,0.0,0.0,1.21846967915e-07,-1.42196425,-0.2549729,9.8458766,9e-08,0.0,0.0,0.0,9e-08,0.0,0.0,0.0,9e-08
1531945831760723163,5858,1531945831760261824,base_link,0.0,0.0,0.0,0.0,-1.0,0.0,0.0,0.0,0.0,0.0,0.0,0.0,0.0,-0.2,-0.144,-0.361,1.21846967915e-07,0.0,0.0,0.0,1.21846967915e-07,0.0,0.0,0.0,1.21846967915e-07,-1.4121576,0.18632635,9.0809579,9e-08,0.0,0.0,0.0,9e-08,0.0,0.0,0.0,9e-08
1531945831870543654,5859,1531945831869611436,base_link,0.0,0.0,0.0,0.0,-1.0,0.0,0.0,0.0,0.0,0.0,0.0,0.0,0.0,-0.091,-0.166,-0.365,1.21846967915e-07,0.0,0.0,0.0,1.21846967915e-07,0.0,0.0,0.0,1.21846967915e-07,-1.22583125,0.38245935,8.91424485,9e-08,0.0,0.0,0.0,9e-08,0.0,0.0,0.0,9e-08
1531945831968739494,5860,1531945831967977052,base_link,0.0,0.0,0.0,0.0,-1.0,0.0,0.0,0.0,0.0,0.0,0.0,0.0,0.0,-0.253,-0.195,-0.342,1.21846967915e-07,0.0,0.0,0.0,1.21846967915e-07,0.0,0.0,0.0,1.21846967915e-07,-1.3140911,0.00980665,8.71811185,9e-08,0.0,0.0,0.0,9e-08,0.0,0.0,0.0,9e-08
1531945832077602443,5861,1531945832076218810,base_link,0.0,0.0,0.0,0.0,-1.0,0.0,0.0,0.0,0.0,0.0,0.0,0.0,0.0,-0.305,-0.213,-0.317,1.21846967915e-07,0.0,0.0,0.0,1.21846967915e-07,0.0,0.0,0.0,1.21846967915e-07,-1.02969825,0.1176798,9.65955025,9e-08,0.0,0.0,0.0,9e-08,0.0,0.0,0.0,9e-08
1531945832180232226,5862,1531945832179580877,base_link,0.0,0.0,0.0,0.0,-1.0,0.0,0.0,0.0,0.0,0.0,0.0,0.0,0.0,-0.327,-0.192,-0.314,1.21846967915e-07,0.0,0.0,0.0,1.21846967915e-07,0.0,0.0,0.0,1.21846967915e-07,-0.79433865,0.59820565,10.81673495,9e-08,0.0,0.0,0.0,9e-08,0.0,0.0,0.0,9e-08
1531945832291730634,5863,1531945832290990538,base_link,0.0,0.0,0.0,0.0,-1.0,0.0,0.0,0.0,0.0,0.0,0.0,0.0,0.0,-0.275,-0.181,-0.32,1.21846967915e-07,0.0,0.0,0.0,1.21846967915e-07,0.0,0.0,0.0,1.21846967915e-07,-0.4118793,0.0196133,12.99381125,9e-08,0.0,0.0,0.0,9e-08,0.0,0.0,0.0,9e-08
1531945832365555998,5864,1531945832364853585,base_link,0.0,0.0,0.0,0.0,-1.0,0.0,0.0,0.0,0.0,0.0,0.0,0.0,0.0,-0.417,-0.166,-0.358,1.21846967915e-07,0.0,0.0,0.0,1.21846967915e-07,0.0,0.0,0.0,1.21846967915e-07,-0.24516625,-0.392266,13.8862164,9e-08,0.0,0.0,0.0,9e-08,0.0,0.0,0.0,9e-08
1531945832496196416,5865,1531945832495656928,base_link,0.0,0.0,0.0,0.0,-1.0,0.0,0.0,0.0,0.0,0.0,0.0,0.0,0.0,-0.434,-0.13,-0.352,1.21846967915e-07,0.0,0.0,0.0,1.21846967915e-07,0.0,0.0,0.0,1.21846967915e-07,-0.00980665,-0.28439285,13.3762706,9e-08,0.0,0.0,0.0,9e-08,0.0,0.0,0.0,9e-08
1531945832559057858,5866,1531945832558657124,base_link,0.0,0.0,0.0,0.0,-1.0,0.0,0.0,0.0,0.0,0.0,0.0,0.0,0.0,-0.468,-0.095,-0.329,1.21846967915e-07,0.0,0.0,0.0,1.21846967915e-07,0.0,0.0,0.0,1.21846967915e-07,-0.1372931,-0.2353596,12.6113519,9e-08,0.0,0.0,0.0,9e-08,0.0,0.0,0.0,9e-08
1531945832674338156,5867,1531945832671765512,base_link,0.0,0.0,0.0,0.0,-1.0,0.0,0.0,0.0,0.0,0.0,0.0,0.0,0.0,-0.513,-0.085,-0.276,1.21846967915e-07,0.0,0.0,0.0,1.21846967915e-07,0.0,0.0,0.0,1.21846967915e-07,-0.1569064,-0.8433719,12.77806495,9e-08,0.0,0.0,0.0,9e-08,0.0,0.0,0.0,9e-08
1531945832772072913,5868,1531945832771590732,base_link,0.0,0.0,0.0,0.0,-1.0,0.0,0.0,0.0,0.0,0.0,0.0,0.0,0.0,-0.394,-0.066,-0.212,1.21846967915e-07,0.0,0.0,0.0,1.21846967915e-07,0.0,0.0,0.0,1.21846967915e-07,-0.24516625,-1.1375714,11.62088025,9e-08,0.0,0.0,0.0,9e-08,0.0,0.0,0.0,9e-08
1531945832864112584,5869,1531945832863460531,base_link,0.0,0.0,0.0,0.0,-1.0,0.0,0.0,0.0,0.0,0.0,0.0,0.0,0.0,-0.455,-0.064,-0.099,1.21846967915e-07,0.0,0.0,0.0,1.21846967915e-07,0.0,0.0,0.0,1.21846967915e-07,-0.32361945,-1.0395049,10.2773692,9e-08,0.0,0.0,0.0,9e-08,0.0,0.0,0.0,9e-08
1531945832985499427,5870,1531945832984915086,base_link,0.0,0.0,0.0,0.0,-1.0,0.0,0.0,0.0,0.0,0.0,0.0,0.0,0.0,-0.305,-0.07,-0.023,1.21846967915e-07,0.0,0.0,0.0,1.21846967915e-07,0.0,0.0,0.0,1.21846967915e-07,-0.2157463,-1.0395049,10.8853815,9e-08,0.0,0.0,0.0,9e-08,0.0,0.0,0.0,9e-08
1531945833067203730,5871,1531945833065879262,base_link,0.0,0.0,0.0,0.0,-1.0,0.0,0.0,0.0,0.0,0.0,0.0,0.0,0.0,-0.267,-0.038,0.027,1.21846967915e-07,0.0,0.0,0.0,1.21846967915e-07,0.0,0.0,0.0,1.21846967915e-07,-0.1765197,-0.9022118,10.1793027,9e-08,0.0,0.0,0.0,9e-08,0.0,0.0,0.0,9e-08
1531945833163638286,5872,1531945833162737955,base_link,0.0,0.0,0.0,0.0,-1.0,0.0,0.0,0.0,0.0,0.0,0.0,0.0,0.0,-0.305,-0.02,0.05,1.21846967915e-07,0.0,0.0,0.0,1.21846967915e-07,0.0,0.0,0.0,1.21846967915e-07,-0.0980665,-0.2745862,9.63993695,9e-08,0.0,0.0,0.0,9e-08,0.0,0.0,0.0,9e-08
1531945833282909053,5873,1531945833280434919,base_link,0.0,0.0,0.0,0.0,-1.0,0.0,0.0,0.0,0.0,0.0,0.0,0.0,0.0,-0.44,0.051,0.042,1.21846967915e-07,0.0,0.0,0.0,1.21846967915e-07,0.0,0.0,0.0,1.21846967915e-07,0.0392266,0.61781895,8.99269805,9e-08,0.0,0.0,0.0,9e-08,0.0,0.0,0.0,9e-08
1531945833389769740,5874,1531945833389066174,base_link,0.0,0.0,0.0,0.0,-1.0,0.0,0.0,0.0,0.0,0.0,0.0,0.0,0.0,-0.49,0.096,0.034,1.21846967915e-07,0.0,0.0,0.0,1.21846967915e-07,0.0,0.0,0.0,1.21846967915e-07,0.0196133,0.7256921,8.42391235,9e-08,0.0,0.0,0.0,9e-08,0.0,0.0,0.0,9e-08
1531945833468014001,5875,1531945833466206584,base_link,0.0,0.0,0.0,0.0,-1.0,0.0,0.0,0.0,0.0,0.0,0.0,0.0,0.0,-0.441,0.119,-0.007,1.21846967915e-07,0.0,0.0,0.0,1.21846967915e-07,0.0,0.0,0.0,1.21846967915e-07,0.0,-0.28439285,8.5710121,9e-08,0.0,0.0,0.0,9e-08,0.0,0.0,0.0,9e-08
1531945833572278609,5876,1531945833571491323,base_link,0.0,0.0,0.0,0.0,-1.0,0.0,0.0,0.0,0.0,0.0,0.0,0.0,0.0,-0.421,0.165,-0.022,1.21846967915e-07,0.0,0.0,0.0,1.21846967915e-07,0.0,0.0,0.0,1.21846967915e-07,-0.0784532,-0.61781895,7.65899365,9e-08,0.0,0.0,0.0,9e-08,0.0,0.0,0.0,9e-08
1531945833666122335,5877,1531945833664533485,base_link,0.0,0.0,0.0,0.0,-1.0,0.0,0.0,0.0,0.0,0.0,0.0,0.0,0.0,-0.361,0.186,-0.019,1.21846967915e-07,0.0,0.0,0.0,1.21846967915e-07,0.0,0.0,0.0,1.21846967915e-07,-0.02941995,-0.53936575,7.5118939,9e-08,0.0,0.0,0.0,9e-08,0.0,0.0,0.0,9e-08
1531945833768900990,5878,1531945833766357607,base_link,0.0,0.0,0.0,0.0,-1.0,0.0,0.0,0.0,0.0,0.0,0.0,0.0,0.0,-0.299,0.187,-0.011,1.21846967915e-07,0.0,0.0,0.0,1.21846967915e-07,0.0,0.0,0.0,1.21846967915e-07,0.02941995,-0.40207265,7.46286065,9e-08,0.0,0.0,0.0,9e-08,0.0,0.0,0.0,9e-08
1531945833863806916,5879,1531945833861473233,base_link,0.0,0.0,0.0,0.0,-1.0,0.0,0.0,0.0,0.0,0.0,0.0,0.0,0.0,-0.252,0.204,0.011,1.21846967915e-07,0.0,0.0,0.0,1.21846967915e-07,0.0,0.0,0.0,1.21846967915e-07,0.0784532,0.08825985,6.75678185,9e-08,0.0,0.0,0.0,9e-08,0.0,0.0,0.0,9e-08
1531945834059244255,5880,1531945834055935901,base_link,0.0,0.0,0.0,0.0,-1.0,0.0,0.0,0.0,0.0,0.0,0.0,0.0,0.0,-0.146,0.177,0.029,1.21846967915e-07,0.0,0.0,0.0,1.21846967915e-07,0.0,0.0,0.0,1.21846967915e-07,0.22555295,-0.34323275,6.5508422,9e-08,0.0,0.0,0.0,9e-08,0.0,0.0,0.0,9e-08
1531945834085479071,5881,1531945834085048786,base_link,0.0,0.0,0.0,0.0,-1.0,0.0,0.0,0.0,0.0,0.0,0.0,0.0,0.0,-0.151,0.18,0.037,1.21846967915e-07,0.0,0.0,0.0,1.21846967915e-07,0.0,0.0,0.0,1.21846967915e-07,0.196133,-0.2157463,6.58026215,9e-08,0.0,0.0,0.0,9e-08,0.0,0.0,0.0,9e-08
1531945834164609608,5882,1531945834163762710,base_link,0.0,0.0,0.0,0.0,-1.0,0.0,0.0,0.0,0.0,0.0,0.0,0.0,0.0,-0.141,0.193,0.06,1.21846967915e-07,0.0,0.0,0.0,1.21846967915e-07,0.0,0.0,0.0,1.21846967915e-07,0.2745862,0.06864655,6.2566427,9e-08,0.0,0.0,0.0,9e-08,0.0,0.0,0.0,9e-08
1531945834280213900,5883,1531945834279081811,base_link,0.0,0.0,0.0,0.0,-1.0,0.0,0.0,0.0,0.0,0.0,0.0,0.0,0.0,-0.127,0.184,0.082,1.21846967915e-07,0.0,0.0,0.0,1.21846967915e-07,0.0,0.0,0.0,1.21846967915e-07,0.40207265,0.1765197,6.75678185,9e-08,0.0,0.0,0.0,9e-08,0.0,0.0,0.0,9e-08
1531945834370836258,5884,1531945834370385772,base_link,0.0,0.0,0.0,0.0,-1.0,0.0,0.0,0.0,0.0,0.0,0.0,0.0,0.0,-0.078,0.173,0.1,1.21846967915e-07,0.0,0.0,0.0,1.21846967915e-07,0.0,0.0,0.0,1.21846967915e-07,0.38245935,-0.00980665,7.03136805,9e-08,0.0,0.0,0.0,9e-08,0.0,0.0,0.0,9e-08
1531945834535385533,5885,1531945834534585409,base_link,0.0,0.0,0.0,0.0,-1.0,0.0,0.0,0.0,0.0,0.0,0.0,0.0,0.0,0.002,0.18,0.116,1.21846967915e-07,0.0,0.0,0.0,1.21846967915e-07,0.0,0.0,0.0,1.21846967915e-07,0.42168595,-0.0196133,6.59987545,9e-08,0.0,0.0,0.0,9e-08,0.0,0.0,0.0,9e-08
1531945834569298040,5886,1531945834568509570,base_link,0.0,0.0,0.0,0.0,-1.0,0.0,0.0,0.0,0.0,0.0,0.0,0.0,0.0,0.003,0.167,0.131,1.21846967915e-07,0.0,0.0,0.0,1.21846967915e-07,0.0,0.0,0.0,1.21846967915e-07,0.38245935,-0.18632635,6.63910205,9e-08,0.0,0.0,0.0,9e-08,0.0,0.0,0.0,9e-08
1531945834679088565,5887,1531945834678652870,base_link,0.0,0.0,0.0,0.0,-1.0,0.0,0.0,0.0,0.0,0.0,0.0,0.0,0.0,0.031,0.122,0.155,1.21846967915e-07,0.0,0.0,0.0,1.21846967915e-07,0.0,0.0,0.0,1.21846967915e-07,0.4903325,0.18632635,7.30595425,9e-08,0.0,0.0,0.0,9e-08,0.0,0.0,0.0,9e-08
1531945834786194328,5888,1531945834784434677,base_link,0.0,0.0,0.0,0.0,-1.0,0.0,0.0,0.0,0.0,0.0,0.0,0.0,0.0,0.021,0.108,0.168,1.21846967915e-07,0.0,0.0,0.0,1.21846967915e-07,0.0,0.0,0.0,1.21846967915e-07,0.46091255,0.22555295,7.5903471,9e-08,0.0,0.0,0.0,9e-08,0.0,0.0,0.0,9e-08
1531945834868553406,5889,1531945834864168701,base_link,0.0,0.0,0.0,0.0,-1.0,0.0,0.0,0.0,0.0,0.0,0.0,0.0,0.0,0.034,0.096,0.161,1.21846967915e-07,0.0,0.0,0.0,1.21846967915e-07,0.0,0.0,0.0,1.21846967915e-07,0.38245935,0.3334261,7.1980811,9e-08,0.0,0.0,0.0,9e-08,0.0,0.0,0.0,9e-08
1531945834988554311,5890,1531945834986197961,base_link,0.0,0.0,0.0,0.0,-1.0,0.0,0.0,0.0,0.0,0.0,0.0,0.0,0.0,0.159,0.016,0.119,1.21846967915e-07,0.0,0.0,0.0,1.21846967915e-07,0.0,0.0,0.0,1.21846967915e-07,0.42168595,0.06864655,8.36507245,9e-08,0.0,0.0,0.0,9e-08,0.0,0.0,0.0,9e-08
1531945835080756427,5891,1531945835080445720,base_link,0.0,0.0,0.0,0.0,-1.0,0.0,0.0,0.0,0.0,0.0,0.0,0.0,0.0,0.206,0.007,0.097,1.21846967915e-07,0.0,0.0,0.0,1.21846967915e-07,0.0,0.0,0.0,1.21846967915e-07,0.40207265,0.02941995,8.5317855,9e-08,0.0,0.0,0.0,9e-08,0.0,0.0,0.0,9e-08
1531945835180853617,5892,1531945835180123543,base_link,0.0,0.0,0.0,0.0,-1.0,0.0,0.0,0.0,0.0,0.0,0.0,0.0,0.0,0.27,0.008,0.086,1.21846967915e-07,0.0,0.0,0.0,1.21846967915e-07,0.0,0.0,0.0,1.21846967915e-07,0.40207265,0.1372931,8.6690786,9e-08,0.0,0.0,0.0,9e-08,0.0,0.0,0.0,9e-08
1531945835282669318,5893,1531945835277587547,base_link,0.0,0.0,0.0,0.0,-1.0,0.0,0.0,0.0,0.0,0.0,0.0,0.0,0.0,0.199,-0.023,0.06,1.21846967915e-07,0.0,0.0,0.0,1.21846967915e-07,0.0,0.0,0.0,1.21846967915e-07,0.4903325,0.12748645,9.30651085,9e-08,0.0,0.0,0.0,9e-08,0.0,0.0,0.0,9e-08
1531945835375192258,5894,1531945835367192335,base_link,0.0,0.0,0.0,0.0,-1.0,0.0,0.0,0.0,0.0,0.0,0.0,0.0,0.0,0.131,-0.042,0.037,1.21846967915e-07,0.0,0.0,0.0,1.21846967915e-07,0.0,0.0,0.0,1.21846967915e-07,0.51975245,0.1765197,10.2185293,9e-08,0.0,0.0,0.0,9e-08,0.0,0.0,0.0,9e-08
1531945835482317071,5895,1531945835471867601,base_link,0.0,0.0,0.0,0.0,-1.0,0.0,0.0,0.0,0.0,0.0,0.0,0.0,0.0,0.063,-0.065,0.017,1.21846967915e-07,0.0,0.0,0.0,1.21846967915e-07,0.0,0.0,0.0,1.21846967915e-07,0.5687857,0.1372931,11.2188076,9e-08,0.0,0.0,0.0,9e-08,0.0,0.0,0.0,9e-08
1531945835581894878,5896,1531945835581271190,base_link,0.0,0.0,0.0,0.0,-1.0,0.0,0.0,0.0,0.0,0.0,0.0,0.0,0.0,-0.056,-0.062,-0.003,1.21846967915e-07,0.0,0.0,0.0,1.21846967915e-07,0.0,0.0,0.0,1.21846967915e-07,0.51975245,0.2941995,10.87557485,9e-08,0.0,0.0,0.0,9e-08,0.0,0.0,0.0,9e-08
1531945835682158451,5897,1531945835681743886,base_link,0.0,0.0,0.0,0.0,-1.0,0.0,0.0,0.0,0.0,0.0,0.0,0.0,0.0,-0.055,-0.041,-0.006,1.21846967915e-07,0.0,0.0,0.0,1.21846967915e-07,0.0,0.0,0.0,1.21846967915e-07,0.3726527,0.55897905,10.4931155,9e-08,0.0,0.0,0.0,9e-08,0.0,0.0,0.0,9e-08
1531945835789647500,5898,1531945835788999416,base_link,0.0,0.0,0.0,0.0,-1.0,0.0,0.0,0.0,0.0,0.0,0.0,0.0,0.0,-0.096,-0.078,-0.016,1.21846967915e-07,0.0,0.0,0.0,1.21846967915e-07,0.0,0.0,0.0,1.21846967915e-07,0.34323275,0.02941995,11.5914603,9e-08,0.0,0.0,0.0,9e-08,0.0,0.0,0.0,9e-08
1531945835892968748,5899,1531945835891456766,base_link,0.0,0.0,0.0,0.0,-1.0,0.0,0.0,0.0,0.0,0.0,0.0,0.0,0.0,-0.039,-0.054,-0.023,1.21846967915e-07,0.0,0.0,0.0,1.21846967915e-07,0.0,0.0,0.0,1.21846967915e-07,0.2549729,0.73549875,10.89518815,9e-08,0.0,0.0,0.0,9e-08,0.0,0.0,0.0,9e-08
1531945835980244750,5900,1531945835979170961,base_link,0.0,0.0,0.0,0.0,-1.0,0.0,0.0,0.0,0.0,0.0,0.0,0.0,0.0,-0.039,-0.039,-0.042,1.21846967915e-07,0.0,0.0,0.0,1.21846967915e-07,0.0,0.0,0.0,1.21846967915e-07,0.0980665,0.7649187,9.91452315,9e-08,0.0,0.0,0.0,9e-08,0.0,0.0,0.0,9e-08
1531945836108470710,5901,1531945836105669637,base_link,0.0,0.0,0.0,0.0,-1.0,0.0,0.0,0.0,0.0,0.0,0.0,0.0,0.0,-0.186,-0.065,-0.089,1.21846967915e-07,0.0,0.0,0.0,1.21846967915e-07,0.0,0.0,0.0,1.21846967915e-07,-0.00980665,1.25861472944e-15,10.2773692,9e-08,0.0,0.0,0.0,9e-08,0.0,0.0,0.0,9e-08
1531945836177603544,5902,1531945836175823884,base_link,0.0,0.0,0.0,0.0,-1.0,0.0,0.0,0.0,0.0,0.0,0.0,0.0,0.0,-0.134,-0.101,-0.091,1.21846967915e-07,0.0,0.0,0.0,1.21846967915e-07,0.0,0.0,0.0,1.21846967915e-07,0.08825985,-0.3138128,11.24822755,9e-08,0.0,0.0,0.0,9e-08,0.0,0.0,0.0,9e-08
1531945836285538501,5903,1531945836283755959,base_link,0.0,0.0,0.0,0.0,-1.0,0.0,0.0,0.0,0.0,0.0,0.0,0.0,0.0,0.024,-0.078,-0.063,1.21846967915e-07,0.0,0.0,0.0,1.21846967915e-07,0.0,0.0,0.0,1.21846967915e-07,-0.00980665,-0.34323275,10.81673495,9e-08,0.0,0.0,0.0,9e-08,0.0,0.0,0.0,9e-08
1531945836374854800,5904,1531945836374453553,base_link,0.0,0.0,0.0,0.0,-1.0,0.0,0.0,0.0,0.0,0.0,0.0,0.0,0.0,0.07,-0.081,-0.001,1.21846967915e-07,0.0,0.0,0.0,1.21846967915e-07,0.0,0.0,0.0,1.21846967915e-07,-0.0392266,-0.0784532,10.24794925,9e-08,0.0,0.0,0.0,9e-08,0.0,0.0,0.0,9e-08
1531945836471314744,5905,1531945836470748107,base_link,0.0,0.0,0.0,0.0,-1.0,0.0,0.0,0.0,0.0,0.0,0.0,0.0,0.0,0.047,-0.082,0.085,1.21846967915e-07,0.0,0.0,0.0,1.21846967915e-07,0.0,0.0,0.0,1.21846967915e-07,0.196133,0.53936575,10.4146623,9e-08,0.0,0.0,0.0,9e-08,0.0,0.0,0.0,9e-08
1531945836548402424,5906,1531945836547891814,base_link,0.0,0.0,0.0,0.0,-1.0,0.0,0.0,0.0,0.0,0.0,0.0,0.0,0.0,0.038,-0.11,0.149,1.21846967915e-07,0.0,0.0,0.0,1.21846967915e-07,0.0,0.0,0.0,1.21846967915e-07,0.4118793,0.81395195,11.6895268,9e-08,0.0,0.0,0.0,9e-08,0.0,0.0,0.0,9e-08
1531945836672700665,5907,1531945836672125576,base_link,0.0,0.0,0.0,0.0,-1.0,0.0,0.0,0.0,0.0,0.0,0.0,0.0,0.0,0.14,-0.086,0.14,1.21846967915e-07,0.0,0.0,0.0,1.21846967915e-07,0.0,0.0,0.0,1.21846967915e-07,0.3530394,0.57859235,11.30706745,9e-08,0.0,0.0,0.0,9e-08,0.0,0.0,0.0,9e-08
1531945836763892093,5908,1531945836762542781,base_link,0.0,0.0,0.0,0.0,-1.0,0.0,0.0,0.0,0.0,0.0,0.0,0.0,0.0,0.036,-0.09,0.111,1.21846967915e-07,0.0,0.0,0.0,1.21846967915e-07,0.0,0.0,0.0,1.21846967915e-07,0.2941995,0.2941995,11.75817335,9e-08,0.0,0.0,0.0,9e-08,0.0,0.0,0.0,9e-08
1531945836877949827,5909,1531945836877545923,base_link,0.0,0.0,0.0,0.0,-1.0,0.0,0.0,0.0,0.0,0.0,0.0,0.0,0.0,0.09,-0.074,0.084,1.21846967915e-07,0.0,0.0,0.0,1.21846967915e-07,0.0,0.0,0.0,1.21846967915e-07,0.34323275,0.4707192,11.75817335,9e-08,0.0,0.0,0.0,9e-08,0.0,0.0,0.0,9e-08
1531945836993117047,5910,1531945836992510647,base_link,0.0,0.0,0.0,0.0,-1.0,0.0,0.0,0.0,0.0,0.0,0.0,0.0,0.0,0.127,-0.023,0.077,1.21846967915e-07,0.0,0.0,0.0,1.21846967915e-07,0.0,0.0,0.0,1.21846967915e-07,0.02941995,0.6080123,10.52253545,9e-08,0.0,0.0,0.0,9e-08,0.0,0.0,0.0,9e-08
1531945837068617254,5911,1531945837067785307,base_link,0.0,0.0,0.0,0.0,-1.0,0.0,0.0,0.0,0.0,0.0,0.0,0.0,0.0,-0.073,-0.05,0.027,1.21846967915e-07,0.0,0.0,0.0,1.21846967915e-07,0.0,0.0,0.0,1.21846967915e-07,0.196133,0.89240515,10.2185293,9e-08,0.0,0.0,0.0,9e-08,0.0,0.0,0.0,9e-08
1531945837174620702,5912,1531945837173220038,base_link,0.0,0.0,0.0,0.0,-1.0,0.0,0.0,0.0,0.0,0.0,0.0,0.0,0.0,0.111,0.023,-0.028,1.21846967915e-07,0.0,0.0,0.0,1.21846967915e-07,0.0,0.0,0.0,1.21846967915e-07,0.0,0.4707192,8.09048625,9e-08,0.0,0.0,0.0,9e-08,0.0,0.0,0.0,9e-08
1531945837280128235,5913,1531945837279366338,base_link,0.0,0.0,0.0,0.0,-1.0,0.0,0.0,0.0,0.0,0.0,0.0,0.0,0.0,0.104,-0.032,-0.055,1.21846967915e-07,0.0,0.0,0.0,1.21846967915e-07,0.0,0.0,0.0,1.21846967915e-07,0.02941995,0.0784532,9.0613446,9e-08,0.0,0.0,0.0,9e-08,0.0,0.0,0.0,9e-08
1531945837369633648,5914,1531945837369148137,base_link,0.0,0.0,0.0,0.0,-1.0,0.0,0.0,0.0,0.0,0.0,0.0,0.0,0.0,0.286,-0.072,-0.027,1.21846967915e-07,0.0,0.0,0.0,1.21846967915e-07,0.0,0.0,0.0,1.21846967915e-07,0.10787315,-0.61781895,11.0226746,9e-08,0.0,0.0,0.0,9e-08,0.0,0.0,0.0,9e-08
1531945837493702307,5915,1531945837492053749,base_link,0.0,0.0,0.0,0.0,-1.0,0.0,0.0,0.0,0.0,0.0,0.0,0.0,0.0,0.351,-0.038,0.038,1.21846967915e-07,0.0,0.0,0.0,1.21846967915e-07,0.0,0.0,0.0,1.21846967915e-07,0.1569064,-0.42168595,10.787315,9e-08,0.0,0.0,0.0,9e-08,0.0,0.0,0.0,9e-08
1531945837577285037,5916,1531945837576718657,base_link,0.0,0.0,0.0,0.0,-1.0,0.0,0.0,0.0,0.0,0.0,0.0,0.0,0.0,0.275,-0.028,0.086,1.21846967915e-07,0.0,0.0,0.0,1.21846967915e-07,0.0,0.0,0.0,1.21846967915e-07,0.2549729,0.40207265,10.99325465,9e-08,0.0,0.0,0.0,9e-08,0.0,0.0,0.0,9e-08
1531945837684948281,5917,1531945837683010914,base_link,0.0,0.0,0.0,0.0,-1.0,0.0,0.0,0.0,0.0,0.0,0.0,0.0,0.0,0.224,-0.044,0.096,1.21846967915e-07,0.0,0.0,0.0,1.21846967915e-07,0.0,0.0,0.0,1.21846967915e-07,0.2745862,0.08825985,11.0226746,9e-08,0.0,0.0,0.0,9e-08,0.0,0.0,0.0,9e-08
1531945837762423057,5918,1531945837759767397,base_link,0.0,0.0,0.0,0.0,-1.0,0.0,0.0,0.0,0.0,0.0,0.0,0.0,0.0,0.205,-0.079,0.118,1.21846967915e-07,0.0,0.0,0.0,1.21846967915e-07,0.0,0.0,0.0,1.21846967915e-07,0.38245935,-0.196133,11.81701325,9e-08,0.0,0.0,0.0,9e-08,0.0,0.0,0.0,9e-08
1531945837878460931,5919,1531945837877106400,base_link,0.0,0.0,0.0,0.0,-1.0,0.0,0.0,0.0,0.0,0.0,0.0,0.0,0.0,0.0,-0.052,0.126,1.21846967915e-07,0.0,0.0,0.0,1.21846967915e-07,0.0,0.0,0.0,1.21846967915e-07,0.4314926,0.7453054,11.375714,9e-08,0.0,0.0,0.0,9e-08,0.0,0.0,0.0,9e-08
1531945837976907961,5920,1531945837976465223,base_link,0.0,0.0,0.0,0.0,-1.0,0.0,0.0,0.0,0.0,0.0,0.0,0.0,0.0,-0.055,-0.038,0.094,1.21846967915e-07,0.0,0.0,0.0,1.21846967915e-07,0.0,0.0,0.0,1.21846967915e-07,0.42168595,0.40207265,10.395049,9e-08,0.0,0.0,0.0,9e-08,0.0,0.0,0.0,9e-08
1531945838071654485,5921,1531945838070827628,base_link,0.0,0.0,0.0,0.0,-1.0,0.0,0.0,0.0,0.0,0.0,0.0,0.0,0.0,-0.044,0.034,0.004,1.21846967915e-07,0.0,0.0,0.0,1.21846967915e-07,0.0,0.0,0.0,1.21846967915e-07,0.24516625,1.0002783,9.5712904,9e-08,0.0,0.0,0.0,9e-08,0.0,0.0,0.0,9e-08
1531945838189948500,5922,1531945838189602224,base_link,0.0,0.0,0.0,0.0,-1.0,0.0,0.0,0.0,0.0,0.0,0.0,0.0,0.0,0.014,0.073,-0.115,1.21846967915e-07,0.0,0.0,0.0,1.21846967915e-07,0.0,0.0,0.0,1.21846967915e-07,0.2549729,1.2552512,9.11037785,9e-08,0.0,0.0,0.0,9e-08,0.0,0.0,0.0,9e-08
1531945838277247362,5923,1531945838276004788,base_link,0.0,0.0,0.0,0.0,-1.0,0.0,0.0,0.0,0.0,0.0,0.0,0.0,0.0,0.057,0.095,-0.199,1.21846967915e-07,0.0,0.0,0.0,1.21846967915e-07,0.0,0.0,0.0,1.21846967915e-07,0.1372931,0.85317855,7.97280645,9e-08,0.0,0.0,0.0,9e-08,0.0,0.0,0.0,9e-08
1531945838388403143,5924,1531945838386444101,base_link,0.0,0.0,0.0,0.0,-1.0,0.0,0.0,0.0,0.0,0.0,0.0,0.0,0.0,0.044,0.11,-0.266,1.21846967915e-07,0.0,0.0,0.0,1.21846967915e-07,0.0,0.0,0.0,1.21846967915e-07,-0.04903325,0.2549729,8.0022264,9e-08,0.0,0.0,0.0,9e-08,0.0,0.0,0.0,9e-08
1531945838461958299,5925,1531945838459519029,base_link,0.0,0.0,0.0,0.0,-1.0,0.0,0.0,0.0,0.0,0.0,0.0,0.0,0.0,0.133,0.101,-0.335,1.21846967915e-07,0.0,0.0,0.0,1.21846967915e-07,0.0,0.0,0.0,1.21846967915e-07,-0.16671305,-0.10787315,9.7870367,9e-08,0.0,0.0,0.0,9e-08,0.0,0.0,0.0,9e-08
1531945838572810031,5926,1531945838567211439,base_link,0.0,0.0,0.0,0.0,-1.0,0.0,0.0,0.0,0.0,0.0,0.0,0.0,0.0,0.314,0.096,-0.265,1.21846967915e-07,0.0,0.0,0.0,1.21846967915e-07,0.0,0.0,0.0,1.21846967915e-07,-0.2745862,1.2748645,7.1392412,9e-08,0.0,0.0,0.0,9e-08,0.0,0.0,0.0,9e-08
1531945838695997313,5927,1531945838695166327,base_link,0.0,0.0,0.0,0.0,-1.0,0.0,0.0,0.0,0.0,0.0,0.0,0.0,0.0,0.22,0.087,-0.335,1.21846967915e-07,0.0,0.0,0.0,1.21846967915e-07,0.0,0.0,0.0,1.21846967915e-07,-0.3334261,0.7453054,4.97197155,9e-08,0.0,0.0,0.0,9e-08,0.0,0.0,0.0,9e-08
1531945838781151317,5928,1531945838779607864,base_link,0.0,0.0,0.0,0.0,-1.0,0.0,0.0,0.0,0.0,0.0,0.0,0.0,0.0,0.094,0.054,-0.391,1.21846967915e-07,0.0,0.0,0.0,1.21846967915e-07,0.0,0.0,0.0,1.21846967915e-07,-0.40207265,0.81395195,5.3348176,9e-08,0.0,0.0,0.0,9e-08,0.0,0.0,0.0,9e-08
1531945838904081388,5929,1531945838903493109,base_link,0.0,0.0,0.0,0.0,-1.0,0.0,0.0,0.0,0.0,0.0,0.0,0.0,0.0,0.343,-0.058,-0.539,1.21846967915e-07,0.0,0.0,0.0,1.21846967915e-07,0.0,0.0,0.0,1.21846967915e-07,-0.2549729,0.02941995,7.58054045,9e-08,0.0,0.0,0.0,9e-08,0.0,0.0,0.0,9e-08
1531945838995246756,5930,1531945838994538420,base_link,0.0,0.0,0.0,0.0,-1.0,0.0,0.0,0.0,0.0,0.0,0.0,0.0,0.0,0.317,-0.079,-0.47,1.21846967915e-07,0.0,0.0,0.0,1.21846967915e-07,0.0,0.0,0.0,1.21846967915e-07,-0.28439285,-0.36284605,8.1787461,9e-08,0.0,0.0,0.0,9e-08,0.0,0.0,0.0,9e-08
1531945839064604881,5931,1531945839063992718,base_link,0.0,0.0,0.0,0.0,-1.0,0.0,0.0,0.0,0.0,0.0,0.0,0.0,0.0,0.165,-0.103,-0.351,1.21846967915e-07,0.0,0.0,0.0,1.21846967915e-07,0.0,0.0,0.0,1.21846967915e-07,-0.12748645,0.2353596,9.4339973,9e-08,0.0,0.0,0.0,9e-08,0.0,0.0,0.0,9e-08
1531945839167439530,5932,1531945839166615106,base_link,0.0,0.0,0.0,0.0,-1.0,0.0,0.0,0.0,0.0,0.0,0.0,0.0,0.0,0.208,-0.123,-0.261,1.21846967915e-07,0.0,0.0,0.0,1.21846967915e-07,0.0,0.0,0.0,1.21846967915e-07,-0.1176798,1.1697430787e-15,9.5516771,9e-08,0.0,0.0,0.0,9e-08,0.0,0.0,0.0,9e-08
1531945839287055101,5933,1531945839286422448,base_link,0.0,0.0,0.0,0.0,-1.0,0.0,0.0,0.0,0.0,0.0,0.0,0.0,0.0,-0.132,-0.155,-0.23,1.21846967915e-07,0.0,0.0,0.0,1.21846967915e-07,0.0,0.0,0.0,1.21846967915e-07,0.14709975,-0.22555295,10.93441475,9e-08,0.0,0.0,0.0,9e-08,0.0,0.0,0.0,9e-08
1531945839371352186,5934,1531945839370239594,base_link,0.0,0.0,0.0,0.0,-1.0,0.0,0.0,0.0,0.0,0.0,0.0,0.0,0.0,-0.107,-0.139,-0.189,1.21846967915e-07,0.0,0.0,0.0,1.21846967915e-07,0.0,0.0,0.0,1.21846967915e-07,0.2157463,-0.30400615,10.8461549,9e-08,0.0,0.0,0.0,9e-08,0.0,0.0,0.0,9e-08
1531945839488848031,5935,1531945839486798578,base_link,0.0,0.0,0.0,0.0,-1.0,0.0,0.0,0.0,0.0,0.0,0.0,0.0,0.0,0.101,-0.135,-0.077,1.21846967915e-07,0.0,0.0,0.0,1.21846967915e-07,0.0,0.0,0.0,1.21846967915e-07,0.2941995,-0.36284605,10.1793027,9e-08,0.0,0.0,0.0,9e-08,0.0,0.0,0.0,9e-08
1531945839580882067,5936,1531945839572215395,base_link,0.0,0.0,0.0,0.0,-1.0,0.0,0.0,0.0,0.0,0.0,0.0,0.0,0.0,0.165,-0.147,0.008,1.21846967915e-07,0.0,0.0,0.0,1.21846967915e-07,0.0,0.0,0.0,1.21846967915e-07,0.38245935,-0.3138128,11.6503002,9e-08,0.0,0.0,0.0,9e-08,0.0,0.0,0.0,9e-08
1531945839684288763,5937,1531945839683566084,base_link,0.0,0.0,0.0,0.0,-1.0,0.0,0.0,0.0,0.0,0.0,0.0,0.0,0.0,0.132,-0.168,0.099,1.21846967915e-07,0.0,0.0,0.0,1.21846967915e-07,0.0,0.0,0.0,1.21846967915e-07,0.2745862,-0.1765197,10.83634825,9e-08,0.0,0.0,0.0,9e-08,0.0,0.0,0.0,9e-08
1531945839799015230,5938,1531945839798227240,base_link,0.0,0.0,0.0,0.0,-1.0,0.0,0.0,0.0,0.0,0.0,0.0,0.0,0.0,-0.227,-0.17,0.165,1.21846967915e-07,0.0,0.0,0.0,1.21846967915e-07,0.0,0.0,0.0,1.21846967915e-07,0.38245935,0.00980665,10.5519554,9e-08,0.0,0.0,0.0,9e-08,0.0,0.0,0.0,9e-08
1531945839899560536,5939,1531945839898934383,base_link,0.0,0.0,0.0,0.0,-1.0,0.0,0.0,0.0,0.0,0.0,0.0,0.0,0.0,-0.296,-0.197,0.164,1.21846967915e-07,0.0,0.0,0.0,1.21846967915e-07,0.0,0.0,0.0,1.21846967915e-07,0.9414384,0.196133,12.24850585,9e-08,0.0,0.0,0.0,9e-08,0.0,0.0,0.0,9e-08
1531945839981189796,5940,1531945839978126582,base_link,0.0,0.0,0.0,0.0,-1.0,0.0,0.0,0.0,0.0,0.0,0.0,0.0,0.0,-0.44,-0.218,0.166,1.21846967915e-07,0.0,0.0,0.0,1.21846967915e-07,0.0,0.0,0.0,1.21846967915e-07,1.79461695,0.95124505,16.75956485,9e-08,0.0,0.0,0.0,9e-08,0.0,0.0,0.0,9e-08
1531945840082033868,5941,1531945840079453988,base_link,0.0,0.0,0.0,0.0,-1.0,0.0,0.0,0.0,0.0,0.0,0.0,0.0,0.0,-0.42,-0.077,0.03,1.21846967915e-07,0.0,0.0,0.0,1.21846967915e-07,0.0,0.0,0.0,1.21846967915e-07,1.176798,0.67665885,14.32751565,9e-08,0.0,0.0,0.0,9e-08,0.0,0.0,0.0,9e-08
1531945840173021680,5942,1531945840172312863,base_link,0.0,0.0,0.0,0.0,-1.0,0.0,0.0,0.0,0.0,0.0,0.0,0.0,0.0,-0.456,0.02,-0.011,1.21846967915e-07,0.0,0.0,0.0,1.21846967915e-07,0.0,0.0,0.0,1.21846967915e-07,0.63743225,0.7649187,12.3171524,9e-08,0.0,0.0,0.0,9e-08,0.0,0.0,0.0,9e-08
1531945840259804904,5943,1531945840259279247,base_link,0.0,0.0,0.0,0.0,-1.0,0.0,0.0,0.0,0.0,0.0,0.0,0.0,0.0,-0.244,0.033,-0.067,1.21846967915e-07,0.0,0.0,0.0,1.21846967915e-07,0.0,0.0,0.0,1.21846967915e-07,0.12748645,0.28439285,10.0616229,9e-08,0.0,0.0,0.0,9e-08,0.0,0.0,0.0,9e-08
1531945840403142483,5944,1531945840402463569,base_link,0.0,0.0,0.0,0.0,-1.0,0.0,0.0,0.0,0.0,0.0,0.0,0.0,0.0,-0.133,0.001,-0.103,1.21846967915e-07,0.0,0.0,0.0,1.21846967915e-07,0.0,0.0,0.0,1.21846967915e-07,-0.0980665,0.42168595,9.09076455,9e-08,0.0,0.0,0.0,9e-08,0.0,0.0,0.0,9e-08
1531945840487231757,5945,1531945840486379481,base_link,0.0,0.0,0.0,0.0,-1.0,0.0,0.0,0.0,0.0,0.0,0.0,0.0,0.0,0.009,-0.022,-0.189,1.21846967915e-07,0.0,0.0,0.0,1.21846967915e-07,0.0,0.0,0.0,1.21846967915e-07,0.08825985,0.7649187,8.2964259,9e-08,0.0,0.0,0.0,9e-08,0.0,0.0,0.0,9e-08
1531945840588265071,5946,1531945840587110027,base_link,0.0,0.0,0.0,0.0,-1.0,0.0,0.0,0.0,0.0,0.0,0.0,0.0,0.0,-0.071,-0.052,-0.237,1.21846967915e-07,0.0,0.0,0.0,1.21846967915e-07,0.0,0.0,0.0,1.21846967915e-07,0.22555295,0.44129925,10.44408225,9e-08,0.0,0.0,0.0,9e-08,0.0,0.0,0.0,9e-08
1531945840671412715,5947,1531945840670635450,base_link,0.0,0.0,0.0,0.0,-1.0,0.0,0.0,0.0,0.0,0.0,0.0,0.0,0.0,0.009,-0.071,-0.234,1.21846967915e-07,0.0,0.0,0.0,1.21846967915e-07,0.0,0.0,0.0,1.21846967915e-07,0.18632635,-0.1765197,10.002783,9e-08,0.0,0.0,0.0,9e-08,0.0,0.0,0.0,9e-08
1531945840775086194,5948,1531945840773157631,base_link,0.0,0.0,0.0,0.0,-1.0,0.0,0.0,0.0,0.0,0.0,0.0,0.0,0.0,0.343,-0.059,-0.257,1.21846967915e-07,0.0,0.0,0.0,1.21846967915e-07,0.0,0.0,0.0,1.21846967915e-07,0.20593965,0.2745862,9.80665,9e-08,0.0,0.0,0.0,9e-08,0.0,0.0,0.0,9e-08
1531945840854855210,5949,1531945840853570857,base_link,0.0,0.0,0.0,0.0,-1.0,0.0,0.0,0.0,0.0,0.0,0.0,0.0,0.0,0.766,-0.072,-0.222,1.21846967915e-07,0.0,0.0,0.0,1.21846967915e-07,0.0,0.0,0.0,1.21846967915e-07,0.1372931,-0.1765197,8.93385815,9e-08,0.0,0.0,0.0,9e-08,0.0,0.0,0.0,9e-08
1531945840997861239,5950,1531945840996267331,base_link,0.0,0.0,0.0,0.0,-1.0,0.0,0.0,0.0,0.0,0.0,0.0,0.0,0.0,0.825,-0.044,-0.12,1.21846967915e-07,0.0,0.0,0.0,1.21846967915e-07,0.0,0.0,0.0,1.21846967915e-07,0.10787315,0.3138128,7.69822025,9e-08,0.0,0.0,0.0,9e-08,0.0,0.0,0.0,9e-08
1531945841111040380,5951,1531945841110520133,base_link,0.0,0.0,0.0,0.0,-1.0,0.0,0.0,0.0,0.0,0.0,0.0,0.0,0.0,0.587,-0.075,-0.098,1.21846967915e-07,0.0,0.0,0.0,1.21846967915e-07,0.0,0.0,0.0,1.21846967915e-07,0.28439285,0.85317855,8.1787461,9e-08,0.0,0.0,0.0,9e-08,0.0,0.0,0.0,9e-08
1531945841186415376,5952,1531945841182022636,base_link,0.0,0.0,0.0,0.0,-1.0,0.0,0.0,0.0,0.0,0.0,0.0,0.0,0.0,0.553,-0.031,-0.157,1.21846967915e-07,0.0,0.0,0.0,1.21846967915e-07,0.0,0.0,0.0,1.21846967915e-07,0.30400615,0.8825985,6.99214145,9e-08,0.0,0.0,0.0,9e-08,0.0,0.0,0.0,9e-08
1531945841294564322,5953,1531945841293911308,base_link,0.0,0.0,0.0,0.0,-1.0,0.0,0.0,0.0,0.0,0.0,0.0,0.0,0.0,0.41,-0.034,-0.267,1.21846967915e-07,0.0,0.0,0.0,1.21846967915e-07,0.0,0.0,0.0,1.21846967915e-07,0.40207265,0.784532,6.3154826,9e-08,0.0,0.0,0.0,9e-08,0.0,0.0,0.0,9e-08
1531945841400965687,5954,1531945841399997036,base_link,0.0,0.0,0.0,0.0,-1.0,0.0,0.0,0.0,0.0,0.0,0.0,0.0,0.0,0.377,-0.025,-0.353,1.21846967915e-07,0.0,0.0,0.0,1.21846967915e-07,0.0,0.0,0.0,1.21846967915e-07,0.40207265,0.8433719,6.0016698,9e-08,0.0,0.0,0.0,9e-08,0.0,0.0,0.0,9e-08
1531945841470830516,5955,1531945841470308157,base_link,0.0,0.0,0.0,0.0,-1.0,0.0,0.0,0.0,0.0,0.0,0.0,0.0,0.0,0.459,-0.037,-0.449,1.21846967915e-07,0.0,0.0,0.0,1.21846967915e-07,0.0,0.0,0.0,1.21846967915e-07,0.59820565,0.4707192,6.32528925,9e-08,0.0,0.0,0.0,9e-08,0.0,0.0,0.0,9e-08
1531945841580670857,5956,1531945841579532045,base_link,0.0,0.0,0.0,0.0,-1.0,0.0,0.0,0.0,0.0,0.0,0.0,0.0,0.0,0.601,-0.146,-0.47,1.21846967915e-07,0.0,0.0,0.0,1.21846967915e-07,0.0,0.0,0.0,1.21846967915e-07,0.980665,0.32361945,8.1395195,9e-08,0.0,0.0,0.0,9e-08,0.0,0.0,0.0,9e-08
1531945841708868164,5957,1531945841708382365,base_link,0.0,0.0,0.0,0.0,-1.0,0.0,0.0,0.0,0.0,0.0,0.0,0.0,0.0,0.68,-0.264,-0.403,1.21846967915e-07,0.0,0.0,0.0,1.21846967915e-07,0.0,0.0,0.0,1.21846967915e-07,1.65732385,0.1765197,10.32640245,9e-08,0.0,0.0,0.0,9e-08,0.0,0.0,0.0,9e-08
1531945841790644757,5958,1531945841785523703,base_link,0.0,0.0,0.0,0.0,-1.0,0.0,0.0,0.0,0.0,0.0,0.0,0.0,0.0,0.281,-0.314,-0.311,1.21846967915e-07,0.0,0.0,0.0,1.21846967915e-07,0.0,0.0,0.0,1.21846967915e-07,1.7848103,0.0588399,10.99325465,9e-08,0.0,0.0,0.0,9e-08,0.0,0.0,0.0,9e-08
1531945841880855080,5959,1531945841880453513,base_link,0.0,0.0,0.0,0.0,-1.0,0.0,0.0,0.0,0.0,0.0,0.0,0.0,0.0,0.084,-0.364,-0.196,1.21846967915e-07,0.0,0.0,0.0,1.21846967915e-07,0.0,0.0,0.0,1.21846967915e-07,1.9221034,0.42168595,11.22861425,9e-08,0.0,0.0,0.0,9e-08,0.0,0.0,0.0,9e-08
1531945841965648592,5960,1531945841961832478,base_link,0.0,0.0,0.0,0.0,-1.0,0.0,0.0,0.0,0.0,0.0,0.0,0.0,0.0,-0.028,-0.399,-0.153,1.21846967915e-07,0.0,0.0,0.0,1.21846967915e-07,0.0,0.0,0.0,1.21846967915e-07,2.1378497,0.4314926,11.964113,9e-08,0.0,0.0,0.0,9e-08,0.0,0.0,0.0,9e-08
1531945842105957214,5961,1531945842105224482,base_link,0.0,0.0,0.0,0.0,-1.0,0.0,0.0,0.0,0.0,0.0,0.0,0.0,0.0,-0.213,-0.342,-0.16,1.21846967915e-07,0.0,0.0,0.0,1.21846967915e-07,0.0,0.0,0.0,1.21846967915e-07,1.7848103,1.12776475,9.9831697,9e-08,0.0,0.0,0.0,9e-08,0.0,0.0,0.0,9e-08
1531945842184938112,5962,1531945842176166462,base_link,0.0,0.0,0.0,0.0,-1.0,0.0,0.0,0.0,0.0,0.0,0.0,0.0,0.0,-0.048,-0.369,-0.22,1.21846967915e-07,0.0,0.0,0.0,1.21846967915e-07,0.0,0.0,0.0,1.21846967915e-07,1.81423025,0.9414384,11.0030613,9e-08,0.0,0.0,0.0,9e-08,0.0,0.0,0.0,9e-08
1531945842289128124,5963,1531945842288797407,base_link,0.0,0.0,0.0,0.0,-1.0,0.0,0.0,0.0,0.0,0.0,0.0,0.0,0.0,-0.042,-0.357,-0.336,1.21846967915e-07,0.0,0.0,0.0,1.21846967915e-07,0.0,0.0,0.0,1.21846967915e-07,1.7848103,0.6276256,11.30706745,9e-08,0.0,0.0,0.0,9e-08,0.0,0.0,0.0,9e-08
1531945842408063628,5964,1531945842407421147,base_link,0.0,0.0,0.0,0.0,-1.0,0.0,0.0,0.0,0.0,0.0,0.0,0.0,0.0,0.297,-0.407,-0.351,1.21846967915e-07,0.0,0.0,0.0,1.21846967915e-07,0.0,0.0,0.0,1.21846967915e-07,1.9809433,0.85317855,13.0036179,9e-08,0.0,0.0,0.0,9e-08,0.0,0.0,0.0,9e-08
1531945842466522246,5965,1531945842465963196,base_link,0.0,0.0,0.0,0.0,-1.0,0.0,0.0,0.0,0.0,0.0,0.0,0.0,0.0,0.396,-0.447,-0.323,1.21846967915e-07,0.0,0.0,0.0,1.21846967915e-07,0.0,0.0,0.0,1.21846967915e-07,2.1770763,0.5295591,13.7685366,9e-08,0.0,0.0,0.0,9e-08,0.0,0.0,0.0,9e-08
1531945842556407582,5966,1531945842554619374,base_link,0.0,0.0,0.0,0.0,-1.0,0.0,0.0,0.0,0.0,0.0,0.0,0.0,0.0,0.345,-0.464,-0.328,1.21846967915e-07,0.0,0.0,0.0,1.21846967915e-07,0.0,0.0,0.0,1.21846967915e-07,2.20649625,0.6276256,13.9842829,9e-08,0.0,0.0,0.0,9e-08,0.0,0.0,0.0,9e-08
1531945842674657033,5967,1531945842674129102,base_link,0.0,0.0,0.0,0.0,-1.0,0.0,0.0,0.0,0.0,0.0,0.0,0.0,0.0,0.221,-0.507,-0.278,1.21846967915e-07,0.0,0.0,0.0,1.21846967915e-07,0.0,0.0,0.0,1.21846967915e-07,2.36340265,0.85317855,14.85707475,9e-08,0.0,0.0,0.0,9e-08,0.0,0.0,0.0,9e-08
1531945842779079187,5968,1531945842778683223,base_link,0.0,0.0,0.0,0.0,-1.0,0.0,0.0,0.0,0.0,0.0,0.0,0.0,0.0,0.053,-0.506,-0.248,1.21846967915e-07,0.0,0.0,0.0,1.21846967915e-07,0.0,0.0,0.0,1.21846967915e-07,2.50069575,1.0787315,14.75900825,9e-08,0.0,0.0,0.0,9e-08,0.0,0.0,0.0,9e-08
1531945842903569807,5969,1531945842899245771,base_link,0.0,0.0,0.0,0.0,-1.0,0.0,0.0,0.0,0.0,0.0,0.0,0.0,0.0,0.044,-0.516,-0.256,1.21846967915e-07,0.0,0.0,0.0,1.21846967915e-07,0.0,0.0,0.0,1.21846967915e-07,2.6281822,0.93163175,14.7492016,9e-08,0.0,0.0,0.0,9e-08,0.0,0.0,0.0,9e-08
1531945842988611181,5970,1531945842987836157,base_link,0.0,0.0,0.0,0.0,-1.0,0.0,0.0,0.0,0.0,0.0,0.0,0.0,0.0,0.156,-0.508,-0.267,1.21846967915e-07,0.0,0.0,0.0,1.21846967915e-07,0.0,0.0,0.0,1.21846967915e-07,2.61837555,0.87279185,13.73911665,9e-08,0.0,0.0,0.0,9e-08,0.0,0.0,0.0,9e-08
1531945843072156645,5971,1531945843071639856,base_link,0.0,0.0,0.0,0.0,-1.0,0.0,0.0,0.0,0.0,0.0,0.0,0.0,0.0,0.032,-0.502,-0.308,1.21846967915e-07,0.0,0.0,0.0,1.21846967915e-07,0.0,0.0,0.0,1.21846967915e-07,2.5889556,1.0395049,12.87613145,9e-08,0.0,0.0,0.0,9e-08,0.0,0.0,0.0,9e-08
1531945843163916215,5972,1531945843162704792,base_link,0.0,0.0,0.0,0.0,-1.0,0.0,0.0,0.0,0.0,0.0,0.0,0.0,0.0,-0.01,-0.474,-0.354,1.21846967915e-07,0.0,0.0,0.0,1.21846967915e-07,0.0,0.0,0.0,1.21846967915e-07,2.69682875,1.36312435,13.6116302,9e-08,0.0,0.0,0.0,9e-08,0.0,0.0,0.0,9e-08
1531945843275612413,5973,1531945843275109230,base_link,0.0,0.0,0.0,0.0,-1.0,0.0,0.0,0.0,0.0,0.0,0.0,0.0,0.0,-0.075,-0.494,-0.423,1.21846967915e-07,0.0,0.0,0.0,1.21846967915e-07,0.0,0.0,0.0,1.21846967915e-07,3.12832135,0.97085835,14.15099595,9e-08,0.0,0.0,0.0,9e-08,0.0,0.0,0.0,9e-08
1531945843369973665,5974,1531945843367851922,base_link,0.0,0.0,0.0,0.0,-1.0,0.0,0.0,0.0,0.0,0.0,0.0,0.0,0.0,-0.139,-0.479,-0.429,1.21846967915e-07,0.0,0.0,0.0,1.21846967915e-07,0.0,0.0,0.0,1.21846967915e-07,2.9616083,1.3337044,14.5922952,9e-08,0.0,0.0,0.0,9e-08,0.0,0.0,0.0,9e-08
1531945843474656390,5975,1531945843473937649,base_link,0.0,0.0,0.0,0.0,-1.0,0.0,0.0,0.0,0.0,0.0,0.0,0.0,0.0,-0.176,-0.498,-0.448,1.21846967915e-07,0.0,0.0,0.0,1.21846967915e-07,0.0,0.0,0.0,1.21846967915e-07,3.2950344,0.7453054,14.4746154,9e-08,0.0,0.0,0.0,9e-08,0.0,0.0,0.0,9e-08
1531945843568908151,5976,1531945843568404488,base_link,0.0,0.0,0.0,0.0,-1.0,0.0,0.0,0.0,0.0,0.0,0.0,0.0,0.0,-0.088,-0.531,-0.44,1.21846967915e-07,0.0,0.0,0.0,1.21846967915e-07,0.0,0.0,0.0,1.21846967915e-07,3.4127142,0.8041453,15.85735305,9e-08,0.0,0.0,0.0,9e-08,0.0,0.0,0.0,9e-08
1531945843668794264,5977,1531945843668041715,base_link,0.0,0.0,0.0,0.0,-1.0,0.0,0.0,0.0,0.0,0.0,0.0,0.0,0.0,-0.209,-0.557,-0.391,1.21846967915e-07,0.0,0.0,0.0,1.21846967915e-07,0.0,0.0,0.0,1.21846967915e-07,3.20677455,0.95124505,15.97503285,9e-08,0.0,0.0,0.0,9e-08,0.0,0.0,0.0,9e-08
1531945843777846679,5978,1531945843777138567,base_link,0.0,0.0,0.0,0.0,-1.0,0.0,0.0,0.0,0.0,0.0,0.0,0.0,0.0,-0.182,-0.547,-0.366,1.21846967915e-07,0.0,0.0,0.0,1.21846967915e-07,0.0,0.0,0.0,1.21846967915e-07,3.1185147,1.1571847,15.5141203,9e-08,0.0,0.0,0.0,9e-08,0.0,0.0,0.0,9e-08
1531945843878824351,5979,1531945843877908108,base_link,0.0,0.0,0.0,0.0,-1.0,0.0,0.0,0.0,0.0,0.0,0.0,0.0,0.0,-0.192,-0.545,-0.354,1.21846967915e-07,0.0,0.0,0.0,1.21846967915e-07,0.0,0.0,0.0,1.21846967915e-07,3.1969679,0.99047165,15.298374,9e-08,0.0,0.0,0.0,9e-08,0.0,0.0,0.0,9e-08
1531945843977213178,5980,1531945843976842827,base_link,0.0,0.0,0.0,0.0,-1.0,0.0,0.0,0.0,0.0,0.0,0.0,0.0,0.0,-0.261,-0.533,-0.342,1.21846967915e-07,0.0,0.0,0.0,1.21846967915e-07,0.0,0.0,0.0,1.21846967915e-07,3.30484105,0.7649187,15.3768272,9e-08,0.0,0.0,0.0,9e-08,0.0,0.0,0.0,9e-08
1531945844069585775,5981,1531945844068989460,base_link,0.0,0.0,0.0,0.0,-1.0,0.0,0.0,0.0,0.0,0.0,0.0,0.0,0.0,-0.232,-0.569,-0.339,1.21846967915e-07,0.0,0.0,0.0,1.21846967915e-07,0.0,0.0,0.0,1.21846967915e-07,3.42252085,0.8237586,16.30845895,9e-08,0.0,0.0,0.0,9e-08,0.0,0.0,0.0,9e-08
1531945844159267975,5982,1531945844158819730,base_link,0.0,0.0,0.0,0.0,-1.0,0.0,0.0,0.0,0.0,0.0,0.0,0.0,0.0,-0.311,-0.583,-0.33,1.21846967915e-07,0.0,0.0,0.0,1.21846967915e-07,0.0,0.0,0.0,1.21846967915e-07,3.44213415,0.8825985,16.6909183,9e-08,0.0,0.0,0.0,9e-08,0.0,0.0,0.0,9e-08
1531945844288053241,5983,1531945844283862452,base_link,0.0,0.0,0.0,0.0,-1.0,0.0,0.0,0.0,0.0,0.0,0.0,0.0,0.0,-0.455,-0.541,-0.32,1.21846967915e-07,0.0,0.0,0.0,1.21846967915e-07,0.0,0.0,0.0,1.21846967915e-07,3.14793465,0.6864655,16.09271265,9e-08,0.0,0.0,0.0,9e-08,0.0,0.0,0.0,9e-08
1531945844370304683,5984,1531945844369869693,base_link,0.0,0.0,0.0,0.0,-1.0,0.0,0.0,0.0,0.0,0.0,0.0,0.0,0.0,-0.515,-0.512,-0.31,1.21846967915e-07,0.0,0.0,0.0,1.21846967915e-07,0.0,0.0,0.0,1.21846967915e-07,3.0008349,0.7453054,15.24934075,9e-08,0.0,0.0,0.0,9e-08,0.0,0.0,0.0,9e-08
1531945844473861819,5985,1531945844469153793,base_link,0.0,0.0,0.0,0.0,-1.0,0.0,0.0,0.0,0.0,0.0,0.0,0.0,0.0,-0.613,-0.466,-0.296,1.21846967915e-07,0.0,0.0,0.0,1.21846967915e-07,0.0,0.0,0.0,1.21846967915e-07,2.79489525,0.61781895,14.2588691,9e-08,0.0,0.0,0.0,9e-08,0.0,0.0,0.0,9e-08
1531945844564123654,5986,1531945844563523817,base_link,0.0,0.0,0.0,0.0,-1.0,0.0,0.0,0.0,0.0,0.0,0.0,0.0,0.0,-0.549,-0.445,-0.272,1.21846967915e-07,0.0,0.0,0.0,1.21846967915e-07,0.0,0.0,0.0,1.21846967915e-07,2.745862,0.75511205,14.99436785,9e-08,0.0,0.0,0.0,9e-08,0.0,0.0,0.0,9e-08
1531945844692745226,5987,1531945844692312509,base_link,0.0,0.0,0.0,0.0,-1.0,0.0,0.0,0.0,0.0,0.0,0.0,0.0,0.0,-0.573,-0.401,-0.232,1.21846967915e-07,0.0,0.0,0.0,1.21846967915e-07,0.0,0.0,0.0,1.21846967915e-07,2.97141495,0.46091255,15.0826277,9e-08,0.0,0.0,0.0,9e-08,0.0,0.0,0.0,9e-08
1531945844793453810,5988,1531945844792830698,base_link,0.0,0.0,0.0,0.0,-1.0,0.0,0.0,0.0,0.0,0.0,0.0,0.0,0.0,-0.454,-0.345,-0.201,1.21846967915e-07,0.0,0.0,0.0,1.21846967915e-07,0.0,0.0,0.0,1.21846967915e-07,2.67721545,0.9414384,14.62171515,9e-08,0.0,0.0,0.0,9e-08,0.0,0.0,0.0,9e-08
1531945844882036288,5989,1531945844881317483,base_link,0.0,0.0,0.0,0.0,-1.0,0.0,0.0,0.0,0.0,0.0,0.0,0.0,0.0,-0.401,-0.328,-0.207,1.21846967915e-07,0.0,0.0,0.0,1.21846967915e-07,0.0,0.0,0.0,1.21846967915e-07,2.8243152,0.7453054,14.77862155,9e-08,0.0,0.0,0.0,9e-08,0.0,0.0,0.0,9e-08
1531945844954735871,5990,1531945844953836820,base_link,0.0,0.0,0.0,0.0,-1.0,0.0,0.0,0.0,0.0,0.0,0.0,0.0,0.0,-0.615,-0.301,-0.168,1.21846967915e-07,0.0,0.0,0.0,1.21846967915e-07,0.0,0.0,0.0,1.21846967915e-07,2.55953565,0.71588545,13.87640975,9e-08,0.0,0.0,0.0,9e-08,0.0,0.0,0.0,9e-08
1531945845074720577,5991,1531945845074272268,base_link,0.0,0.0,0.0,0.0,-1.0,0.0,0.0,0.0,0.0,0.0,0.0,0.0,0.0,-0.744,-0.236,-0.156,1.21846967915e-07,0.0,0.0,0.0,1.21846967915e-07,0.0,0.0,0.0,1.21846967915e-07,2.52030905,0.91201845,13.15071765,9e-08,0.0,0.0,0.0,9e-08,0.0,0.0,0.0,9e-08
1531945845166115878,5992,1531945845165053421,base_link,0.0,0.0,0.0,0.0,-1.0,0.0,0.0,0.0,0.0,0.0,0.0,0.0,0.0,-0.81,-0.191,-0.176,1.21846967915e-07,0.0,0.0,0.0,1.21846967915e-07,0.0,0.0,0.0,1.21846967915e-07,2.6870221,0.5295591,12.58193195,9e-08,0.0,0.0,0.0,9e-08,0.0,0.0,0.0,9e-08
1531945845338873879,5993,1531945845338234024,base_link,0.0,0.0,0.0,0.0,-1.0,0.0,0.0,0.0,0.0,0.0,0.0,0.0,0.0,-0.683,-0.068,-0.144,1.21846967915e-07,0.0,0.0,0.0,1.21846967915e-07,0.0,0.0,0.0,1.21846967915e-07,2.44185585,0.6864655,9.46341725,9e-08,0.0,0.0,0.0,9e-08,0.0,0.0,0.0,9e-08
1531945845409493755,5994,1531945845409059853,base_link,0.0,0.0,0.0,0.0,-1.0,0.0,0.0,0.0,0.0,0.0,0.0,0.0,0.0,-0.75,-0.071,-0.12,1.21846967915e-07,0.0,0.0,0.0,1.21846967915e-07,0.0,0.0,0.0,1.21846967915e-07,2.65760215,0.30400615,9.60071035,9e-08,0.0,0.0,0.0,9e-08,0.0,0.0,0.0,9e-08
1531945845511774605,5995,1531945845511292616,base_link,0.0,0.0,0.0,0.0,-1.0,0.0,0.0,0.0,0.0,0.0,0.0,0.0,0.0,-0.7,-0.038,-0.094,1.21846967915e-07,0.0,0.0,0.0,1.21846967915e-07,0.0,0.0,0.0,1.21846967915e-07,2.8439285,0.20593965,9.97336305,9e-08,0.0,0.0,0.0,9e-08,0.0,0.0,0.0,9e-08
1531945845573250014,5996,1531945845572676878,base_link,0.0,0.0,0.0,0.0,-1.0,0.0,0.0,0.0,0.0,0.0,0.0,0.0,0.0,-0.535,-0.037,-0.104,1.21846967915e-07,0.0,0.0,0.0,1.21846967915e-07,0.0,0.0,0.0,1.21846967915e-07,3.08909475,0.26477955,11.05209455,9e-08,0.0,0.0,0.0,9e-08,0.0,0.0,0.0,9e-08
1531945845680360515,5997,1531945845679686083,base_link,0.0,0.0,0.0,0.0,-1.0,0.0,0.0,0.0,0.0,0.0,0.0,0.0,0.0,-0.631,-0.053,-0.005,1.21846967915e-07,0.0,0.0,0.0,1.21846967915e-07,0.0,0.0,0.0,1.21846967915e-07,3.2950344,-0.1372931,11.8660465,9e-08,0.0,0.0,0.0,9e-08,0.0,0.0,0.0,9e-08
1531945845818225513,5998,1531945845817687113,base_link,0.0,0.0,0.0,0.0,-1.0,0.0,0.0,0.0,0.0,0.0,0.0,0.0,0.0,-0.668,-0.008,0.118,1.21846967915e-07,0.0,0.0,0.0,1.21846967915e-07,0.0,0.0,0.0,1.21846967915e-07,3.1577413,0.10787315,10.6304086,9e-08,0.0,0.0,0.0,9e-08,0.0,0.0,0.0,9e-08
1531945845894309773,5999,1531945845887969677,base_link,0.0,0.0,0.0,0.0,-1.0,0.0,0.0,0.0,0.0,0.0,0.0,0.0,0.0,-0.466,-0.007,0.129,1.21846967915e-07,0.0,0.0,0.0,1.21846967915e-07,0.0,0.0,0.0,1.21846967915e-07,3.03025485,0.32361945,11.34629405,9e-08,0.0,0.0,0.0,9e-08,0.0,0.0,0.0,9e-08
1531945846024076817,6000,1531945846022582219,base_link,0.0,0.0,0.0,0.0,-1.0,0.0,0.0,0.0,0.0,0.0,0.0,0.0,0.0,-0.478,0.003,0.2,1.21846967915e-07,0.0,0.0,0.0,1.21846967915e-07,0.0,0.0,0.0,1.21846967915e-07,3.12832135,0.10787315,10.73828175,9e-08,0.0,0.0,0.0,9e-08,0.0,0.0,0.0,9e-08
1531945846073206207,6001,1531945846072184603,base_link,0.0,0.0,0.0,0.0,-1.0,0.0,0.0,0.0,0.0,0.0,0.0,0.0,0.0,-0.326,0.002,0.182,1.21846967915e-07,0.0,0.0,0.0,1.21846967915e-07,0.0,0.0,0.0,1.21846967915e-07,3.1577413,0.22555295,9.7281968,9e-08,0.0,0.0,0.0,9e-08,0.0,0.0,0.0,9e-08
1531945846180686901,6002,1531945846180186055,base_link,0.0,0.0,0.0,0.0,-1.0,0.0,0.0,0.0,0.0,0.0,0.0,0.0,0.0,-0.27,0.005,0.174,1.21846967915e-07,0.0,0.0,0.0,1.21846967915e-07,0.0,0.0,0.0,1.21846967915e-07,2.93218835,0.51975245,10.24794925,9e-08,0.0,0.0,0.0,9e-08,0.0,0.0,0.0,9e-08
1531945846271981514,6003,1531945846271362212,base_link,0.0,0.0,0.0,0.0,-1.0,0.0,0.0,0.0,0.0,0.0,0.0,0.0,0.0,-0.105,-0.006,0.167,1.21846967915e-07,0.0,0.0,0.0,1.21846967915e-07,0.0,0.0,0.0,1.21846967915e-07,3.0400615,0.6276256,12.77806495,9e-08,0.0,0.0,0.0,9e-08,0.0,0.0,0.0,9e-08
1531945846399990123,6004,1531945846398489315,base_link,0.0,0.0,0.0,0.0,-1.0,0.0,0.0,0.0,0.0,0.0,0.0,0.0,0.0,-0.252,0.148,0.107,1.21846967915e-07,0.0,0.0,0.0,1.21846967915e-07,0.0,0.0,0.0,1.21846967915e-07,2.3143694,0.10787315,7.36479415,9e-08,0.0,0.0,0.0,9e-08,0.0,0.0,0.0,9e-08
1531945846512337509,6005,1531945846511426933,base_link,0.0,0.0,0.0,0.0,-1.0,0.0,0.0,0.0,0.0,0.0,0.0,0.0,0.0,0.043,0.128,0.142,1.21846967915e-07,0.0,0.0,0.0,1.21846967915e-07,0.0,0.0,0.0,1.21846967915e-07,2.16726965,-0.02941995,6.0212831,9e-08,0.0,0.0,0.0,9e-08,0.0,0.0,0.0,9e-08
1531945846581870853,6006,1531945846576071237,base_link,0.0,0.0,0.0,0.0,-1.0,0.0,0.0,0.0,0.0,0.0,0.0,0.0,0.0,0.126,0.111,0.192,1.21846967915e-07,0.0,0.0,0.0,1.21846967915e-07,0.0,0.0,0.0,1.21846967915e-07,2.157463,0.16671305,5.2171378,9e-08,0.0,0.0,0.0,9e-08,0.0,0.0,0.0,9e-08
1531945846672897467,6007,1531945846670661783,base_link,0.0,0.0,0.0,0.0,-1.0,0.0,0.0,0.0,0.0,0.0,0.0,0.0,0.0,-0.09,0.041,0.198,1.21846967915e-07,0.0,0.0,0.0,1.21846967915e-07,0.0,0.0,0.0,1.21846967915e-07,2.5105024,0.392266,7.63938035,9e-08,0.0,0.0,0.0,9e-08,0.0,0.0,0.0,9e-08
1531945846768894440,6008,1531945846768129437,base_link,0.0,0.0,0.0,0.0,-1.0,0.0,0.0,0.0,0.0,0.0,0.0,0.0,0.0,-0.178,0.007,0.186,1.21846967915e-07,0.0,0.0,0.0,1.21846967915e-07,0.0,0.0,0.0,1.21846967915e-07,2.8439285,0.3138128,9.62032365,9e-08,0.0,0.0,0.0,9e-08,0.0,0.0,0.0,9e-08
1531945846906544584,6009,1531945846905453378,base_link,0.0,0.0,0.0,0.0,-1.0,0.0,0.0,0.0,0.0,0.0,0.0,0.0,0.0,-0.141,0.051,0.105,1.21846967915e-07,0.0,0.0,0.0,1.21846967915e-07,0.0,0.0,0.0,1.21846967915e-07,2.745862,0.02941995,8.1199062,9e-08,0.0,0.0,0.0,9e-08,0.0,0.0,0.0,9e-08
1531945847009626614,6010,1531945847009042368,base_link,0.0,0.0,0.0,0.0,-1.0,0.0,0.0,0.0,0.0,0.0,0.0,0.0,0.0,0.103,0.084,0.118,1.21846967915e-07,0.0,0.0,0.0,1.21846967915e-07,0.0,0.0,0.0,1.21846967915e-07,2.36340265,0.16671305,6.4331624,9e-08,0.0,0.0,0.0,9e-08,0.0,0.0,0.0,9e-08
1531945847056493523,6011,1531945847055807918,base_link,0.0,0.0,0.0,0.0,-1.0,0.0,0.0,0.0,0.0,0.0,0.0,0.0,0.0,0.232,0.056,0.101,1.21846967915e-07,0.0,0.0,0.0,1.21846967915e-07,0.0,0.0,0.0,1.21846967915e-07,2.4320492,0.10787315,7.8257067,9e-08,0.0,0.0,0.0,9e-08,0.0,0.0,0.0,9e-08
1531945847200518980,6012,1531945847200018678,base_link,0.0,0.0,0.0,0.0,-1.0,0.0,0.0,0.0,0.0,0.0,0.0,0.0,0.0,0.397,0.032,0.153,1.21846967915e-07,0.0,0.0,0.0,1.21846967915e-07,0.0,0.0,0.0,1.21846967915e-07,2.4516625,-0.32361945,8.05125965,9e-08,0.0,0.0,0.0,9e-08,0.0,0.0,0.0,9e-08
1531945847254873250,6013,1531945847254364848,base_link,0.0,0.0,0.0,0.0,-1.0,0.0,0.0,0.0,0.0,0.0,0.0,0.0,0.0,0.422,0.03,0.203,1.21846967915e-07,0.0,0.0,0.0,1.21846967915e-07,0.0,0.0,0.0,1.21846967915e-07,2.50069575,-0.1765197,8.28661925,9e-08,0.0,0.0,0.0,9e-08,0.0,0.0,0.0,9e-08
1531945847398470055,6014,1531945847398125412,base_link,0.0,0.0,0.0,0.0,-1.0,0.0,0.0,0.0,0.0,0.0,0.0,0.0,0.0,0.575,0.008,0.22,1.21846967915e-07,0.0,0.0,0.0,1.21846967915e-07,0.0,0.0,0.0,1.21846967915e-07,2.6674088,-0.2157463,9.3555441,9e-08,0.0,0.0,0.0,9e-08,0.0,0.0,0.0,9e-08
1531945847477939089,6015,1531945847476106604,base_link,0.0,0.0,0.0,0.0,-1.0,0.0,0.0,0.0,0.0,0.0,0.0,0.0,0.0,0.759,0.013,0.242,1.21846967915e-07,0.0,0.0,0.0,1.21846967915e-07,0.0,0.0,0.0,1.21846967915e-07,2.65760215,-0.08825985,9.1201845,9e-08,0.0,0.0,0.0,9e-08,0.0,0.0,0.0,9e-08
1531945847563305610,6016,1531945847562915089,base_link,0.0,0.0,0.0,0.0,-1.0,0.0,0.0,0.0,0.0,0.0,0.0,0.0,0.0,0.701,0.009,0.212,1.21846967915e-07,0.0,0.0,0.0,1.21846967915e-07,0.0,0.0,0.0,1.21846967915e-07,2.67721545,-0.00980665,9.218251,9e-08,0.0,0.0,0.0,9e-08,0.0,0.0,0.0,9e-08
1531945847680986247,6017,1531945847680563486,base_link,0.0,0.0,0.0,0.0,-1.0,0.0,0.0,0.0,0.0,0.0,0.0,0.0,0.0,0.349,0.076,0.268,1.21846967915e-07,0.0,0.0,0.0,1.21846967915e-07,0.0,0.0,0.0,1.21846967915e-07,2.30456275,0.10787315,8.5121722,9e-08,0.0,0.0,0.0,9e-08,0.0,0.0,0.0,9e-08
1531945847808999562,6018,1531945847808408337,base_link,0.0,0.0,0.0,0.0,-1.0,0.0,0.0,0.0,0.0,0.0,0.0,0.0,0.0,0.194,0.047,0.242,1.21846967915e-07,0.0,0.0,0.0,1.21846967915e-07,0.0,0.0,0.0,1.21846967915e-07,2.34378935,0.0196133,8.69849855,9e-08,0.0,0.0,0.0,9e-08,0.0,0.0,0.0,9e-08
1531945847906413431,6019,1531945847892252664,base_link,0.0,0.0,0.0,0.0,-1.0,0.0,0.0,0.0,0.0,0.0,0.0,0.0,0.0,0.069,0.002,0.25,1.21846967915e-07,0.0,0.0,0.0,1.21846967915e-07,0.0,0.0,0.0,1.21846967915e-07,2.55953565,-0.0392266,9.7085835,9e-08,0.0,0.0,0.0,9e-08,0.0,0.0,0.0,9e-08
1531945847988932936,6020,1531945847988464202,base_link,0.0,0.0,0.0,0.0,-1.0,0.0,0.0,0.0,0.0,0.0,0.0,0.0,0.0,0.108,0.032,0.224,1.21846967915e-07,0.0,0.0,0.0,1.21846967915e-07,0.0,0.0,0.0,1.21846967915e-07,2.1966896,0.67665885,9.9635564,9e-08,0.0,0.0,0.0,9e-08,0.0,0.0,0.0,9e-08
1531945848088210313,6021,1531945848087493589,base_link,0.0,0.0,0.0,0.0,-1.0,0.0,0.0,0.0,0.0,0.0,0.0,0.0,0.0,-0.18,0.051,0.173,1.21846967915e-07,0.0,0.0,0.0,1.21846967915e-07,0.0,0.0,0.0,1.21846967915e-07,2.28494945,0.4118793,8.91424485,9e-08,0.0,0.0,0.0,9e-08,0.0,0.0,0.0,9e-08
1531945848188452756,6022,1531945848187902255,base_link,0.0,0.0,0.0,0.0,-1.0,0.0,0.0,0.0,0.0,0.0,0.0,0.0,0.0,-0.131,0.084,0.08,1.21846967915e-07,0.0,0.0,0.0,1.21846967915e-07,0.0,0.0,0.0,1.21846967915e-07,2.157463,0.83356525,8.8063717,9e-08,0.0,0.0,0.0,9e-08,0.0,0.0,0.0,9e-08
1531945848273075403,6023,1531945848272462985,base_link,0.0,0.0,0.0,0.0,-1.0,0.0,0.0,0.0,0.0,0.0,0.0,0.0,0.0,0.124,0.14,-0.019,1.21846967915e-07,0.0,0.0,0.0,1.21846967915e-07,0.0,0.0,0.0,1.21846967915e-07,1.96133,0.83356525,7.5903471,9e-08,0.0,0.0,0.0,9e-08,0.0,0.0,0.0,9e-08
1531945848434832762,6024,1531945848427507142,base_link,0.0,0.0,0.0,0.0,-1.0,0.0,0.0,0.0,0.0,0.0,0.0,0.0,0.0,0.241,0.136,-0.092,1.21846967915e-07,0.0,0.0,0.0,1.21846967915e-07,0.0,0.0,0.0,1.21846967915e-07,1.85345685,0.8041453,7.3157609,9e-08,0.0,0.0,0.0,9e-08,0.0,0.0,0.0,9e-08
1531945848477761771,6025,1531945848475105182,base_link,0.0,0.0,0.0,0.0,-1.0,0.0,0.0,0.0,0.0,0.0,0.0,0.0,0.0,0.274,0.113,-0.112,1.21846967915e-07,0.0,0.0,0.0,1.21846967915e-07,0.0,0.0,0.0,1.21846967915e-07,2.08881645,0.32361945,7.1588545,9e-08,0.0,0.0,0.0,9e-08,0.0,0.0,0.0,9e-08
1531945848557920572,6026,1531945848557152912,base_link,0.0,0.0,0.0,0.0,-1.0,0.0,0.0,0.0,0.0,0.0,0.0,0.0,0.0,0.435,0.133,-0.156,1.21846967915e-07,0.0,0.0,0.0,1.21846967915e-07,0.0,0.0,0.0,1.21846967915e-07,1.85345685,0.4118793,6.48219565,9e-08,0.0,0.0,0.0,9e-08,0.0,0.0,0.0,9e-08
1531945848682035846,6027,1531945848681544061,base_link,0.0,0.0,0.0,0.0,-1.0,0.0,0.0,0.0,0.0,0.0,0.0,0.0,0.0,0.334,0.078,-0.122,1.21846967915e-07,0.0,0.0,0.0,1.21846967915e-07,0.0,0.0,0.0,1.21846967915e-07,1.85345685,0.3530394,7.48247395,9e-08,0.0,0.0,0.0,9e-08,0.0,0.0,0.0,9e-08
1531945848775501857,6028,1531945848773741854,base_link,0.0,0.0,0.0,0.0,-1.0,0.0,0.0,0.0,0.0,0.0,0.0,0.0,0.0,0.233,0.045,-0.101,1.21846967915e-07,0.0,0.0,0.0,1.21846967915e-07,0.0,0.0,0.0,1.21846967915e-07,2.0201699,-0.02941995,7.7668668,9e-08,0.0,0.0,0.0,9e-08,0.0,0.0,0.0,9e-08
1531945848880786853,6029,1531945848880402735,base_link,0.0,0.0,0.0,0.0,-1.0,0.0,0.0,0.0,0.0,0.0,0.0,0.0,0.0,0.262,0.059,-0.081,1.21846967915e-07,0.0,0.0,0.0,1.21846967915e-07,0.0,0.0,0.0,1.21846967915e-07,2.0593965,-0.02941995,6.97252815,9e-08,0.0,0.0,0.0,9e-08,0.0,0.0,0.0,9e-08
1531945848996084087,6030,1531945848993375121,base_link,0.0,0.0,0.0,0.0,-1.0,0.0,0.0,0.0,0.0,0.0,0.0,0.0,0.0,0.261,0.069,-0.038,1.21846967915e-07,0.0,0.0,0.0,1.21846967915e-07,0.0,0.0,0.0,1.21846967915e-07,2.0986231,-0.00980665,7.01175475,9e-08,0.0,0.0,0.0,9e-08,0.0,0.0,0.0,9e-08
1531945849086589109,6031,1531945849085532224,base_link,0.0,0.0,0.0,0.0,-1.0,0.0,0.0,0.0,0.0,0.0,0.0,0.0,0.0,0.137,0.039,0.008,1.21846967915e-07,0.0,0.0,0.0,1.21846967915e-07,0.0,0.0,0.0,1.21846967915e-07,2.02997655,0.1765197,7.60015375,9e-08,0.0,0.0,0.0,9e-08,0.0,0.0,0.0,9e-08
1531945849164851011,6032,1531945849164388071,base_link,0.0,0.0,0.0,0.0,-1.0,0.0,0.0,0.0,0.0,0.0,0.0,0.0,0.0,0.125,0.041,0.04,1.21846967915e-07,0.0,0.0,0.0,1.21846967915e-07,0.0,0.0,0.0,1.21846967915e-07,2.1966896,0.5295591,7.4334407,9e-08,0.0,0.0,0.0,9e-08,0.0,0.0,0.0,9e-08
1531945849275293589,6033,1531945849273873139,base_link,0.0,0.0,0.0,0.0,-1.0,0.0,0.0,0.0,0.0,0.0,0.0,0.0,0.0,-0.025,-0.005,0.011,1.21846967915e-07,0.0,0.0,0.0,1.21846967915e-07,0.0,0.0,0.0,1.21846967915e-07,2.46146915,0.1569064,7.8060934,9e-08,0.0,0.0,0.0,9e-08,0.0,0.0,0.0,9e-08
1531945849372798029,6034,1531945849372294974,base_link,0.0,0.0,0.0,0.0,-1.0,0.0,0.0,0.0,0.0,0.0,0.0,0.0,0.0,0.021,-0.032,-0.037,1.21846967915e-07,0.0,0.0,0.0,1.21846967915e-07,0.0,0.0,0.0,1.21846967915e-07,2.53992235,0.392266,9.65955025,9e-08,0.0,0.0,0.0,9e-08,0.0,0.0,0.0,9e-08
1531945849480368781,6035,1531945849479359118,base_link,0.0,0.0,0.0,0.0,-1.0,0.0,0.0,0.0,0.0,0.0,0.0,0.0,0.0,-0.067,0.008,-0.014,1.21846967915e-07,0.0,0.0,0.0,1.21846967915e-07,0.0,0.0,0.0,1.21846967915e-07,2.3928226,0.784532,9.4928372,9e-08,0.0,0.0,0.0,9e-08,0.0,0.0,0.0,9e-08
1531945849586681368,6036,1531945849586231458,base_link,0.0,0.0,0.0,0.0,-1.0,0.0,0.0,0.0,0.0,0.0,0.0,0.0,0.0,-0.149,0.013,-0.05,1.21846967915e-07,0.0,0.0,0.0,1.21846967915e-07,0.0,0.0,0.0,1.21846967915e-07,2.42224255,0.81395195,9.0613446,9e-08,0.0,0.0,0.0,9e-08,0.0,0.0,0.0,9e-08
1531945849678538456,6037,1531945849677294602,base_link,0.0,0.0,0.0,0.0,-1.0,0.0,0.0,0.0,0.0,0.0,0.0,0.0,0.0,-0.124,-0.017,-0.087,1.21846967915e-07,0.0,0.0,0.0,1.21846967915e-07,0.0,0.0,0.0,1.21846967915e-07,2.59876225,0.6864655,10.2185293,9e-08,0.0,0.0,0.0,9e-08,0.0,0.0,0.0,9e-08
1531945849761449635,6038,1531945849760789706,base_link,0.0,0.0,0.0,0.0,-1.0,0.0,0.0,0.0,0.0,0.0,0.0,0.0,0.0,-0.115,-0.053,-0.083,1.21846967915e-07,0.0,0.0,0.0,1.21846967915e-07,0.0,0.0,0.0,1.21846967915e-07,2.67721545,0.69627215,11.0422879,9e-08,0.0,0.0,0.0,9e-08,0.0,0.0,0.0,9e-08
1531945849878928064,6039,1531945849877713632,base_link,0.0,0.0,0.0,0.0,-1.0,0.0,0.0,0.0,0.0,0.0,0.0,0.0,0.0,-0.153,-0.079,-0.106,1.21846967915e-07,0.0,0.0,0.0,1.21846967915e-07,0.0,0.0,0.0,1.21846967915e-07,2.83412185,0.3530394,11.9052731,9e-08,0.0,0.0,0.0,9e-08,0.0,0.0,0.0,9e-08
1531945849978328796,6040,1531945849977581593,base_link,0.0,0.0,0.0,0.0,-1.0,0.0,0.0,0.0,0.0,0.0,0.0,0.0,0.0,-0.101,-0.09,-0.081,1.21846967915e-07,0.0,0.0,0.0,1.21846967915e-07,0.0,0.0,0.0,1.21846967915e-07,2.75566865,0.71588545,12.8074849,9e-08,0.0,0.0,0.0,9e-08,0.0,0.0,0.0,9e-08
1531945850086200042,6041,1531945850084602420,base_link,0.0,0.0,0.0,0.0,-1.0,0.0,0.0,0.0,0.0,0.0,0.0,0.0,0.0,0.073,-0.079,-0.094,1.21846967915e-07,0.0,0.0,0.0,1.21846967915e-07,0.0,0.0,0.0,1.21846967915e-07,2.48108245,0.53936575,12.81729155,9e-08,0.0,0.0,0.0,9e-08,0.0,0.0,0.0,9e-08
1531945850182841032,6042,1531945850180355341,base_link,0.0,0.0,0.0,0.0,-1.0,0.0,0.0,0.0,0.0,0.0,0.0,0.0,0.0,-0.005,-0.074,-0.083,1.21846967915e-07,0.0,0.0,0.0,1.21846967915e-07,0.0,0.0,0.0,1.21846967915e-07,2.2163029,0.55897905,12.356379,9e-08,0.0,0.0,0.0,9e-08,0.0,0.0,0.0,9e-08
1531945850275285023,6043,1531945850273781621,base_link,0.0,0.0,0.0,0.0,-1.0,0.0,0.0,0.0,0.0,0.0,0.0,0.0,0.0,0.008,-0.079,-0.058,1.21846967915e-07,0.0,0.0,0.0,1.21846967915e-07,0.0,0.0,0.0,1.21846967915e-07,2.0593965,0.57859235,12.26811915,9e-08,0.0,0.0,0.0,9e-08,0.0,0.0,0.0,9e-08
1531945850376761331,6044,1531945850375718308,base_link,0.0,0.0,0.0,0.0,-1.0,0.0,0.0,0.0,0.0,0.0,0.0,0.0,0.0,-0.074,-0.03,0.001,1.21846967915e-07,0.0,0.0,0.0,1.21846967915e-07,0.0,0.0,0.0,1.21846967915e-07,1.8240369,0.6276256,10.4146623,9e-08,0.0,0.0,0.0,9e-08,0.0,0.0,0.0,9e-08
1531945850483925106,6045,1531945850482051641,base_link,0.0,0.0,0.0,0.0,-1.0,0.0,0.0,0.0,0.0,0.0,0.0,0.0,0.0,-0.016,-0.044,-0.041,1.21846967915e-07,0.0,0.0,0.0,1.21846967915e-07,0.0,0.0,0.0,1.21846967915e-07,1.7455837,0.18632635,10.03220295,9e-08,0.0,0.0,0.0,9e-08,0.0,0.0,0.0,9e-08
1531945850569905933,6046,1531945850569448629,base_link,0.0,0.0,0.0,0.0,-1.0,0.0,0.0,0.0,0.0,0.0,0.0,0.0,0.0,-0.028,-0.095,-0.027,1.21846967915e-07,0.0,0.0,0.0,1.21846967915e-07,0.0,0.0,0.0,1.21846967915e-07,1.71616375,0.4707192,11.44436055,9e-08,0.0,0.0,0.0,9e-08,0.0,0.0,0.0,9e-08
1531945850663946426,6047,1531945850662841101,base_link,0.0,0.0,0.0,0.0,-1.0,0.0,0.0,0.0,0.0,0.0,0.0,0.0,0.0,-0.223,-0.032,-0.025,1.21846967915e-07,0.0,0.0,0.0,1.21846967915e-07,0.0,0.0,0.0,1.21846967915e-07,1.5494507,0.7060788,10.9442214,9e-08,0.0,0.0,0.0,9e-08,0.0,0.0,0.0,9e-08
1531945850762900801,6048,1531945850761033643,base_link,0.0,0.0,0.0,0.0,-1.0,0.0,0.0,0.0,0.0,0.0,0.0,0.0,0.0,-0.165,-0.053,-0.054,1.21846967915e-07,0.0,0.0,0.0,1.21846967915e-07,0.0,0.0,0.0,1.21846967915e-07,1.61809725,0.16671305,11.07170785,9e-08,0.0,0.0,0.0,9e-08,0.0,0.0,0.0,9e-08
1531945850877690658,6049,1531945850877288484,base_link,0.0,0.0,0.0,0.0,-1.0,0.0,0.0,0.0,0.0,0.0,0.0,0.0,0.0,-0.16,-0.03,-0.069,1.21846967915e-07,0.0,0.0,0.0,1.21846967915e-07,0.0,0.0,0.0,1.21846967915e-07,1.4513842,0.3726527,10.787315,9e-08,0.0,0.0,0.0,9e-08,0.0,0.0,0.0,9e-08
1531945851019531014,6050,1531945851019048321,base_link,0.0,0.0,0.0,0.0,-1.0,0.0,0.0,0.0,0.0,0.0,0.0,0.0,0.0,-0.009,-0.05,-0.014,1.21846967915e-07,0.0,0.0,0.0,1.21846967915e-07,0.0,0.0,0.0,1.21846967915e-07,1.6082906,0.1372931,10.83634825,9e-08,0.0,0.0,0.0,9e-08,0.0,0.0,0.0,9e-08
1531945851084203140,6051,1531945851083913530,base_link,0.0,0.0,0.0,0.0,-1.0,0.0,0.0,0.0,0.0,0.0,0.0,0.0,0.0,0.022,-0.052,0.025,1.21846967915e-07,0.0,0.0,0.0,1.21846967915e-07,0.0,0.0,0.0,1.21846967915e-07,1.5298374,0.18632635,10.46369555,9e-08,0.0,0.0,0.0,9e-08,0.0,0.0,0.0,9e-08
1531945851174015834,6052,1531945851173466549,base_link,0.0,0.0,0.0,0.0,-1.0,0.0,0.0,0.0,0.0,0.0,0.0,0.0,0.0,0.042,-0.062,0.003,1.21846967915e-07,0.0,0.0,0.0,1.21846967915e-07,0.0,0.0,0.0,1.21846967915e-07,1.42196425,0.0980665,11.67972015,9e-08,0.0,0.0,0.0,9e-08,0.0,0.0,0.0,9e-08
1531945851291493879,6053,1531945851290511717,base_link,0.0,0.0,0.0,0.0,-1.0,0.0,0.0,0.0,0.0,0.0,0.0,0.0,0.0,-0.013,-0.009,0.03,1.21846967915e-07,0.0,0.0,0.0,1.21846967915e-07,0.0,0.0,0.0,1.21846967915e-07,1.42196425,0.0196133,9.65955025,9e-08,0.0,0.0,0.0,9e-08,0.0,0.0,0.0,9e-08
1531945851392515027,6054,1531945851391645270,base_link,0.0,0.0,0.0,0.0,-1.0,0.0,0.0,0.0,0.0,0.0,0.0,0.0,0.0,-0.009,-0.007,0.092,1.21846967915e-07,0.0,0.0,0.0,1.21846967915e-07,0.0,0.0,0.0,1.21846967915e-07,1.4121576,0.20593965,9.60071035,9e-08,0.0,0.0,0.0,9e-08,0.0,0.0,0.0,9e-08
1531945851489915289,6055,1531945851489411594,base_link,0.0,0.0,0.0,0.0,-1.0,0.0,0.0,0.0,0.0,0.0,0.0,0.0,0.0,-0.058,-0.015,0.115,1.21846967915e-07,0.0,0.0,0.0,1.21846967915e-07,0.0,0.0,0.0,1.21846967915e-07,1.30428445,0.46091255,10.48330885,9e-08,0.0,0.0,0.0,9e-08,0.0,0.0,0.0,9e-08
1531945851577107572,6056,1531945851576168726,base_link,0.0,0.0,0.0,0.0,-1.0,0.0,0.0,0.0,0.0,0.0,0.0,0.0,0.0,-0.05,-0.013,0.071,1.21846967915e-07,0.0,0.0,0.0,1.21846967915e-07,0.0,0.0,0.0,1.21846967915e-07,1.63771055,0.34323275,11.1011278,9e-08,0.0,0.0,0.0,9e-08,0.0,0.0,0.0,9e-08
1531945851667835708,6057,1531945851665357156,base_link,0.0,0.0,0.0,0.0,-1.0,0.0,0.0,0.0,0.0,0.0,0.0,0.0,0.0,-0.014,0.016,0.044,1.21846967915e-07,0.0,0.0,0.0,1.21846967915e-07,0.0,0.0,0.0,1.21846967915e-07,1.5494507,0.46091255,10.93441475,9e-08,0.0,0.0,0.0,9e-08,0.0,0.0,0.0,9e-08
1531945851775136892,6058,1531945851774529436,base_link,0.0,0.0,0.0,0.0,-1.0,0.0,0.0,0.0,0.0,0.0,0.0,0.0,0.0,0.104,0.071,0.038,1.21846967915e-07,0.0,0.0,0.0,1.21846967915e-07,0.0,0.0,0.0,1.21846967915e-07,1.1571847,0.73549875,9.2967042,9e-08,0.0,0.0,0.0,9e-08,0.0,0.0,0.0,9e-08
1531945851883588446,6059,1531945851878186075,base_link,0.0,0.0,0.0,0.0,-1.0,0.0,0.0,0.0,0.0,0.0,0.0,0.0,0.0,0.11,0.108,-0.082,1.21846967915e-07,0.0,0.0,0.0,1.21846967915e-07,0.0,0.0,0.0,1.21846967915e-07,1.1179581,0.6668522,7.85512665,9e-08,0.0,0.0,0.0,9e-08,0.0,0.0,0.0,9e-08
1531945852012654517,6060,1531945852012004032,base_link,0.0,0.0,0.0,0.0,-1.0,0.0,0.0,0.0,0.0,0.0,0.0,0.0,0.0,0.083,0.1,-0.13,1.21846967915e-07,0.0,0.0,0.0,1.21846967915e-07,0.0,0.0,0.0,1.21846967915e-07,0.9022118,0.61781895,9.11037785,9e-08,0.0,0.0,0.0,9e-08,0.0,0.0,0.0,9e-08
1531945852081934973,6061,1531945852081075205,base_link,0.0,0.0,0.0,0.0,-1.0,0.0,0.0,0.0,0.0,0.0,0.0,0.0,0.0,0.099,0.134,-0.151,1.21846967915e-07,0.0,0.0,0.0,1.21846967915e-07,0.0,0.0,0.0,1.21846967915e-07,0.9022118,0.32361945,7.7276402,9e-08,0.0,0.0,0.0,9e-08,0.0,0.0,0.0,9e-08
1531945852168996890,6062,1531945852168619431,base_link,0.0,0.0,0.0,0.0,-1.0,0.0,0.0,0.0,0.0,0.0,0.0,0.0,0.0,0.257,0.066,-0.162,1.21846967915e-07,0.0,0.0,0.0,1.21846967915e-07,0.0,0.0,0.0,1.21846967915e-07,1.01008495,0.1176798,8.6102387,9e-08,0.0,0.0,0.0,9e-08,0.0,0.0,0.0,9e-08
1531945852277029109,6063,1531945852276539693,base_link,0.0,0.0,0.0,0.0,-1.0,0.0,0.0,0.0,0.0,0.0,0.0,0.0,0.0,0.177,0.049,-0.089,1.21846967915e-07,0.0,0.0,0.0,1.21846967915e-07,0.0,0.0,0.0,1.21846967915e-07,0.97085835,0.38245935,9.42419065,9e-08,0.0,0.0,0.0,9e-08,0.0,0.0,0.0,9e-08
1531945852380877390,6064,1531945852380285077,base_link,0.0,0.0,0.0,0.0,-1.0,0.0,0.0,0.0,0.0,0.0,0.0,0.0,0.0,0.07,0.019,-0.064,1.21846967915e-07,0.0,0.0,0.0,1.21846967915e-07,0.0,0.0,0.0,1.21846967915e-07,1.06892485,0.2745862,9.9635564,9e-08,0.0,0.0,0.0,9e-08,0.0,0.0,0.0,9e-08
1531945852492058847,6065,1531945852488964163,base_link,0.0,0.0,0.0,0.0,-1.0,0.0,0.0,0.0,0.0,0.0,0.0,0.0,0.0,0.02,0.061,-0.07,1.21846967915e-07,0.0,0.0,0.0,1.21846967915e-07,0.0,0.0,0.0,1.21846967915e-07,0.89240515,0.32361945,8.7475318,9e-08,0.0,0.0,0.0,9e-08,0.0,0.0,0.0,9e-08
1531945852610133431,6066,1531945852609573357,base_link,0.0,0.0,0.0,0.0,-1.0,0.0,0.0,0.0,0.0,0.0,0.0,0.0,0.0,-0.015,0.023,-0.081,1.21846967915e-07,0.0,0.0,0.0,1.21846967915e-07,0.0,0.0,0.0,1.21846967915e-07,0.83356525,0.2745862,9.28689755,9e-08,0.0,0.0,0.0,9e-08,0.0,0.0,0.0,9e-08
1531945852685429958,6067,1531945852684652853,base_link,0.0,0.0,0.0,0.0,-1.0,0.0,0.0,0.0,0.0,0.0,0.0,0.0,0.0,-0.112,0.025,-0.071,1.21846967915e-07,0.0,0.0,0.0,1.21846967915e-07,0.0,0.0,0.0,1.21846967915e-07,0.95124505,0.06864655,8.9632781,9e-08,0.0,0.0,0.0,9e-08,0.0,0.0,0.0,9e-08
1531945852807209435,6068,1531945852806695912,base_link,0.0,0.0,0.0,0.0,-1.0,0.0,0.0,0.0,0.0,0.0,0.0,0.0,0.0,0.009,-0.012,-0.043,1.21846967915e-07,0.0,0.0,0.0,1.21846967915e-07,0.0,0.0,0.0,1.21846967915e-07,0.83356525,0.34323275,11.0030613,9e-08,0.0,0.0,0.0,9e-08,0.0,0.0,0.0,9e-08
1531945852891896465,6069,1531945852888395668,base_link,0.0,0.0,0.0,0.0,-1.0,0.0,0.0,0.0,0.0,0.0,0.0,0.0,0.0,-0.043,0.003,-0.05,1.21846967915e-07,0.0,0.0,0.0,1.21846967915e-07,0.0,0.0,0.0,1.21846967915e-07,0.99047165,1.21778180883e-15,9.9439431,9e-08,0.0,0.0,0.0,9e-08,0.0,0.0,0.0,9e-08
1531945852971525063,6070,1531945852969174732,base_link,0.0,0.0,0.0,0.0,-1.0,0.0,0.0,0.0,0.0,0.0,0.0,0.0,0.0,-0.139,0.047,-5.75583995599e-18,1.21846967915e-07,0.0,0.0,0.0,1.21846967915e-07,0.0,0.0,0.0,1.21846967915e-07,1.01008495,0.04903325,8.4925589,9e-08,0.0,0.0,0.0,9e-08,0.0,0.0,0.0,9e-08
1531945853117288721,6071,1531945853116710110,base_link,0.0,0.0,0.0,0.0,-1.0,0.0,0.0,0.0,0.0,0.0,0.0,0.0,0.0,-0.178,0.082,-0.006,1.21846967915e-07,0.0,0.0,0.0,1.21846967915e-07,0.0,0.0,0.0,1.21846967915e-07,0.93163175,0.3530394,8.5710121,9e-08,0.0,0.0,0.0,9e-08,0.0,0.0,0.0,9e-08
1531945853197781185,6072,1531945853196759068,base_link,0.0,0.0,0.0,0.0,-1.0,0.0,0.0,0.0,0.0,0.0,0.0,0.0,0.0,-0.197,0.082,-0.012,1.21846967915e-07,0.0,0.0,0.0,1.21846967915e-07,0.0,0.0,0.0,1.21846967915e-07,1.04931155,0.26477955,8.4925589,9e-08,0.0,0.0,0.0,9e-08,0.0,0.0,0.0,9e-08
1531945853274647192,6073,1531945853274195265,base_link,0.0,0.0,0.0,0.0,-1.0,0.0,0.0,0.0,0.0,0.0,0.0,0.0,0.0,-0.345,0.101,-0.052,1.21846967915e-07,0.0,0.0,0.0,1.21846967915e-07,0.0,0.0,0.0,1.21846967915e-07,1.04931155,0.61781895,8.7083052,9e-08,0.0,0.0,0.0,9e-08,0.0,0.0,0.0,9e-08
1531945853398437864,6074,1531945853393226143,base_link,0.0,0.0,0.0,0.0,-1.0,0.0,0.0,0.0,0.0,0.0,0.0,0.0,0.0,-0.36,0.151,-0.096,1.21846967915e-07,0.0,0.0,0.0,1.21846967915e-07,0.0,0.0,0.0,1.21846967915e-07,1.2748645,0.2353596,7.6295737,9e-08,0.0,0.0,0.0,9e-08,0.0,0.0,0.0,9e-08
1531945853496336667,6075,1531945853494874629,base_link,0.0,0.0,0.0,0.0,-1.0,0.0,0.0,0.0,0.0,0.0,0.0,0.0,0.0,-0.063,0.147,-0.098,1.21846967915e-07,0.0,0.0,0.0,1.21846967915e-07,0.0,0.0,0.0,1.21846967915e-07,1.2356379,-0.0392266,7.6884136,9e-08,0.0,0.0,0.0,9e-08,0.0,0.0,0.0,9e-08
1531945853579729963,6076,1531945853576572849,base_link,0.0,0.0,0.0,0.0,-1.0,0.0,0.0,0.0,0.0,0.0,0.0,0.0,0.0,0.04,0.178,-0.027,1.21846967915e-07,0.0,0.0,0.0,1.21846967915e-07,0.0,0.0,0.0,1.21846967915e-07,1.53964405,-0.00980665,6.95291485,9e-08,0.0,0.0,0.0,9e-08,0.0,0.0,0.0,9e-08
1531945853696524963,6077,1531945853695331213,base_link,0.0,0.0,0.0,0.0,-1.0,0.0,0.0,0.0,0.0,0.0,0.0,0.0,0.0,0.088,0.176,0.029,1.21846967915e-07,0.0,0.0,0.0,1.21846967915e-07,0.0,0.0,0.0,1.21846967915e-07,1.5886773,0.12748645,6.99214145,9e-08,0.0,0.0,0.0,9e-08,0.0,0.0,0.0,9e-08
1531945853773719158,6078,1531945853772905460,base_link,0.0,0.0,0.0,0.0,-1.0,0.0,0.0,0.0,0.0,0.0,0.0,0.0,0.0,0.066,0.16,0.023,1.21846967915e-07,0.0,0.0,0.0,1.21846967915e-07,0.0,0.0,0.0,1.21846967915e-07,1.77500365,-0.08825985,6.91368825,9e-08,0.0,0.0,0.0,9e-08,0.0,0.0,0.0,9e-08
1531945853891646056,6079,1531945853890855281,base_link,0.0,0.0,0.0,0.0,-1.0,0.0,0.0,0.0,0.0,0.0,0.0,0.0,0.0,0.063,0.202,0.089,1.21846967915e-07,0.0,0.0,0.0,1.21846967915e-07,0.0,0.0,0.0,1.21846967915e-07,1.93191005,0.392266,7.05098135,9e-08,0.0,0.0,0.0,9e-08,0.0,0.0,0.0,9e-08
1531945853987950534,6080,1531945853987128384,base_link,0.0,0.0,0.0,0.0,-1.0,0.0,0.0,0.0,0.0,0.0,0.0,0.0,0.0,-0.023,0.243,0.034,1.21846967915e-07,0.0,0.0,0.0,1.21846967915e-07,0.0,0.0,0.0,1.21846967915e-07,2.2947561,0.392266,6.7862018,9e-08,0.0,0.0,0.0,9e-08,0.0,0.0,0.0,9e-08
1531945854075802554,6081,1531945854075304814,base_link,0.0,0.0,0.0,0.0,-1.0,0.0,0.0,0.0,0.0,0.0,0.0,0.0,0.0,-0.009,0.28,0.034,1.21846967915e-07,0.0,0.0,0.0,1.21846967915e-07,0.0,0.0,0.0,1.21846967915e-07,2.6281822,0.7453054,7.73744685,9e-08,0.0,0.0,0.0,9e-08,0.0,0.0,0.0,9e-08
1531945854187844355,6082,1531945854184783735,base_link,0.0,0.0,0.0,0.0,-1.0,0.0,0.0,0.0,0.0,0.0,0.0,0.0,0.0,0.014,0.296,-0.005,1.21846967915e-07,0.0,0.0,0.0,1.21846967915e-07,0.0,0.0,0.0,1.21846967915e-07,2.6870221,0.73549875,7.649187,9e-08,0.0,0.0,0.0,9e-08,0.0,0.0,0.0,9e-08
1531945854281570778,6083,1531945854278516945,base_link,0.0,0.0,0.0,0.0,-1.0,0.0,0.0,0.0,0.0,0.0,0.0,0.0,0.0,0.033,0.311,-0.056,1.21846967915e-07,0.0,0.0,0.0,1.21846967915e-07,0.0,0.0,0.0,1.21846967915e-07,2.7066354,0.6080123,6.14876955,9e-08,0.0,0.0,0.0,9e-08,0.0,0.0,0.0,9e-08
1531945854391836633,6084,1531945854383180174,base_link,0.0,0.0,0.0,0.0,-1.0,0.0,0.0,0.0,0.0,0.0,0.0,0.0,0.0,0.07,0.255,-0.118,1.21846967915e-07,0.0,0.0,0.0,1.21846967915e-07,0.0,0.0,0.0,1.21846967915e-07,3.04986815,0.63743225,4.0011132,9e-08,0.0,0.0,0.0,9e-08,0.0,0.0,0.0,9e-08
1531945854495301245,6085,1531945854494798030,base_link,0.0,0.0,0.0,0.0,-1.0,0.0,0.0,0.0,0.0,0.0,0.0,0.0,0.0,0.032,0.178,-0.188,1.21846967915e-07,0.0,0.0,0.0,1.21846967915e-07,0.0,0.0,0.0,1.21846967915e-07,2.95180165,-0.6864655,4.91313165,9e-08,0.0,0.0,0.0,9e-08,0.0,0.0,0.0,9e-08
1531945854625213349,6086,1531945854624462561,base_link,0.0,0.0,0.0,0.0,-1.0,0.0,0.0,0.0,0.0,0.0,0.0,0.0,0.0,0.142,-0.035,-0.049,1.21846967915e-07,0.0,0.0,0.0,1.21846967915e-07,0.0,0.0,0.0,1.21846967915e-07,3.0204482,-0.55897905,7.12943455,9e-08,0.0,0.0,0.0,9e-08,0.0,0.0,0.0,9e-08
1531945854708614169,6087,1531945854708157760,base_link,0.0,0.0,0.0,0.0,-1.0,0.0,0.0,0.0,0.0,0.0,0.0,0.0,0.0,0.153,-0.123,0.017,1.21846967915e-07,0.0,0.0,0.0,1.21846967915e-07,0.0,0.0,0.0,1.21846967915e-07,3.03025485,-0.3334261,9.3947707,9e-08,0.0,0.0,0.0,9e-08,0.0,0.0,0.0,9e-08
1531945854823178639,6088,1531945854820563798,base_link,0.0,0.0,0.0,0.0,-1.0,0.0,0.0,0.0,0.0,0.0,0.0,0.0,0.0,0.022,-0.172,0.078,1.21846967915e-07,0.0,0.0,0.0,1.21846967915e-07,0.0,0.0,0.0,1.21846967915e-07,3.1185147,-0.3530394,10.95402805,9e-08,0.0,0.0,0.0,9e-08,0.0,0.0,0.0,9e-08
1531945854895410671,6089,1531945854894749302,base_link,0.0,0.0,0.0,0.0,-1.0,0.0,0.0,0.0,0.0,0.0,0.0,0.0,0.0,-0.039,-0.206,0.118,1.21846967915e-07,0.0,0.0,0.0,1.21846967915e-07,0.0,0.0,0.0,1.21846967915e-07,2.6477955,0.36284605,12.4936721,9e-08,0.0,0.0,0.0,9e-08,0.0,0.0,0.0,9e-08
1531945854991927763,6090,1531945854979774316,base_link,0.0,0.0,0.0,0.0,-1.0,0.0,0.0,0.0,0.0,0.0,0.0,0.0,0.0,-0.051,-0.222,0.089,1.21846967915e-07,0.0,0.0,0.0,1.21846967915e-07,0.0,0.0,0.0,1.21846967915e-07,2.67721545,1.176798,13.8273765,9e-08,0.0,0.0,0.0,9e-08,0.0,0.0,0.0,9e-08
1531945855108137205,6091,1531945855107319729,base_link,0.0,0.0,0.0,0.0,-1.0,0.0,0.0,0.0,0.0,0.0,0.0,0.0,0.0,-0.147,-0.267,-0.082,1.21846967915e-07,0.0,0.0,0.0,1.21846967915e-07,0.0,0.0,0.0,1.21846967915e-07,2.59876225,0.4511059,14.4746154,9e-08,0.0,0.0,0.0,9e-08,0.0,0.0,0.0,9e-08
1531945855211079745,6092,1531945855207700510,base_link,0.0,0.0,0.0,0.0,-1.0,0.0,0.0,0.0,0.0,0.0,0.0,0.0,0.0,0.108,-0.308,-0.115,1.21846967915e-07,0.0,0.0,0.0,1.21846967915e-07,0.0,0.0,0.0,1.21846967915e-07,2.0986231,0.1176798,16.26923235,9e-08,0.0,0.0,0.0,9e-08,0.0,0.0,0.0,9e-08
1531945855291023213,6093,1531945855289789443,base_link,0.0,0.0,0.0,0.0,-1.0,0.0,0.0,0.0,0.0,0.0,0.0,0.0,0.0,0.074,-0.371,-0.085,1.21846967915e-07,0.0,0.0,0.0,1.21846967915e-07,0.0,0.0,0.0,1.21846967915e-07,1.7063571,2.1028954115e-15,17.17144415,9e-08,0.0,0.0,0.0,9e-08,0.0,0.0,0.0,9e-08
1531945855374151039,6094,1531945855372164496,base_link,0.0,0.0,0.0,0.0,-1.0,0.0,0.0,0.0,0.0,0.0,0.0,0.0,0.0,0.144,-0.377,-0.069,1.21846967915e-07,0.0,0.0,0.0,1.21846967915e-07,0.0,0.0,0.0,1.21846967915e-07,1.0198916,-0.0196133,17.07337765,9e-08,0.0,0.0,0.0,9e-08,0.0,0.0,0.0,9e-08
1531945855497074739,6095,1531945855495836264,base_link,0.0,0.0,0.0,0.0,-1.0,0.0,0.0,0.0,0.0,0.0,0.0,0.0,0.0,0.118,-0.379,-0.04,1.21846967915e-07,0.0,0.0,0.0,1.21846967915e-07,0.0,0.0,0.0,1.21846967915e-07,0.392266,0.0392266,15.91619295,9e-08,0.0,0.0,0.0,9e-08,0.0,0.0,0.0,9e-08
1531945855617365703,6096,1531945855616448403,base_link,0.0,0.0,0.0,0.0,-1.0,0.0,0.0,0.0,0.0,0.0,0.0,0.0,0.0,0.047,-0.339,-0.057,1.21846967915e-07,0.0,0.0,0.0,1.21846967915e-07,0.0,0.0,0.0,1.21846967915e-07,-0.1176798,0.04903325,15.99464615,9e-08,0.0,0.0,0.0,9e-08,0.0,0.0,0.0,9e-08
1531945855719543080,6097,1531945855718919264,base_link,0.0,0.0,0.0,0.0,-1.0,0.0,0.0,0.0,0.0,0.0,0.0,0.0,0.0,0.0,-0.281,-0.006,1.21846967915e-07,0.0,0.0,0.0,1.21846967915e-07,0.0,0.0,0.0,1.21846967915e-07,-0.2157463,-0.46091255,15.26895405,9e-08,0.0,0.0,0.0,9e-08,0.0,0.0,0.0,9e-08
1531945855785967396,6098,1531945855781279092,base_link,0.0,0.0,0.0,0.0,-1.0,0.0,0.0,0.0,0.0,0.0,0.0,0.0,0.0,0.038,-0.261,0.03,1.21846967915e-07,0.0,0.0,0.0,1.21846967915e-07,0.0,0.0,0.0,1.21846967915e-07,-0.48052585,-0.3726527,14.906108,9e-08,0.0,0.0,0.0,9e-08,0.0,0.0,0.0,9e-08
1531945855891885812,6099,1531945855890910085,base_link,0.0,0.0,0.0,0.0,-1.0,0.0,0.0,0.0,0.0,0.0,0.0,0.0,0.0,0.074,-0.233,0.105,1.21846967915e-07,0.0,0.0,0.0,1.21846967915e-07,0.0,0.0,0.0,1.21846967915e-07,-0.7453054,0.1176798,13.9450563,9e-08,0.0,0.0,0.0,9e-08,0.0,0.0,0.0,9e-08
1531945855973260135,6100,1531945855972780323,base_link,0.0,0.0,0.0,0.0,-1.0,0.0,0.0,0.0,0.0,0.0,0.0,0.0,0.0,-0.039,-0.258,0.101,1.21846967915e-07,0.0,0.0,0.0,1.21846967915e-07,0.0,0.0,0.0,1.21846967915e-07,-0.9414384,0.3530394,14.87668805,9e-08,0.0,0.0,0.0,9e-08,0.0,0.0,0.0,9e-08
1531945856074513585,6101,1531945856073162672,base_link,0.0,0.0,0.0,0.0,-1.0,0.0,0.0,0.0,0.0,0.0,0.0,0.0,0.0,-0.133,-0.182,0.036,1.21846967915e-07,0.0,0.0,0.0,1.21846967915e-07,0.0,0.0,0.0,1.21846967915e-07,-0.9218251,0.196133,13.7096967,9e-08,0.0,0.0,0.0,9e-08,0.0,0.0,0.0,9e-08
1531945856194173689,6102,1531945856189201698,base_link,0.0,0.0,0.0,0.0,-1.0,0.0,0.0,0.0,0.0,0.0,0.0,0.0,0.0,-0.279,-0.133,-0.017,1.21846967915e-07,0.0,0.0,0.0,1.21846967915e-07,0.0,0.0,0.0,1.21846967915e-07,-0.85317855,0.48052585,14.3961622,9e-08,0.0,0.0,0.0,9e-08,0.0,0.0,0.0,9e-08
1531945856329277953,6103,1531945856328590395,base_link,0.0,0.0,0.0,0.0,-1.0,0.0,0.0,0.0,0.0,0.0,0.0,0.0,0.0,-0.254,-0.078,-0.084,1.21846967915e-07,0.0,0.0,0.0,1.21846967915e-07,0.0,0.0,0.0,1.21846967915e-07,-1.0002783,0.40207265,12.4544455,9e-08,0.0,0.0,0.0,9e-08,0.0,0.0,0.0,9e-08
1531945856399204411,6104,1531945856398520951,base_link,0.0,0.0,0.0,0.0,-1.0,0.0,0.0,0.0,0.0,0.0,0.0,0.0,0.0,-0.247,-0.057,-0.095,1.21846967915e-07,0.0,0.0,0.0,1.21846967915e-07,0.0,0.0,0.0,1.21846967915e-07,-1.0198916,0.3334261,12.1406327,9e-08,0.0,0.0,0.0,9e-08,0.0,0.0,0.0,9e-08
1531945856484046427,6105,1531945856483448607,base_link,0.0,0.0,0.0,0.0,-1.0,0.0,0.0,0.0,0.0,0.0,0.0,0.0,0.0,-0.013,-0.016,-0.127,1.21846967915e-07,0.0,0.0,0.0,1.21846967915e-07,0.0,0.0,0.0,1.21846967915e-07,-1.14737805,-0.20593965,9.95374975,9e-08,0.0,0.0,0.0,9e-08,0.0,0.0,0.0,9e-08
1531945856581166909,6106,1531945856580701536,base_link,0.0,0.0,0.0,0.0,-1.0,0.0,0.0,0.0,0.0,0.0,0.0,0.0,0.0,0.235,-0.027,-0.093,1.21846967915e-07,0.0,0.0,0.0,1.21846967915e-07,0.0,0.0,0.0,1.21846967915e-07,-1.176798,-0.0392266,9.3555441,9e-08,0.0,0.0,0.0,9e-08,0.0,0.0,0.0,9e-08
1531945856693346503,6107,1531945856690932910,base_link,0.0,0.0,0.0,0.0,-1.0,0.0,0.0,0.0,0.0,0.0,0.0,0.0,0.0,0.258,-0.007,-0.031,1.21846967915e-07,0.0,0.0,0.0,1.21846967915e-07,0.0,0.0,0.0,1.21846967915e-07,-1.04931155,-0.4511059,8.63965865,9e-08,0.0,0.0,0.0,9e-08,0.0,0.0,0.0,9e-08
1531945856810341727,6108,1531945856809662332,base_link,0.0,0.0,0.0,0.0,-1.0,0.0,0.0,0.0,0.0,0.0,0.0,0.0,0.0,0.289,-0.008,0.023,1.21846967915e-07,0.0,0.0,0.0,1.21846967915e-07,0.0,0.0,0.0,1.21846967915e-07,-0.89240515,-0.44129925,10.38524235,9e-08,0.0,0.0,0.0,9e-08,0.0,0.0,0.0,9e-08
1531945856882727272,6109,1531945856882031390,base_link,0.0,0.0,0.0,0.0,-1.0,0.0,0.0,0.0,0.0,0.0,0.0,0.0,0.0,0.187,0.032,0.09,1.21846967915e-07,0.0,0.0,0.0,1.21846967915e-07,0.0,0.0,0.0,1.21846967915e-07,-0.8825985,-0.4903325,10.1204628,9e-08,0.0,0.0,0.0,9e-08,0.0,0.0,0.0,9e-08
1531945856975621396,6110,1531945856974955672,base_link,0.0,0.0,0.0,0.0,-1.0,0.0,0.0,0.0,0.0,0.0,0.0,0.0,0.0,0.125,0.065,0.132,1.21846967915e-07,0.0,0.0,0.0,1.21846967915e-07,0.0,0.0,0.0,1.21846967915e-07,-0.7649187,0.196133,9.6497436,9e-08,0.0,0.0,0.0,9e-08,0.0,0.0,0.0,9e-08
1531945857081013418,6111,1531945857079867563,base_link,0.0,0.0,0.0,0.0,-1.0,0.0,0.0,0.0,0.0,0.0,0.0,0.0,0.0,-0.085,0.057,0.1,1.21846967915e-07,0.0,0.0,0.0,1.21846967915e-07,0.0,0.0,0.0,1.21846967915e-07,-0.71588545,0.57859235,10.52253545,9e-08,0.0,0.0,0.0,9e-08,0.0,0.0,0.0,9e-08
1531945857215836749,6112,1531945857215328508,base_link,0.0,0.0,0.0,0.0,-1.0,0.0,0.0,0.0,0.0,0.0,0.0,0.0,0.0,-0.086,0.106,0.021,1.21846967915e-07,0.0,0.0,0.0,1.21846967915e-07,0.0,0.0,0.0,1.21846967915e-07,-0.53936575,0.6080123,8.1199062,9e-08,0.0,0.0,0.0,9e-08,0.0,0.0,0.0,9e-08
1531945857293349175,6113,1531945857287888216,base_link,0.0,0.0,0.0,0.0,-1.0,0.0,0.0,0.0,0.0,0.0,0.0,0.0,0.0,0.017,0.094,-0.047,1.21846967915e-07,0.0,0.0,0.0,1.21846967915e-07,0.0,0.0,0.0,1.21846967915e-07,-0.51975245,0.3334261,9.1005712,9e-08,0.0,0.0,0.0,9e-08,0.0,0.0,0.0,9e-08
1531945857407969992,6114,1531945857407586642,base_link,0.0,0.0,0.0,0.0,-1.0,0.0,0.0,0.0,0.0,0.0,0.0,0.0,0.0,0.017,0.149,-0.082,1.21846967915e-07,0.0,0.0,0.0,1.21846967915e-07,0.0,0.0,0.0,1.21846967915e-07,-0.57859235,0.2353596,7.89435325,9e-08,0.0,0.0,0.0,9e-08,0.0,0.0,0.0,9e-08
1531945857475849943,6115,1531945857475193440,base_link,0.0,0.0,0.0,0.0,-1.0,0.0,0.0,0.0,0.0,0.0,0.0,0.0,0.0,-0.032,0.142,-0.059,1.21846967915e-07,0.0,0.0,0.0,1.21846967915e-07,0.0,0.0,0.0,1.21846967915e-07,-0.4118793,0.04903325,7.8649333,9e-08,0.0,0.0,0.0,9e-08,0.0,0.0,0.0,9e-08
1531945857612836028,6116,1531945857611433411,base_link,0.0,0.0,0.0,0.0,-1.0,0.0,0.0,0.0,0.0,0.0,0.0,0.0,0.0,0.295,0.158,-0.042,1.21846967915e-07,0.0,0.0,0.0,1.21846967915e-07,0.0,0.0,0.0,1.21846967915e-07,-0.4707192,0.18632635,6.58026215,9e-08,0.0,0.0,0.0,9e-08,0.0,0.0,0.0,9e-08
1531945857664140915,6117,1531945857663659343,base_link,0.0,0.0,0.0,0.0,-1.0,0.0,0.0,0.0,0.0,0.0,0.0,0.0,0.0,0.141,0.179,-0.043,1.21846967915e-07,0.0,0.0,0.0,1.21846967915e-07,0.0,0.0,0.0,1.21846967915e-07,-0.46091255,0.2745862,5.4721107,9e-08,0.0,0.0,0.0,9e-08,0.0,0.0,0.0,9e-08
1531945857777368463,6118,1531945857775907802,base_link,0.0,0.0,0.0,0.0,-1.0,0.0,0.0,0.0,0.0,0.0,0.0,0.0,0.0,-0.001,0.175,-0.057,1.21846967915e-07,0.0,0.0,0.0,1.21846967915e-07,0.0,0.0,0.0,1.21846967915e-07,-0.42168595,0.28439285,6.30567595,9e-08,0.0,0.0,0.0,9e-08,0.0,0.0,0.0,9e-08
1531945857875756714,6119,1531945857875204036,base_link,0.0,0.0,0.0,0.0,-1.0,0.0,0.0,0.0,0.0,0.0,0.0,0.0,0.0,-0.292,0.206,-0.047,1.21846967915e-07,0.0,0.0,0.0,1.21846967915e-07,0.0,0.0,0.0,1.21846967915e-07,-0.3726527,0.4707192,7.52170055,9e-08,0.0,0.0,0.0,9e-08,0.0,0.0,0.0,9e-08
1531945858006545074,6120,1531945858005235045,base_link,0.0,0.0,0.0,0.0,-1.0,0.0,0.0,0.0,0.0,0.0,0.0,0.0,0.0,-0.644,0.222,-0.059,1.21846967915e-07,0.0,0.0,0.0,1.21846967915e-07,0.0,0.0,0.0,1.21846967915e-07,-0.1372931,0.32361945,10.6500219,9e-08,0.0,0.0,0.0,9e-08,0.0,0.0,0.0,9e-08
1531945858078001251,6121,1531945858075645733,base_link,0.0,0.0,0.0,0.0,-1.0,0.0,0.0,0.0,0.0,0.0,0.0,0.0,0.0,-0.471,0.269,-0.112,1.21846967915e-07,0.0,0.0,0.0,1.21846967915e-07,0.0,0.0,0.0,1.21846967915e-07,-0.06864655,0.00980665,7.34518085,9e-08,0.0,0.0,0.0,9e-08,0.0,0.0,0.0,9e-08
1531945858242716780,6122,1531945858241070271,base_link,0.0,0.0,0.0,0.0,-1.0,0.0,0.0,0.0,0.0,0.0,0.0,0.0,0.0,-0.281,0.289,-0.111,1.21846967915e-07,0.0,0.0,0.0,1.21846967915e-07,0.0,0.0,0.0,1.21846967915e-07,-0.14709975,-0.2549729,2.7066354,9e-08,0.0,0.0,0.0,9e-08,0.0,0.0,0.0,9e-08
1531945858307601967,6123,1531945858297116928,base_link,0.0,0.0,0.0,0.0,-1.0,0.0,0.0,0.0,0.0,0.0,0.0,0.0,0.0,-0.072,0.205,-0.098,1.21846967915e-07,0.0,0.0,0.0,1.21846967915e-07,0.0,0.0,0.0,1.21846967915e-07,-0.10787315,-0.30400615,3.2165812,9e-08,0.0,0.0,0.0,9e-08,0.0,0.0,0.0,9e-08
1531945858388251721,6124,1531945858387423552,base_link,0.0,0.0,0.0,0.0,-1.0,0.0,0.0,0.0,0.0,0.0,0.0,0.0,0.0,0.131,0.195,-0.08,1.21846967915e-07,0.0,0.0,0.0,1.21846967915e-07,0.0,0.0,0.0,1.21846967915e-07,-0.10787315,-0.5295591,2.6085689,9e-08,0.0,0.0,0.0,9e-08,0.0,0.0,0.0,9e-08
1531945858478120122,6125,1531945858476795013,base_link,0.0,0.0,0.0,0.0,-1.0,0.0,0.0,0.0,0.0,0.0,0.0,0.0,0.0,0.243,0.105,-0.027,1.21846967915e-07,0.0,0.0,0.0,1.21846967915e-07,0.0,0.0,0.0,1.21846967915e-07,0.196133,-1.08853815,5.6290171,9e-08,0.0,0.0,0.0,9e-08,0.0,0.0,0.0,9e-08
1531945858589048499,6126,1531945858587634388,base_link,0.0,0.0,0.0,0.0,-1.0,0.0,0.0,0.0,0.0,0.0,0.0,0.0,0.0,0.666,0.174,0.124,1.21846967915e-07,0.0,0.0,0.0,1.21846967915e-07,0.0,0.0,0.0,1.21846967915e-07,0.40207265,-0.8433719,7.3157609,9e-08,0.0,0.0,0.0,9e-08,0.0,0.0,0.0,9e-08
1531945858757166699,6127,1531945858754890291,base_link,0.0,0.0,0.0,0.0,-1.0,0.0,0.0,0.0,0.0,0.0,0.0,0.0,0.0,0.01,0.253,0.307,1.21846967915e-07,0.0,0.0,0.0,1.21846967915e-07,0.0,0.0,0.0,1.21846967915e-07,0.7060788,-0.6668522,5.03081145,9e-08,0.0,0.0,0.0,9e-08,0.0,0.0,0.0,9e-08
1531945858786468442,6128,1531945858784510905,base_link,0.0,0.0,0.0,0.0,-1.0,0.0,0.0,0.0,0.0,0.0,0.0,0.0,0.0,-0.16,0.261,0.34,1.21846967915e-07,0.0,0.0,0.0,1.21846967915e-07,0.0,0.0,0.0,1.21846967915e-07,0.59820565,-0.20593965,4.9425516,9e-08,0.0,0.0,0.0,9e-08,0.0,0.0,0.0,9e-08
1531945858881528714,6129,1531945858880730735,base_link,0.0,0.0,0.0,0.0,-1.0,0.0,0.0,0.0,0.0,0.0,0.0,0.0,0.0,-0.392,0.248,0.307,1.21846967915e-07,0.0,0.0,0.0,1.21846967915e-07,0.0,0.0,0.0,1.21846967915e-07,0.85317855,0.1765197,3.83440015,9e-08,0.0,0.0,0.0,9e-08,0.0,0.0,0.0,9e-08
1531945859016408135,6130,1531945859016053119,base_link,0.0,0.0,0.0,0.0,-1.0,0.0,0.0,0.0,0.0,0.0,0.0,0.0,0.0,-0.103,0.299,0.152,1.21846967915e-07,0.0,0.0,0.0,1.21846967915e-07,0.0,0.0,0.0,1.21846967915e-07,1.01008495,0.4314926,3.8442068,9e-08,0.0,0.0,0.0,9e-08,0.0,0.0,0.0,9e-08
1531945859078495546,6131,1531945859075031503,base_link,0.0,0.0,0.0,0.0,-1.0,0.0,0.0,0.0,0.0,0.0,0.0,0.0,0.0,-0.271,0.316,0.071,1.21846967915e-07,0.0,0.0,0.0,1.21846967915e-07,0.0,0.0,0.0,1.21846967915e-07,0.91201845,0.6472389,3.99130655,9e-08,0.0,0.0,0.0,9e-08,0.0,0.0,0.0,9e-08
1531945859183594245,6132,1531945859182810161,base_link,0.0,0.0,0.0,0.0,-1.0,0.0,0.0,0.0,0.0,0.0,0.0,0.0,0.0,-0.124,0.323,-0.046,1.21846967915e-07,0.0,0.0,0.0,1.21846967915e-07,0.0,0.0,0.0,1.21846967915e-07,1.14737805,0.4511059,1.52003075,9e-08,0.0,0.0,0.0,9e-08,0.0,0.0,0.0,9e-08
1531945859276454529,6133,1531945859276011887,base_link,0.0,0.0,0.0,0.0,-1.0,0.0,0.0,0.0,0.0,0.0,0.0,0.0,0.0,0.033,0.192,-0.138,1.21846967915e-07,0.0,0.0,0.0,1.21846967915e-07,0.0,0.0,0.0,1.21846967915e-07,1.12776475,-0.34323275,2.4124359,9e-08,0.0,0.0,0.0,9e-08,0.0,0.0,0.0,9e-08
1531945859394516499,6134,1531945859394031885,base_link,0.0,0.0,0.0,0.0,-1.0,0.0,0.0,0.0,0.0,0.0,0.0,0.0,0.0,-0.036,0.108,-0.061,1.21846967915e-07,0.0,0.0,0.0,1.21846967915e-07,0.0,0.0,0.0,1.21846967915e-07,1.8044236,-0.7256921,-0.7256921,9e-08,0.0,0.0,0.0,9e-08,0.0,0.0,0.0,9e-08
1531945859506250154,6135,1531945859503087310,base_link,0.0,0.0,0.0,0.0,-1.0,0.0,0.0,0.0,0.0,0.0,0.0,0.0,0.0,0.395,-0.043,0.003,1.21846967915e-07,0.0,0.0,0.0,1.21846967915e-07,0.0,0.0,0.0,1.21846967915e-07,1.67693715,-0.5491724,2.745862,9e-08,0.0,0.0,0.0,9e-08,0.0,0.0,0.0,9e-08
1531945859587928653,6136,1531945859587433378,base_link,0.0,0.0,0.0,0.0,-1.0,0.0,0.0,0.0,0.0,0.0,0.0,0.0,0.0,0.199,-0.14,0.027,1.21846967915e-07,0.0,0.0,0.0,1.21846967915e-07,0.0,0.0,0.0,1.21846967915e-07,1.67693715,-0.4314926,5.91340995,9e-08,0.0,0.0,0.0,9e-08,0.0,0.0,0.0,9e-08
1531945859676595747,6137,1531945859675614290,base_link,0.0,0.0,0.0,0.0,-1.0,0.0,0.0,0.0,0.0,0.0,0.0,0.0,0.0,0.103,-0.252,0.094,1.21846967915e-07,0.0,0.0,0.0,1.21846967915e-07,0.0,0.0,0.0,1.21846967915e-07,1.57887065,-0.0784532,11.0619012,9e-08,0.0,0.0,0.0,9e-08,0.0,0.0,0.0,9e-08
1531945859780102747,6138,1531945859779110532,base_link,0.0,0.0,0.0,0.0,-1.0,0.0,0.0,0.0,0.0,0.0,0.0,0.0,0.0,0.059,-0.329,0.117,1.21846967915e-07,0.0,0.0,0.0,1.21846967915e-07,0.0,0.0,0.0,1.21846967915e-07,1.36312435,0.75511205,16.3967188,9e-08,0.0,0.0,0.0,9e-08,0.0,0.0,0.0,9e-08
1531945859891541702,6139,1531945859890851839,base_link,0.0,0.0,0.0,0.0,-1.0,0.0,0.0,0.0,0.0,0.0,0.0,0.0,0.0,0.342,-0.451,-0.026,1.21846967915e-07,0.0,0.0,0.0,1.21846967915e-07,0.0,0.0,0.0,1.21846967915e-07,2.1378497,0.36284605,27.2036471,9e-08,0.0,0.0,0.0,9e-08,0.0,0.0,0.0,9e-08
1531945859980467352,6140,1531945859979720341,base_link,0.0,0.0,0.0,0.0,-1.0,0.0,0.0,0.0,0.0,0.0,0.0,0.0,0.0,0.007,-0.433,0.006,1.21846967915e-07,0.0,0.0,0.0,1.21846967915e-07,0.0,0.0,0.0,1.21846967915e-07,1.0787315,-0.69627215,22.97698095,9e-08,0.0,0.0,0.0,9e-08,0.0,0.0,0.0,9e-08
1531945860091042953,6141,1531945860090637289,base_link,0.0,0.0,0.0,0.0,-1.0,0.0,0.0,0.0,0.0,0.0,0.0,0.0,0.0,0.005,-0.438,0.166,1.21846967915e-07,0.0,0.0,0.0,1.21846967915e-07,0.0,0.0,0.0,1.21846967915e-07,1.0198916,-0.6668522,24.36952525,9e-08,0.0,0.0,0.0,9e-08,0.0,0.0,0.0,9e-08
1531945860177413374,6142,1531945860176931001,base_link,0.0,0.0,0.0,0.0,-1.0,0.0,0.0,0.0,0.0,0.0,0.0,0.0,0.0,0.02,-0.397,0.242,1.21846967915e-07,0.0,0.0,0.0,1.21846967915e-07,0.0,0.0,0.0,1.21846967915e-07,0.4707192,0.44129925,23.732093,9e-08,0.0,0.0,0.0,9e-08,0.0,0.0,0.0,9e-08
1531945860280977585,6143,1531945860280595195,base_link,0.0,0.0,0.0,0.0,-1.0,0.0,0.0,0.0,0.0,0.0,0.0,0.0,0.0,-0.024,-0.273,0.067,1.21846967915e-07,0.0,0.0,0.0,1.21846967915e-07,0.0,0.0,0.0,1.21846967915e-07,-0.2745862,1.9809433,16.03387275,9e-08,0.0,0.0,0.0,9e-08,0.0,0.0,0.0,9e-08
1531945860374845611,6144,1531945860372873027,base_link,0.0,0.0,0.0,0.0,-1.0,0.0,0.0,0.0,0.0,0.0,0.0,0.0,0.0,-0.264,-0.16,-0.19,1.21846967915e-07,0.0,0.0,0.0,1.21846967915e-07,0.0,0.0,0.0,1.21846967915e-07,-0.77472535,1.2160246,8.3356525,9e-08,0.0,0.0,0.0,9e-08,0.0,0.0,0.0,9e-08
1531945860505566547,6145,1531945860503738672,base_link,0.0,0.0,0.0,0.0,-1.0,0.0,0.0,0.0,0.0,0.0,0.0,0.0,0.0,0.122,-0.209,-0.34,1.21846967915e-07,0.0,0.0,0.0,1.21846967915e-07,0.0,0.0,0.0,1.21846967915e-07,-1.372931,-0.12748645,8.62004535,9e-08,0.0,0.0,0.0,9e-08,0.0,0.0,0.0,9e-08
1531945860609117024,6146,1531945860599124859,base_link,0.0,0.0,0.0,0.0,-1.0,0.0,0.0,0.0,0.0,0.0,0.0,0.0,0.0,0.476,-0.262,-0.277,1.21846967915e-07,0.0,0.0,0.0,1.21846967915e-07,0.0,0.0,0.0,1.21846967915e-07,-1.81423025,-0.59820565,12.0229529,9e-08,0.0,0.0,0.0,9e-08,0.0,0.0,0.0,9e-08
1531945860684616110,6147,1531945860684072620,base_link,0.0,0.0,0.0,0.0,-1.0,0.0,0.0,0.0,0.0,0.0,0.0,0.0,0.0,0.471,-0.271,-0.147,1.21846967915e-07,0.0,0.0,0.0,1.21846967915e-07,0.0,0.0,0.0,1.21846967915e-07,-1.6671305,-0.59820565,13.60182355,9e-08,0.0,0.0,0.0,9e-08,0.0,0.0,0.0,9e-08
1531945860835523937,6148,1531945860835103129,base_link,0.0,0.0,0.0,0.0,-1.0,0.0,0.0,0.0,0.0,0.0,0.0,0.0,0.0,0.215,-0.229,-0.002,1.21846967915e-07,0.0,0.0,0.0,1.21846967915e-07,0.0,0.0,0.0,1.21846967915e-07,-1.83384355,-0.48052585,10.9638347,9e-08,0.0,0.0,0.0,9e-08,0.0,0.0,0.0,9e-08
1531945860892995013,6149,1531945860891290813,base_link,0.0,0.0,0.0,0.0,-1.0,0.0,0.0,0.0,0.0,0.0,0.0,0.0,0.0,0.359,-0.235,0.02,1.21846967915e-07,0.0,0.0,0.0,1.21846967915e-07,0.0,0.0,0.0,1.21846967915e-07,-1.8044236,-0.53936575,12.2779258,9e-08,0.0,0.0,0.0,9e-08,0.0,0.0,0.0,9e-08
1531945860992821707,6150,1531945860991597862,base_link,0.0,0.0,0.0,0.0,-1.0,0.0,0.0,0.0,0.0,0.0,0.0,0.0,0.0,0.466,-0.24,0.074,1.21846967915e-07,0.0,0.0,0.0,1.21846967915e-07,0.0,0.0,0.0,1.21846967915e-07,-1.65732385,-0.12748645,16.1613592,9e-08,0.0,0.0,0.0,9e-08,0.0,0.0,0.0,9e-08
1531945861085715063,6151,1531945861084056516,base_link,0.0,0.0,0.0,0.0,-1.0,0.0,0.0,0.0,0.0,0.0,0.0,0.0,0.0,0.431,-0.221,0.095,1.21846967915e-07,0.0,0.0,0.0,1.21846967915e-07,0.0,0.0,0.0,1.21846967915e-07,-1.4906108,0.2941995,17.8284897,9e-08,0.0,0.0,0.0,9e-08,0.0,0.0,0.0,9e-08
1531945861224180761,6152,1531945861223473098,base_link,0.0,0.0,0.0,0.0,-1.0,0.0,0.0,0.0,0.0,0.0,0.0,0.0,0.0,0.106,-0.139,0.02,1.21846967915e-07,0.0,0.0,0.0,1.21846967915e-07,0.0,0.0,0.0,1.21846967915e-07,-1.52003075,0.8041453,13.7881499,9e-08,0.0,0.0,0.0,9e-08,0.0,0.0,0.0,9e-08
1531945861285062032,6153,1531945861283889732,base_link,0.0,0.0,0.0,0.0,-1.0,0.0,0.0,0.0,0.0,0.0,0.0,0.0,0.0,0.392,-0.094,-0.091,1.21846967915e-07,0.0,0.0,0.0,1.21846967915e-07,0.0,0.0,0.0,1.21846967915e-07,-1.48080415,0.91201845,11.44436055,9e-08,0.0,0.0,0.0,9e-08,0.0,0.0,0.0,9e-08
1531945861382329623,6154,1531945861381692649,base_link,0.0,0.0,0.0,0.0,-1.0,0.0,0.0,0.0,0.0,0.0,0.0,0.0,0.0,0.295,-0.111,-0.211,1.21846967915e-07,0.0,0.0,0.0,1.21846967915e-07,0.0,0.0,0.0,1.21846967915e-07,-1.48080415,0.5295591,11.1207411,9e-08,0.0,0.0,0.0,9e-08,0.0,0.0,0.0,9e-08
1531945861499179530,6155,1531945861497917107,base_link,0.0,0.0,0.0,0.0,-1.0,0.0,0.0,0.0,0.0,0.0,0.0,0.0,0.0,0.352,-0.107,-0.278,1.21846967915e-07,0.0,0.0,0.0,1.21846967915e-07,0.0,0.0,0.0,1.21846967915e-07,-1.2944778,0.36284605,11.44436055,9e-08,0.0,0.0,0.0,9e-08,0.0,0.0,0.0,9e-08
1531945861586857707,6156,1531945861586490621,base_link,0.0,0.0,0.0,0.0,-1.0,0.0,0.0,0.0,0.0,0.0,0.0,0.0,0.0,0.474,-0.114,-0.295,1.21846967915e-07,0.0,0.0,0.0,1.21846967915e-07,0.0,0.0,0.0,1.21846967915e-07,-1.14737805,0.1765197,11.30706745,9e-08,0.0,0.0,0.0,9e-08,0.0,0.0,0.0,9e-08
1531945861696745655,6157,1531945861694975471,base_link,0.0,0.0,0.0,0.0,-1.0,0.0,0.0,0.0,0.0,0.0,0.0,0.0,0.0,0.366,-0.115,-0.255,1.21846967915e-07,0.0,0.0,0.0,1.21846967915e-07,0.0,0.0,0.0,1.21846967915e-07,-1.1375714,0.2353596,10.50292215,9e-08,0.0,0.0,0.0,9e-08,0.0,0.0,0.0,9e-08
1531945861842769724,6158,1531945861841579431,base_link,0.0,0.0,0.0,0.0,-1.0,0.0,0.0,0.0,0.0,0.0,0.0,0.0,0.0,0.398,-0.104,-0.229,1.21846967915e-07,0.0,0.0,0.0,1.21846967915e-07,0.0,0.0,0.0,1.21846967915e-07,-0.89240515,0.0784532,10.4342756,9e-08,0.0,0.0,0.0,9e-08,0.0,0.0,0.0,9e-08
1531945861917013111,6159,1531945861916272055,base_link,0.0,0.0,0.0,0.0,-1.0,0.0,0.0,0.0,0.0,0.0,0.0,0.0,0.0,0.357,-0.087,-0.213,1.21846967915e-07,0.0,0.0,0.0,1.21846967915e-07,0.0,0.0,0.0,1.21846967915e-07,-0.83356525,0.0588399,9.22805765,9e-08,0.0,0.0,0.0,9e-08,0.0,0.0,0.0,9e-08
1531945862016727175,6160,1531945862015802288,base_link,0.0,0.0,0.0,0.0,-1.0,0.0,0.0,0.0,0.0,0.0,0.0,0.0,0.0,0.421,-0.115,-0.18,1.21846967915e-07,0.0,0.0,0.0,1.21846967915e-07,0.0,0.0,0.0,1.21846967915e-07,-0.85317855,0.12748645,9.7674234,9e-08,0.0,0.0,0.0,9e-08,0.0,0.0,0.0,9e-08
1531945862067656716,6161,1531945862066880155,base_link,0.0,0.0,0.0,0.0,-1.0,0.0,0.0,0.0,0.0,0.0,0.0,0.0,0.0,0.309,-0.115,-0.161,1.21846967915e-07,0.0,0.0,0.0,1.21846967915e-07,0.0,0.0,0.0,1.21846967915e-07,-0.8041453,0.12748645,9.9047165,9e-08,0.0,0.0,0.0,9e-08,0.0,0.0,0.0,9e-08
1531945862192895371,6162,1531945862192109590,base_link,0.0,0.0,0.0,0.0,-1.0,0.0,0.0,0.0,0.0,0.0,0.0,0.0,0.0,0.373,-0.131,-0.161,1.21846967915e-07,0.0,0.0,0.0,1.21846967915e-07,0.0,0.0,0.0,1.21846967915e-07,-0.6472389,0.30400615,10.5715687,9e-08,0.0,0.0,0.0,9e-08,0.0,0.0,0.0,9e-08
1531945862290858492,6163,1531945862290429232,base_link,0.0,0.0,0.0,0.0,-1.0,0.0,0.0,0.0,0.0,0.0,0.0,0.0,0.0,0.206,-0.1,-0.16,1.21846967915e-07,0.0,0.0,0.0,1.21846967915e-07,0.0,0.0,0.0,1.21846967915e-07,-0.44129925,0.3138128,9.7478101,9e-08,0.0,0.0,0.0,9e-08,0.0,0.0,0.0,9e-08
1531945862429821867,6164,1531945862429241431,base_link,0.0,0.0,0.0,0.0,-1.0,0.0,0.0,0.0,0.0,0.0,0.0,0.0,0.0,0.142,-0.093,-0.221,1.21846967915e-07,0.0,0.0,0.0,1.21846967915e-07,0.0,0.0,0.0,1.21846967915e-07,-0.40207265,0.2745862,9.1790244,9e-08,0.0,0.0,0.0,9e-08,0.0,0.0,0.0,9e-08
1531945862488124954,6165,1531945862487079690,base_link,0.0,0.0,0.0,0.0,-1.0,0.0,0.0,0.0,0.0,0.0,0.0,0.0,0.0,0.124,-0.104,-0.226,1.21846967915e-07,0.0,0.0,0.0,1.21846967915e-07,0.0,0.0,0.0,1.21846967915e-07,-0.48052585,0.51975245,9.5712904,9e-08,0.0,0.0,0.0,9e-08,0.0,0.0,0.0,9e-08
1531945862607483827,6166,1531945862606701344,base_link,0.0,0.0,0.0,0.0,-1.0,0.0,0.0,0.0,0.0,0.0,0.0,0.0,0.0,0.086,-0.111,-0.253,1.21846967915e-07,0.0,0.0,0.0,1.21846967915e-07,0.0,0.0,0.0,1.21846967915e-07,-0.3726527,0.59820565,9.8654899,9e-08,0.0,0.0,0.0,9e-08,0.0,0.0,0.0,9e-08
1531945862672643928,6167,1531945862671501370,base_link,0.0,0.0,0.0,0.0,-1.0,0.0,0.0,0.0,0.0,0.0,0.0,0.0,0.0,0.061,-0.126,-0.281,1.21846967915e-07,0.0,0.0,0.0,1.21846967915e-07,0.0,0.0,0.0,1.21846967915e-07,-0.26477955,0.6080123,9.75761675,9e-08,0.0,0.0,0.0,9e-08,0.0,0.0,0.0,9e-08
1531945862782815850,6168,1531945862780494493,base_link,0.0,0.0,0.0,0.0,-1.0,0.0,0.0,0.0,0.0,0.0,0.0,0.0,0.0,-0.013,-0.15,-0.311,1.21846967915e-07,0.0,0.0,0.0,1.21846967915e-07,0.0,0.0,0.0,1.21846967915e-07,-0.24516625,0.46091255,9.75761675,9e-08,0.0,0.0,0.0,9e-08,0.0,0.0,0.0,9e-08
1531945862897319812,6169,1531945862896329390,base_link,0.0,0.0,0.0,0.0,-1.0,0.0,0.0,0.0,0.0,0.0,0.0,0.0,0.0,0.048,-0.153,-0.308,1.21846967915e-07,0.0,0.0,0.0,1.21846967915e-07,0.0,0.0,0.0,1.21846967915e-07,0.04903325,0.26477955,9.2967042,9e-08,0.0,0.0,0.0,9e-08,0.0,0.0,0.0,9e-08
1531945862972055048,6170,1531945862971270804,base_link,0.0,0.0,0.0,0.0,-1.0,0.0,0.0,0.0,0.0,0.0,0.0,0.0,0.0,0.166,-0.163,-0.326,1.21846967915e-07,0.0,0.0,0.0,1.21846967915e-07,0.0,0.0,0.0,1.21846967915e-07,0.0980665,0.1765197,9.38496405,9e-08,0.0,0.0,0.0,9e-08,0.0,0.0,0.0,9e-08
1531945863093946643,6171,1531945863093018523,base_link,0.0,0.0,0.0,0.0,-1.0,0.0,0.0,0.0,0.0,0.0,0.0,0.0,0.0,0.079,-0.178,-0.324,1.21846967915e-07,0.0,0.0,0.0,1.21846967915e-07,0.0,0.0,0.0,1.21846967915e-07,0.02941995,0.1765197,9.80665,9e-08,0.0,0.0,0.0,9e-08,0.0,0.0,0.0,9e-08
1531945863169921411,6172,1531945863169413650,base_link,0.0,0.0,0.0,0.0,-1.0,0.0,0.0,0.0,0.0,0.0,0.0,0.0,0.0,0.131,-0.186,-0.307,1.21846967915e-07,0.0,0.0,0.0,1.21846967915e-07,0.0,0.0,0.0,1.21846967915e-07,-0.02941995,0.26477955,10.16949605,9e-08,0.0,0.0,0.0,9e-08,0.0,0.0,0.0,9e-08
1531945863304629583,6173,1531945863303839768,base_link,0.0,0.0,0.0,0.0,-1.0,0.0,0.0,0.0,0.0,0.0,0.0,0.0,0.0,0.164,-0.262,-0.3,1.21846967915e-07,0.0,0.0,0.0,1.21846967915e-07,0.0,0.0,0.0,1.21846967915e-07,0.38245935,0.02941995,12.56231865,9e-08,0.0,0.0,0.0,9e-08,0.0,0.0,0.0,9e-08
1531945863383878865,6174,1531945863383395980,base_link,0.0,0.0,0.0,0.0,-1.0,0.0,0.0,0.0,0.0,0.0,0.0,0.0,0.0,0.085,-0.257,-0.257,1.21846967915e-07,0.0,0.0,0.0,1.21846967915e-07,0.0,0.0,0.0,1.21846967915e-07,0.26477955,0.0588399,11.6503002,9e-08,0.0,0.0,0.0,9e-08,0.0,0.0,0.0,9e-08
1531945863488881326,6175,1531945863488226840,base_link,0.0,0.0,0.0,0.0,-1.0,0.0,0.0,0.0,0.0,0.0,0.0,0.0,0.0,-0.024,-0.295,-0.205,1.21846967915e-07,0.0,0.0,0.0,1.21846967915e-07,0.0,0.0,0.0,1.21846967915e-07,0.38245935,0.36284605,11.26784085,9e-08,0.0,0.0,0.0,9e-08,0.0,0.0,0.0,9e-08
1531945863580976480,6176,1531945863580525738,base_link,0.0,0.0,0.0,0.0,-1.0,0.0,0.0,0.0,0.0,0.0,0.0,0.0,0.0,-0.039,-0.288,-0.25,1.21846967915e-07,0.0,0.0,0.0,1.21846967915e-07,0.0,0.0,0.0,1.21846967915e-07,0.196133,0.59820565,11.91507975,9e-08,0.0,0.0,0.0,9e-08,0.0,0.0,0.0,9e-08
1531945863686635412,6177,1531945863686101399,base_link,0.0,0.0,0.0,0.0,-1.0,0.0,0.0,0.0,0.0,0.0,0.0,0.0,0.0,-0.096,-0.27,-0.276,1.21846967915e-07,0.0,0.0,0.0,1.21846967915e-07,0.0,0.0,0.0,1.21846967915e-07,0.2157463,0.85317855,11.85623985,9e-08,0.0,0.0,0.0,9e-08,0.0,0.0,0.0,9e-08
1531945863773433172,6178,1531945863773008682,base_link,0.0,0.0,0.0,0.0,-1.0,0.0,0.0,0.0,0.0,0.0,0.0,0.0,0.0,-0.094,-0.267,-0.336,1.21846967915e-07,0.0,0.0,0.0,1.21846967915e-07,0.0,0.0,0.0,1.21846967915e-07,0.2353596,0.63743225,11.7483667,9e-08,0.0,0.0,0.0,9e-08,0.0,0.0,0.0,9e-08
1531945863883451837,6179,1531945863882698840,base_link,0.0,0.0,0.0,0.0,-1.0,0.0,0.0,0.0,0.0,0.0,0.0,0.0,0.0,-0.041,-0.256,-0.376,1.21846967915e-07,0.0,0.0,0.0,1.21846967915e-07,0.0,0.0,0.0,1.21846967915e-07,0.2941995,0.392266,11.6699135,9e-08,0.0,0.0,0.0,9e-08,0.0,0.0,0.0,9e-08
1531945863987608937,6180,1531945863987057796,base_link,0.0,0.0,0.0,0.0,-1.0,0.0,0.0,0.0,0.0,0.0,0.0,0.0,0.0,-0.055,-0.27,-0.355,1.21846967915e-07,0.0,0.0,0.0,1.21846967915e-07,0.0,0.0,0.0,1.21846967915e-07,0.10787315,0.50013915,11.1991943,9e-08,0.0,0.0,0.0,9e-08,0.0,0.0,0.0,9e-08
1531945864064796185,6181,1531945864064245268,base_link,0.0,0.0,0.0,0.0,-1.0,0.0,0.0,0.0,0.0,0.0,0.0,0.0,0.0,0.018,-0.298,-0.346,1.21846967915e-07,0.0,0.0,0.0,1.21846967915e-07,0.0,0.0,0.0,1.21846967915e-07,0.38245935,0.32361945,12.18966595,9e-08,0.0,0.0,0.0,9e-08,0.0,0.0,0.0,9e-08
1531945864179621963,6182,1531945864179279465,base_link,0.0,0.0,0.0,0.0,-1.0,0.0,0.0,0.0,0.0,0.0,0.0,0.0,0.0,-0.148,-0.32,-0.318,1.21846967915e-07,0.0,0.0,0.0,1.21846967915e-07,0.0,0.0,0.0,1.21846967915e-07,0.42168595,0.6472389,14.6511351,9e-08,0.0,0.0,0.0,9e-08,0.0,0.0,0.0,9e-08
1531945864278697100,6183,1531945864278356875,base_link,0.0,0.0,0.0,0.0,-1.0,0.0,0.0,0.0,0.0,0.0,0.0,0.0,0.0,-0.178,-0.315,-0.329,1.21846967915e-07,0.0,0.0,0.0,1.21846967915e-07,0.0,0.0,0.0,1.21846967915e-07,0.36284605,0.91201845,14.7884282,9e-08,0.0,0.0,0.0,9e-08,0.0,0.0,0.0,9e-08
1531945864403634716,6184,1531945864403217654,base_link,0.0,0.0,0.0,0.0,-1.0,0.0,0.0,0.0,0.0,0.0,0.0,0.0,0.0,-0.126,-0.261,-0.383,1.21846967915e-07,0.0,0.0,0.0,1.21846967915e-07,0.0,0.0,0.0,1.21846967915e-07,0.14709975,0.8237586,13.13110435,9e-08,0.0,0.0,0.0,9e-08,0.0,0.0,0.0,9e-08
1531945864491318176,6185,1531945864490620213,base_link,0.0,0.0,0.0,0.0,-1.0,0.0,0.0,0.0,0.0,0.0,0.0,0.0,0.0,-0.012,-0.271,-0.433,1.21846967915e-07,0.0,0.0,0.0,1.21846967915e-07,0.0,0.0,0.0,1.21846967915e-07,-0.00980665,0.61781895,12.69961175,9e-08,0.0,0.0,0.0,9e-08,0.0,0.0,0.0,9e-08
1531945864587643080,6186,1531945864587026435,base_link,0.0,0.0,0.0,0.0,-1.0,0.0,0.0,0.0,0.0,0.0,0.0,0.0,0.0,-0.03,-0.283,-0.434,1.21846967915e-07,0.0,0.0,0.0,1.21846967915e-07,0.0,0.0,0.0,1.21846967915e-07,0.0,0.46091255,12.87613145,9e-08,0.0,0.0,0.0,9e-08,0.0,0.0,0.0,9e-08
1531945864703525424,6187,1531945864702465913,base_link,0.0,0.0,0.0,0.0,-1.0,0.0,0.0,0.0,0.0,0.0,0.0,0.0,0.0,-0.148,-0.318,-0.419,1.21846967915e-07,0.0,0.0,0.0,1.21846967915e-07,0.0,0.0,0.0,1.21846967915e-07,-0.06864655,0.3138128,13.09187775,9e-08,0.0,0.0,0.0,9e-08,0.0,0.0,0.0,9e-08
1531945864781762257,6188,1531945864781029686,base_link,0.0,0.0,0.0,0.0,-1.0,0.0,0.0,0.0,0.0,0.0,0.0,0.0,0.0,-0.275,-0.335,-0.376,1.21846967915e-07,0.0,0.0,0.0,1.21846967915e-07,0.0,0.0,0.0,1.21846967915e-07,0.0,0.588399,13.34685065,9e-08,0.0,0.0,0.0,9e-08,0.0,0.0,0.0,9e-08
1531945864875693033,6189,1531945864873773915,base_link,0.0,0.0,0.0,0.0,-1.0,0.0,0.0,0.0,0.0,0.0,0.0,0.0,0.0,-0.273,-0.299,-0.371,1.21846967915e-07,0.0,0.0,0.0,1.21846967915e-07,0.0,0.0,0.0,1.21846967915e-07,-0.00980665,0.53936575,13.54298365,9e-08,0.0,0.0,0.0,9e-08,0.0,0.0,0.0,9e-08
1531945864994612306,6190,1531945864994169568,base_link,0.0,0.0,0.0,0.0,-1.0,0.0,0.0,0.0,0.0,0.0,0.0,0.0,0.0,-0.292,-0.313,-0.35,1.21846967915e-07,0.0,0.0,0.0,1.21846967915e-07,0.0,0.0,0.0,1.21846967915e-07,-0.0784532,0.4511059,13.36646395,9e-08,0.0,0.0,0.0,9e-08,0.0,0.0,0.0,9e-08
1531945865083694061,6191,1531945865083296240,base_link,0.0,0.0,0.0,0.0,-1.0,0.0,0.0,0.0,0.0,0.0,0.0,0.0,0.0,-0.265,-0.292,-0.349,1.21846967915e-07,0.0,0.0,0.0,1.21846967915e-07,0.0,0.0,0.0,1.21846967915e-07,-0.1372931,0.44129925,14.11176935,9e-08,0.0,0.0,0.0,9e-08,0.0,0.0,0.0,9e-08
1531945865185589000,6192,1531945865184835106,base_link,0.0,0.0,0.0,0.0,-1.0,0.0,0.0,0.0,0.0,0.0,0.0,0.0,0.0,-0.319,-0.293,-0.324,1.21846967915e-07,0.0,0.0,0.0,1.21846967915e-07,0.0,0.0,0.0,1.21846967915e-07,-0.392266,0.22555295,13.1605243,9e-08,0.0,0.0,0.0,9e-08,0.0,0.0,0.0,9e-08
1531945865279328677,6193,1531945865278048005,base_link,0.0,0.0,0.0,0.0,-1.0,0.0,0.0,0.0,0.0,0.0,0.0,0.0,0.0,-0.335,-0.3,-0.28,1.21846967915e-07,0.0,0.0,0.0,1.21846967915e-07,0.0,0.0,0.0,1.21846967915e-07,-0.4118793,-0.2549729,13.09187775,9e-08,0.0,0.0,0.0,9e-08,0.0,0.0,0.0,9e-08
1531945865391244819,6194,1531945865390212873,base_link,0.0,0.0,0.0,0.0,-1.0,0.0,0.0,0.0,0.0,0.0,0.0,0.0,0.0,-0.368,-0.264,-0.228,1.21846967915e-07,0.0,0.0,0.0,1.21846967915e-07,0.0,0.0,0.0,1.21846967915e-07,-0.4511059,-0.0392266,12.22889255,9e-08,0.0,0.0,0.0,9e-08,0.0,0.0,0.0,9e-08
1531945865522549648,6195,1531945865521386056,base_link,0.0,0.0,0.0,0.0,-1.0,0.0,0.0,0.0,0.0,0.0,0.0,0.0,0.0,-0.457,-0.198,-0.185,1.21846967915e-07,0.0,0.0,0.0,1.21846967915e-07,0.0,0.0,0.0,1.21846967915e-07,-0.4903325,0.40207265,11.1011278,9e-08,0.0,0.0,0.0,9e-08,0.0,0.0,0.0,9e-08
1531945865586604969,6196,1531945865581004167,base_link,0.0,0.0,0.0,0.0,-1.0,0.0,0.0,0.0,0.0,0.0,0.0,0.0,0.0,-0.459,-0.195,-0.181,1.21846967915e-07,0.0,0.0,0.0,1.21846967915e-07,0.0,0.0,0.0,1.21846967915e-07,-0.5687857,-0.2353596,11.11093445,9e-08,0.0,0.0,0.0,9e-08,0.0,0.0,0.0,9e-08
1531945865679450334,6197,1531945865679010637,base_link,0.0,0.0,0.0,0.0,-1.0,0.0,0.0,0.0,0.0,0.0,0.0,0.0,0.0,-0.478,-0.152,-0.155,1.21846967915e-07,0.0,0.0,0.0,1.21846967915e-07,0.0,0.0,0.0,1.21846967915e-07,-0.5295591,0.40207265,10.44408225,9e-08,0.0,0.0,0.0,9e-08,0.0,0.0,0.0,9e-08
1531945865786209949,6198,1531945865784833712,base_link,0.0,0.0,0.0,0.0,-1.0,0.0,0.0,0.0,0.0,0.0,0.0,0.0,0.0,-0.521,-0.119,-0.169,1.21846967915e-07,0.0,0.0,0.0,1.21846967915e-07,0.0,0.0,0.0,1.21846967915e-07,-0.6276256,0.40207265,10.7480884,9e-08,0.0,0.0,0.0,9e-08,0.0,0.0,0.0,9e-08
1531945865881820946,6199,1531945865878651186,base_link,0.0,0.0,0.0,0.0,-1.0,0.0,0.0,0.0,0.0,0.0,0.0,0.0,0.0,-0.595,-0.098,-0.149,1.21846967915e-07,0.0,0.0,0.0,1.21846967915e-07,0.0,0.0,0.0,1.21846967915e-07,-0.51975245,-0.06864655,11.01286795,9e-08,0.0,0.0,0.0,9e-08,0.0,0.0,0.0,9e-08
1531945865997068204,6200,1531945865996410484,base_link,0.0,0.0,0.0,0.0,-1.0,0.0,0.0,0.0,0.0,0.0,0.0,0.0,0.0,-0.531,-0.081,-0.107,1.21846967915e-07,0.0,0.0,0.0,1.21846967915e-07,0.0,0.0,0.0,1.21846967915e-07,-0.46091255,-0.2353596,9.8654899,9e-08,0.0,0.0,0.0,9e-08,0.0,0.0,0.0,9e-08
1531945866087604186,6201,1531945866086515701,base_link,0.0,0.0,0.0,0.0,-1.0,0.0,0.0,0.0,0.0,0.0,0.0,0.0,0.0,-0.345,-0.046,-0.094,1.21846967915e-07,0.0,0.0,0.0,1.21846967915e-07,0.0,0.0,0.0,1.21846967915e-07,-0.2745862,0.04903325,9.9439431,9e-08,0.0,0.0,0.0,9e-08,0.0,0.0,0.0,9e-08
1531945866226897477,6202,1531945866226549600,base_link,0.0,0.0,0.0,0.0,-1.0,0.0,0.0,0.0,0.0,0.0,0.0,0.0,0.0,-0.36,-0.024,0.015,1.21846967915e-07,0.0,0.0,0.0,1.21846967915e-07,0.0,0.0,0.0,1.21846967915e-07,-0.2157463,-0.16671305,9.91452315,9e-08,0.0,0.0,0.0,9e-08,0.0,0.0,0.0,9e-08
1531945866298376000,6203,1531945866297881109,base_link,0.0,0.0,0.0,0.0,-1.0,0.0,0.0,0.0,0.0,0.0,0.0,0.0,0.0,-0.371,-0.018,0.068,1.21846967915e-07,0.0,0.0,0.0,1.21846967915e-07,0.0,0.0,0.0,1.21846967915e-07,-0.08825985,0.08825985,9.97336305,9e-08,0.0,0.0,0.0,9e-08,0.0,0.0,0.0,9e-08
1531945866389105801,6204,1531945866388551682,base_link,0.0,0.0,0.0,0.0,-1.0,0.0,0.0,0.0,0.0,0.0,0.0,0.0,0.0,-0.413,-0.013,0.076,1.21846967915e-07,0.0,0.0,0.0,1.21846967915e-07,0.0,0.0,0.0,1.21846967915e-07,-0.0588399,0.08825985,9.9831697,9e-08,0.0,0.0,0.0,9e-08,0.0,0.0,0.0,9e-08
1531945866483886613,6205,1531945866483470287,base_link,0.0,0.0,0.0,0.0,-1.0,0.0,0.0,0.0,0.0,0.0,0.0,0.0,0.0,-0.334,0.015,0.089,1.21846967915e-07,0.0,0.0,0.0,1.21846967915e-07,0.0,0.0,0.0,1.21846967915e-07,0.04903325,0.02941995,9.65955025,9e-08,0.0,0.0,0.0,9e-08,0.0,0.0,0.0,9e-08
1531945866587236770,6206,1531945866586686205,base_link,0.0,0.0,0.0,0.0,-1.0,0.0,0.0,0.0,0.0,0.0,0.0,0.0,0.0,-0.257,0.038,0.095,1.21846967915e-07,0.0,0.0,0.0,1.21846967915e-07,0.0,0.0,0.0,1.21846967915e-07,0.26477955,0.14709975,8.44352565,9e-08,0.0,0.0,0.0,9e-08,0.0,0.0,0.0,9e-08
1531945866659402659,6207,1531945866658989983,base_link,0.0,0.0,0.0,0.0,-1.0,0.0,0.0,0.0,0.0,0.0,0.0,0.0,0.0,-0.279,0.075,0.068,1.21846967915e-07,0.0,0.0,0.0,1.21846967915e-07,0.0,0.0,0.0,1.21846967915e-07,0.42168595,0.2745862,8.3160392,9e-08,0.0,0.0,0.0,9e-08,0.0,0.0,0.0,9e-08
1531945866786903219,6208,1531945866786521566,base_link,0.0,0.0,0.0,0.0,-1.0,0.0,0.0,0.0,0.0,0.0,0.0,0.0,0.0,-0.314,0.102,0.015,1.21846967915e-07,0.0,0.0,0.0,1.21846967915e-07,0.0,0.0,0.0,1.21846967915e-07,0.5295591,0.392266,9.1790244,9e-08,0.0,0.0,0.0,9e-08,0.0,0.0,0.0,9e-08
1531945866886538494,6209,1531945866884807721,base_link,0.0,0.0,0.0,0.0,-1.0,0.0,0.0,0.0,0.0,0.0,0.0,0.0,0.0,-0.375,0.105,-0.009,1.21846967915e-07,0.0,0.0,0.0,1.21846967915e-07,0.0,0.0,0.0,1.21846967915e-07,0.8041453,0.10787315,9.4928372,9e-08,0.0,0.0,0.0,9e-08,0.0,0.0,0.0,9e-08
1531945867015024161,6210,1531945867014584977,base_link,0.0,0.0,0.0,0.0,-1.0,0.0,0.0,0.0,0.0,0.0,0.0,0.0,0.0,-0.146,0.143,-0.011,1.21846967915e-07,0.0,0.0,0.0,1.21846967915e-07,0.0,0.0,0.0,1.21846967915e-07,0.97085835,-0.0784532,7.77667345,9e-08,0.0,0.0,0.0,9e-08,0.0,0.0,0.0,9e-08
1531945867087224179,6211,1531945867086663240,base_link,0.0,0.0,0.0,0.0,-1.0,0.0,0.0,0.0,0.0,0.0,0.0,0.0,0.0,-0.061,0.134,0.008,1.21846967915e-07,0.0,0.0,0.0,1.21846967915e-07,0.0,0.0,0.0,1.21846967915e-07,0.77472535,0.1372931,7.7080269,9e-08,0.0,0.0,0.0,9e-08,0.0,0.0,0.0,9e-08
1531945867167220951,6212,1531945867166656683,base_link,0.0,0.0,0.0,0.0,-1.0,0.0,0.0,0.0,0.0,0.0,0.0,0.0,0.0,-0.069,0.142,0.037,1.21846967915e-07,0.0,0.0,0.0,1.21846967915e-07,0.0,0.0,0.0,1.21846967915e-07,1.02969825,0.1372931,7.1392412,9e-08,0.0,0.0,0.0,9e-08,0.0,0.0,0.0,9e-08
1531945867326699980,6213,1531945867326196862,base_link,0.0,0.0,0.0,0.0,-1.0,0.0,0.0,0.0,0.0,0.0,0.0,0.0,0.0,0.078,0.11,0.078,1.21846967915e-07,0.0,0.0,0.0,1.21846967915e-07,0.0,0.0,0.0,1.21846967915e-07,1.3337044,-0.196133,8.6102387,9e-08,0.0,0.0,0.0,9e-08,0.0,0.0,0.0,9e-08
1531945867420760226,6214,1531945867420073020,base_link,0.0,0.0,0.0,0.0,-1.0,0.0,0.0,0.0,0.0,0.0,0.0,0.0,0.0,-0.047,0.126,0.141,1.21846967915e-07,0.0,0.0,0.0,1.21846967915e-07,0.0,0.0,0.0,1.21846967915e-07,1.1964113,-0.26477955,7.60015375,9e-08,0.0,0.0,0.0,9e-08,0.0,0.0,0.0,9e-08
1531945867508134291,6215,1531945867507762947,base_link,0.0,0.0,0.0,0.0,-1.0,0.0,0.0,0.0,0.0,0.0,0.0,0.0,0.0,-0.029,0.108,0.136,1.21846967915e-07,0.0,0.0,0.0,1.21846967915e-07,0.0,0.0,0.0,1.21846967915e-07,1.2552512,-0.3726527,6.28606265,9e-08,0.0,0.0,0.0,9e-08,0.0,0.0,0.0,9e-08
1531945867588694947,6216,1531945867581754310,base_link,0.0,0.0,0.0,0.0,-1.0,0.0,0.0,0.0,0.0,0.0,0.0,0.0,0.0,-0.047,0.074,0.164,1.21846967915e-07,0.0,0.0,0.0,1.21846967915e-07,0.0,0.0,0.0,1.21846967915e-07,1.2160246,0.02941995,8.1983594,9e-08,0.0,0.0,0.0,9e-08,0.0,0.0,0.0,9e-08
1531945867675734677,6217,1531945867674539967,base_link,0.0,0.0,0.0,0.0,-1.0,0.0,0.0,0.0,0.0,0.0,0.0,0.0,0.0,0.002,0.067,0.19,1.21846967915e-07,0.0,0.0,0.0,1.21846967915e-07,0.0,0.0,0.0,1.21846967915e-07,1.2160246,0.24516625,7.9433865,9e-08,0.0,0.0,0.0,9e-08,0.0,0.0,0.0,9e-08
1531945867798634463,6218,1531945867797899970,base_link,0.0,0.0,0.0,0.0,-1.0,0.0,0.0,0.0,0.0,0.0,0.0,0.0,0.0,-0.069,0.038,0.127,1.21846967915e-07,0.0,0.0,0.0,1.21846967915e-07,0.0,0.0,0.0,1.21846967915e-07,1.40235095,0.0588399,9.65955025,9e-08,0.0,0.0,0.0,9e-08,0.0,0.0,0.0,9e-08
1531945867890852874,6219,1531945867889883038,base_link,0.0,0.0,0.0,0.0,-1.0,0.0,0.0,0.0,0.0,0.0,0.0,0.0,0.0,0.065,0.028,0.106,1.21846967915e-07,0.0,0.0,0.0,1.21846967915e-07,0.0,0.0,0.0,1.21846967915e-07,1.176798,0.32361945,9.20844435,9e-08,0.0,0.0,0.0,9e-08,0.0,0.0,0.0,9e-08
1531945868012712102,6220,1531945868012192911,base_link,0.0,0.0,0.0,0.0,-1.0,0.0,0.0,0.0,0.0,0.0,0.0,0.0,0.0,0.063,-0.018,0.051,1.21846967915e-07,0.0,0.0,0.0,1.21846967915e-07,0.0,0.0,0.0,1.21846967915e-07,1.10815145,0.34323275,9.42419065,9e-08,0.0,0.0,0.0,9e-08,0.0,0.0,0.0,9e-08
1531945868087050734,6221,1531945868086367690,base_link,0.0,0.0,0.0,0.0,-1.0,0.0,0.0,0.0,0.0,0.0,0.0,0.0,0.0,0.037,-0.068,0.035,1.21846967915e-07,0.0,0.0,0.0,1.21846967915e-07,0.0,0.0,0.0,1.21846967915e-07,1.20621795,-0.0784532,10.6892485,9e-08,0.0,0.0,0.0,9e-08,0.0,0.0,0.0,9e-08
1531945868184933881,6222,1531945868183729213,base_link,0.0,0.0,0.0,0.0,-1.0,0.0,0.0,0.0,0.0,0.0,0.0,0.0,0.0,0.122,-0.086,0.042,1.21846967915e-07,0.0,0.0,0.0,1.21846967915e-07,0.0,0.0,0.0,1.21846967915e-07,0.83356525,0.3334261,10.93441475,9e-08,0.0,0.0,0.0,9e-08,0.0,0.0,0.0,9e-08
1531945868292956975,6223,1531945868285128685,base_link,0.0,0.0,0.0,0.0,-1.0,0.0,0.0,0.0,0.0,0.0,0.0,0.0,0.0,-0.009,-0.094,0.035,1.21846967915e-07,0.0,0.0,0.0,1.21846967915e-07,0.0,0.0,0.0,1.21846967915e-07,0.7256921,0.2353596,10.8461549,9e-08,0.0,0.0,0.0,9e-08,0.0,0.0,0.0,9e-08
1531945868417968130,6224,1531945868417314284,base_link,0.0,0.0,0.0,0.0,-1.0,0.0,0.0,0.0,0.0,0.0,0.0,0.0,0.0,0.512,-0.113,0.02,1.21846967915e-07,0.0,0.0,0.0,1.21846967915e-07,0.0,0.0,0.0,1.21846967915e-07,0.7453054,0.00980665,9.9439431,9e-08,0.0,0.0,0.0,9e-08,0.0,0.0,0.0,9e-08
1531945868498529587,6225,1531945868497644111,base_link,0.0,0.0,0.0,0.0,-1.0,0.0,0.0,0.0,0.0,0.0,0.0,0.0,0.0,0.523,-0.118,0.018,1.21846967915e-07,0.0,0.0,0.0,1.21846967915e-07,0.0,0.0,0.0,1.21846967915e-07,0.6864655,0.0588399,10.42446895,9e-08,0.0,0.0,0.0,9e-08,0.0,0.0,0.0,9e-08
1531945868593334634,6226,1531945868592760954,base_link,0.0,0.0,0.0,0.0,-1.0,0.0,0.0,0.0,0.0,0.0,0.0,0.0,0.0,0.214,-0.167,0.046,1.21846967915e-07,0.0,0.0,0.0,1.21846967915e-07,0.0,0.0,0.0,1.21846967915e-07,0.588399,-0.30400615,13.5724036,9e-08,0.0,0.0,0.0,9e-08,0.0,0.0,0.0,9e-08
1531945868687075944,6227,1531945868686453409,base_link,0.0,0.0,0.0,0.0,-1.0,0.0,0.0,0.0,0.0,0.0,0.0,0.0,0.0,0.14,-0.11,0.086,1.21846967915e-07,0.0,0.0,0.0,1.21846967915e-07,0.0,0.0,0.0,1.21846967915e-07,0.5687857,-0.0392266,10.8265416,9e-08,0.0,0.0,0.0,9e-08,0.0,0.0,0.0,9e-08
1531945868784071214,6228,1531945868783462573,base_link,0.0,0.0,0.0,0.0,-1.0,0.0,0.0,0.0,0.0,0.0,0.0,0.0,0.0,-0.171,-0.114,0.099,1.21846967915e-07,0.0,0.0,0.0,1.21846967915e-07,0.0,0.0,0.0,1.21846967915e-07,0.2353596,0.2745862,10.5127288,9e-08,0.0,0.0,0.0,9e-08,0.0,0.0,0.0,9e-08
1531945868887591276,6229,1531945868882103552,base_link,0.0,0.0,0.0,0.0,-1.0,0.0,0.0,0.0,0.0,0.0,0.0,0.0,0.0,-0.1,-0.136,0.072,1.21846967915e-07,0.0,0.0,0.0,1.21846967915e-07,0.0,0.0,0.0,1.21846967915e-07,0.4707192,0.0784532,12.1994726,9e-08,0.0,0.0,0.0,9e-08,0.0,0.0,0.0,9e-08
1531945868985108938,6230,1531945868982524288,base_link,0.0,0.0,0.0,0.0,-1.0,0.0,0.0,0.0,0.0,0.0,0.0,0.0,0.0,-0.074,-0.095,0.021,1.21846967915e-07,0.0,0.0,0.0,1.21846967915e-07,0.0,0.0,0.0,1.21846967915e-07,0.10787315,0.3138128,10.89518815,9e-08,0.0,0.0,0.0,9e-08,0.0,0.0,0.0,9e-08
1531945869094572972,6231,1531945869093688072,base_link,0.0,0.0,0.0,0.0,-1.0,0.0,0.0,0.0,0.0,0.0,0.0,0.0,0.0,-0.194,-0.094,0.024,1.21846967915e-07,0.0,0.0,0.0,1.21846967915e-07,0.0,0.0,0.0,1.21846967915e-07,0.02941995,0.6668522,10.9049948,9e-08,0.0,0.0,0.0,9e-08,0.0,0.0,0.0,9e-08
1531945869239339036,6232,1531945869237543849,base_link,0.0,0.0,0.0,0.0,-1.0,0.0,0.0,0.0,0.0,0.0,0.0,0.0,0.0,-0.255,-0.081,-0.047,1.21846967915e-07,0.0,0.0,0.0,1.21846967915e-07,0.0,0.0,0.0,1.21846967915e-07,0.16671305,0.16671305,12.9251647,9e-08,0.0,0.0,0.0,9e-08,0.0,0.0,0.0,9e-08
1531945869297528182,6233,1531945869297065338,base_link,0.0,0.0,0.0,0.0,-1.0,0.0,0.0,0.0,0.0,0.0,0.0,0.0,0.0,-0.07,-0.051,-0.042,1.21846967915e-07,0.0,0.0,0.0,1.21846967915e-07,0.0,0.0,0.0,1.21846967915e-07,0.2353596,-0.0196133,11.571847,9e-08,0.0,0.0,0.0,9e-08,0.0,0.0,0.0,9e-08
1531945869395355943,6234,1531945869393962642,base_link,0.0,0.0,0.0,0.0,-1.0,0.0,0.0,0.0,0.0,0.0,0.0,0.0,0.0,-0.011,-0.032,-0.005,1.21846967915e-07,0.0,0.0,0.0,1.21846967915e-07,0.0,0.0,0.0,1.21846967915e-07,0.32361945,-0.1569064,10.6304086,9e-08,0.0,0.0,0.0,9e-08,0.0,0.0,0.0,9e-08
1531945869488380177,6235,1531945869487815333,base_link,0.0,0.0,0.0,0.0,-1.0,0.0,0.0,0.0,0.0,0.0,0.0,0.0,0.0,-0.267,0.003,0.047,1.21846967915e-07,0.0,0.0,0.0,1.21846967915e-07,0.0,0.0,0.0,1.21846967915e-07,0.26477955,-0.1765197,8.7867584,9e-08,0.0,0.0,0.0,9e-08,0.0,0.0,0.0,9e-08
1531945869602475720,6236,1531945869601667785,base_link,0.0,0.0,0.0,0.0,-1.0,0.0,0.0,0.0,0.0,0.0,0.0,0.0,0.0,-0.165,-0.089,0.049,1.21846967915e-07,0.0,0.0,0.0,1.21846967915e-07,0.0,0.0,0.0,1.21846967915e-07,0.46091255,-0.1372931,10.40485565,9e-08,0.0,0.0,0.0,9e-08,0.0,0.0,0.0,9e-08
1531945869693721767,6237,1531945869691909451,base_link,0.0,0.0,0.0,0.0,-1.0,0.0,0.0,0.0,0.0,0.0,0.0,0.0,0.0,0.197,-0.044,0.04,1.21846967915e-07,0.0,0.0,0.0,1.21846967915e-07,0.0,0.0,0.0,1.21846967915e-07,0.36284605,-0.32361945,9.9439431,9e-08,0.0,0.0,0.0,9e-08,0.0,0.0,0.0,9e-08
1531945869797226493,6238,1531945869796647947,base_link,0.0,0.0,0.0,0.0,-1.0,0.0,0.0,0.0,0.0,0.0,0.0,0.0,0.0,0.496,-0.03,0.052,1.21846967915e-07,0.0,0.0,0.0,1.21846967915e-07,0.0,0.0,0.0,1.21846967915e-07,0.5491724,-0.1372931,8.69849855,9e-08,0.0,0.0,0.0,9e-08,0.0,0.0,0.0,9e-08
1531945869885901207,6239,1531945869884420473,base_link,0.0,0.0,0.0,0.0,-1.0,0.0,0.0,0.0,0.0,0.0,0.0,0.0,0.0,0.528,-0.01,0.037,1.21846967915e-07,0.0,0.0,0.0,1.21846967915e-07,0.0,0.0,0.0,1.21846967915e-07,0.6472389,0.06864655,9.30651085,9e-08,0.0,0.0,0.0,9e-08,0.0,0.0,0.0,9e-08
1531945870004715534,6240,1531945870004070524,base_link,0.0,0.0,0.0,0.0,-1.0,0.0,0.0,0.0,0.0,0.0,0.0,0.0,0.0,0.385,0.03,0.026,1.21846967915e-07,0.0,0.0,0.0,1.21846967915e-07,0.0,0.0,0.0,1.21846967915e-07,0.6668522,0.18632635,9.30651085,9e-08,0.0,0.0,0.0,9e-08,0.0,0.0,0.0,9e-08
1531945870096637901,6241,1531945870096251446,base_link,0.0,0.0,0.0,0.0,-1.0,0.0,0.0,0.0,0.0,0.0,0.0,0.0,0.0,0.347,0.017,0.004,1.21846967915e-07,0.0,0.0,0.0,1.21846967915e-07,0.0,0.0,0.0,1.21846967915e-07,0.7649187,-0.14709975,9.8851032,9e-08,0.0,0.0,0.0,9e-08,0.0,0.0,0.0,9e-08
1531945870197350711,6242,1531945870196568964,base_link,0.0,0.0,0.0,0.0,-1.0,0.0,0.0,0.0,0.0,0.0,0.0,0.0,0.0,0.348,0.036,0.048,1.21846967915e-07,0.0,0.0,0.0,1.21846967915e-07,0.0,0.0,0.0,1.21846967915e-07,0.67665885,-0.18632635,7.93357985,9e-08,0.0,0.0,0.0,9e-08,0.0,0.0,0.0,9e-08
1531945870297048383,6243,1531945870296200973,base_link,0.0,0.0,0.0,0.0,-1.0,0.0,0.0,0.0,0.0,0.0,0.0,0.0,0.0,0.269,0.013,0.066,1.21846967915e-07,0.0,0.0,0.0,1.21846967915e-07,0.0,0.0,0.0,1.21846967915e-07,0.7453054,-0.1765197,7.9237732,9e-08,0.0,0.0,0.0,9e-08,0.0,0.0,0.0,9e-08
1531945870367749738,6244,1531945870366457220,base_link,0.0,0.0,0.0,0.0,-1.0,0.0,0.0,0.0,0.0,0.0,0.0,0.0,0.0,0.079,-0.008,0.059,1.21846967915e-07,0.0,0.0,0.0,1.21846967915e-07,0.0,0.0,0.0,1.21846967915e-07,0.87279185,-0.14709975,8.58081875,9e-08,0.0,0.0,0.0,9e-08,0.0,0.0,0.0,9e-08
1531945870470401163,6245,1531945870469562557,base_link,0.0,0.0,0.0,0.0,-1.0,0.0,0.0,0.0,0.0,0.0,0.0,0.0,0.0,0.065,-0.002,0.043,1.21846967915e-07,0.0,0.0,0.0,1.21846967915e-07,0.0,0.0,0.0,1.21846967915e-07,0.9022118,-0.0196133,9.20844435,9e-08,0.0,0.0,0.0,9e-08,0.0,0.0,0.0,9e-08
1531945870600489992,6246,1531945870599917336,base_link,0.0,0.0,0.0,0.0,-1.0,0.0,0.0,0.0,0.0,0.0,0.0,0.0,0.0,0.003,0.005,0.013,1.21846967915e-07,0.0,0.0,0.0,1.21846967915e-07,0.0,0.0,0.0,1.21846967915e-07,0.89240515,0.1765197,9.63993695,9e-08,0.0,0.0,0.0,9e-08,0.0,0.0,0.0,9e-08
1531945870696469388,6247,1531945870695938896,base_link,0.0,0.0,0.0,0.0,-1.0,0.0,0.0,0.0,0.0,0.0,0.0,0.0,0.0,-0.047,0.011,-0.039,1.21846967915e-07,0.0,0.0,0.0,1.21846967915e-07,0.0,0.0,0.0,1.21846967915e-07,0.7060788,0.28439285,9.7870367,9e-08,0.0,0.0,0.0,9e-08,0.0,0.0,0.0,9e-08
1531945870820386872,6248,1531945870819882568,base_link,0.0,0.0,0.0,0.0,-1.0,0.0,0.0,0.0,0.0,0.0,0.0,0.0,0.0,-0.039,0.049,-0.079,1.21846967915e-07,0.0,0.0,0.0,1.21846967915e-07,0.0,0.0,0.0,1.21846967915e-07,0.6668522,0.5491724,8.6102387,9e-08,0.0,0.0,0.0,9e-08,0.0,0.0,0.0,9e-08
1531945870886640836,6249,1531945870885421697,base_link,0.0,0.0,0.0,0.0,-1.0,0.0,0.0,0.0,0.0,0.0,0.0,0.0,0.0,-0.017,0.03,-0.094,1.21846967915e-07,0.0,0.0,0.0,1.21846967915e-07,0.0,0.0,0.0,1.21846967915e-07,0.59820565,0.50013915,9.01231135,9e-08,0.0,0.0,0.0,9e-08,0.0,0.0,0.0,9e-08
1531945871009787874,6250,1531945871009351795,base_link,0.0,0.0,0.0,0.0,-1.0,0.0,0.0,0.0,0.0,0.0,0.0,0.0,0.0,0.029,-0.004,-0.122,1.21846967915e-07,0.0,0.0,0.0,1.21846967915e-07,0.0,0.0,0.0,1.21846967915e-07,0.48052585,0.2353596,9.6693569,9e-08,0.0,0.0,0.0,9e-08,0.0,0.0,0.0,9e-08
1531945871162257017,6251,1531945871161381498,base_link,0.0,0.0,0.0,0.0,-1.0,0.0,0.0,0.0,0.0,0.0,0.0,0.0,0.0,0.0,-0.009,-0.123,1.21846967915e-07,0.0,0.0,0.0,1.21846967915e-07,0.0,0.0,0.0,1.21846967915e-07,0.34323275,0.3334261,9.8458766,9e-08,0.0,0.0,0.0,9e-08,0.0,0.0,0.0,9e-08
1531945871190707732,6252,1531945871187022208,base_link,0.0,0.0,0.0,0.0,-1.0,0.0,0.0,0.0,0.0,0.0,0.0,0.0,0.0,0.011,0.006,-0.122,1.21846967915e-07,0.0,0.0,0.0,1.21846967915e-07,0.0,0.0,0.0,1.21846967915e-07,0.4314926,0.392266,9.32612415,9e-08,0.0,0.0,0.0,9e-08,0.0,0.0,0.0,9e-08
1531945871284300460,6253,1531945871282458658,base_link,0.0,0.0,0.0,0.0,-1.0,0.0,0.0,0.0,0.0,0.0,0.0,0.0,0.0,-0.054,-0.043,-0.122,1.21846967915e-07,0.0,0.0,0.0,1.21846967915e-07,0.0,0.0,0.0,1.21846967915e-07,0.3138128,0.0980665,9.77723005,9e-08,0.0,0.0,0.0,9e-08,0.0,0.0,0.0,9e-08
1531945871393714359,6254,1531945871391532651,base_link,0.0,0.0,0.0,0.0,-1.0,0.0,0.0,0.0,0.0,0.0,0.0,0.0,0.0,-0.024,-0.042,-0.097,1.21846967915e-07,0.0,0.0,0.0,1.21846967915e-07,0.0,0.0,0.0,1.21846967915e-07,0.5295591,0.00980665,9.50264385,9e-08,0.0,0.0,0.0,9e-08,0.0,0.0,0.0,9e-08
1531945871476659538,6255,1531945871475532860,base_link,0.0,0.0,0.0,0.0,-1.0,0.0,0.0,0.0,0.0,0.0,0.0,0.0,0.0,-0.026,-0.037,-0.086,1.21846967915e-07,0.0,0.0,0.0,1.21846967915e-07,0.0,0.0,0.0,1.21846967915e-07,0.2745862,0.26477955,9.5516771,9e-08,0.0,0.0,0.0,9e-08,0.0,0.0,0.0,9e-08
1531945871623576799,6256,1531945871622659116,base_link,0.0,0.0,0.0,0.0,-1.0,0.0,0.0,0.0,0.0,0.0,0.0,0.0,0.0,-0.087,-0.043,-0.069,1.21846967915e-07,0.0,0.0,0.0,1.21846967915e-07,0.0,0.0,0.0,1.21846967915e-07,0.4903325,-0.0196133,9.3751574,9e-08,0.0,0.0,0.0,9e-08,0.0,0.0,0.0,9e-08
1531945871709595917,6257,1531945871709077943,base_link,0.0,0.0,0.0,0.0,-1.0,0.0,0.0,0.0,0.0,0.0,0.0,0.0,0.0,-0.076,-0.045,-0.04,1.21846967915e-07,0.0,0.0,0.0,1.21846967915e-07,0.0,0.0,0.0,1.21846967915e-07,0.36284605,0.14709975,9.38496405,9e-08,0.0,0.0,0.0,9e-08,0.0,0.0,0.0,9e-08
1531945871793095824,6258,1531945871791983360,base_link,0.0,0.0,0.0,0.0,-1.0,0.0,0.0,0.0,0.0,0.0,0.0,0.0,0.0,-0.054,-0.056,-0.023,1.21846967915e-07,0.0,0.0,0.0,1.21846967915e-07,0.0,0.0,0.0,1.21846967915e-07,0.55897905,-0.14709975,9.67916355,9e-08,0.0,0.0,0.0,9e-08,0.0,0.0,0.0,9e-08
1531945871880925945,6259,1531945871879500917,base_link,0.0,0.0,0.0,0.0,-1.0,0.0,0.0,0.0,0.0,0.0,0.0,0.0,0.0,-0.026,-0.076,-0.013,1.21846967915e-07,0.0,0.0,0.0,1.21846967915e-07,0.0,0.0,0.0,1.21846967915e-07,0.40207265,0.12748645,10.99325465,9e-08,0.0,0.0,0.0,9e-08,0.0,0.0,0.0,9e-08
1531945872002155466,6260,1531945872001545545,base_link,0.0,0.0,0.0,0.0,-1.0,0.0,0.0,0.0,0.0,0.0,0.0,0.0,0.0,-0.163,-0.07,-0.003,1.21846967915e-07,0.0,0.0,0.0,1.21846967915e-07,0.0,0.0,0.0,1.21846967915e-07,0.50013915,0.0392266,11.2776475,9e-08,0.0,0.0,0.0,9e-08,0.0,0.0,0.0,9e-08
1531945872113021734,6261,1531945872112629483,base_link,0.0,0.0,0.0,0.0,-1.0,0.0,0.0,0.0,0.0,0.0,0.0,0.0,0.0,-0.217,-0.035,-0.004,1.21846967915e-07,0.0,0.0,0.0,1.21846967915e-07,0.0,0.0,0.0,1.21846967915e-07,0.51975245,0.36284605,10.2185293,9e-08,0.0,0.0,0.0,9e-08,0.0,0.0,0.0,9e-08
1531945872197136044,6262,1531945872196045478,base_link,0.0,0.0,0.0,0.0,-1.0,0.0,0.0,0.0,0.0,0.0,0.0,0.0,0.0,-0.171,-0.037,-0.022,1.21846967915e-07,0.0,0.0,0.0,1.21846967915e-07,0.0,0.0,0.0,1.21846967915e-07,0.55897905,0.0196133,9.9635564,9e-08,0.0,0.0,0.0,9e-08,0.0,0.0,0.0,9e-08
1531945872305121008,6263,1531945872304401595,base_link,0.0,0.0,0.0,0.0,-1.0,0.0,0.0,0.0,0.0,0.0,0.0,0.0,0.0,-0.022,-0.013,-0.036,1.21846967915e-07,0.0,0.0,0.0,1.21846967915e-07,0.0,0.0,0.0,1.21846967915e-07,0.55897905,0.18632635,8.5513988,9e-08,0.0,0.0,0.0,9e-08,0.0,0.0,0.0,9e-08
1531945872395305143,6264,1531945872393717189,base_link,0.0,0.0,0.0,0.0,-1.0,0.0,0.0,0.0,0.0,0.0,0.0,0.0,0.0,-0.01,-0.047,-0.036,1.21846967915e-07,0.0,0.0,0.0,1.21846967915e-07,0.0,0.0,0.0,1.21846967915e-07,0.4118793,0.10787315,10.8657682,9e-08,0.0,0.0,0.0,9e-08,0.0,0.0,0.0,9e-08
1531945872480950515,6265,1531945872480118601,base_link,0.0,0.0,0.0,0.0,-1.0,0.0,0.0,0.0,0.0,0.0,0.0,0.0,0.0,-0.053,-0.019,-0.003,1.21846967915e-07,0.0,0.0,0.0,1.21846967915e-07,0.0,0.0,0.0,1.21846967915e-07,0.44129925,0.1176798,9.9439431,9e-08,0.0,0.0,0.0,9e-08,0.0,0.0,0.0,9e-08
1531945872617210336,6266,1531945872615165397,base_link,0.0,0.0,0.0,0.0,-1.0,0.0,0.0,0.0,0.0,0.0,0.0,0.0,0.0,-0.069,-0.055,0.019,1.21846967915e-07,0.0,0.0,0.0,1.21846967915e-07,0.0,0.0,0.0,1.21846967915e-07,0.46091255,0.20593965,10.6304086,9e-08,0.0,0.0,0.0,9e-08,0.0,0.0,0.0,9e-08
