%time,field.header.seq,field.header.stamp,field.header.frame_id,field.orientation.x,field.orientation.y,field.orientation.z,field.orientation.w,field.orientation_covariance0,field.orientation_covariance1,field.orientation_covariance2,field.orientation_covariance3,field.orientation_covariance4,field.orientation_covariance5,field.orientation_covariance6,field.orientation_covariance7,field.orientation_covariance8,field.angular_velocity.x,field.angular_velocity.y,field.angular_velocity.z,field.angular_velocity_covariance0,field.angular_velocity_covariance1,field.angular_velocity_covariance2,field.angular_velocity_covariance3,field.angular_velocity_covariance4,field.angular_velocity_covariance5,field.angular_velocity_covariance6,field.angular_velocity_covariance7,field.angular_velocity_covariance8,field.linear_acceleration.x,field.linear_acceleration.y,field.linear_acceleration.z,field.linear_acceleration_covariance0,field.linear_acceleration_covariance1,field.linear_acceleration_covariance2,field.linear_acceleration_covariance3,field.linear_acceleration_covariance4,field.linear_acceleration_covariance5,field.linear_acceleration_covariance6,field.linear_acceleration_covariance7,field.linear_acceleration_covariance8
1531944031472531916,1208,1531944031472137616,base_link,0.00789388307323,-0.13958382924,-0.989825601977,0.0264446383225,1.0,0.0,0.0,0.0,1.0,0.0,0.0,0.0,1.0,-1.05613052845,-0.0465226247907,0.0501267239451,1.21846967915e-07,0.0,0.0,0.0,1.21846967915e-07,0.0,0.0,0.0,1.21846967915e-07,0.4314926,0.196133,11.4737805,9e-08,0.0,0.0,0.0,9e-08,0.0,0.0,0.0,9e-08
1531944031792840938,1209,1531944031792303471,base_link,0.0183624583844,0.0448576874628,-0.998284326755,0.0328483021247,1.0,0.0,0.0,0.0,1.0,0.0,0.0,0.0,1.0,-0.914347350597,0.200876757503,0.000431870575994,1.21846967915e-07,0.0,0.0,0.0,1.21846967915e-07,0.0,0.0,0.0,1.21846967915e-07,1.10815145,0.5295591,8.2179727,9e-08,0.0,0.0,0.0,9e-08,0.0,0.0,0.0,9e-08
1531944032168291628,1210,1531944032168015343,base_link,0.0406429043078,0.161946386167,-0.985398777091,0.0333282529414,1.0,0.0,0.0,0.0,1.0,0.0,0.0,0.0,1.0,-0.458997786045,0.0857608988881,-0.0073194084689,1.21846967915e-07,0.0,0.0,0.0,1.21846967915e-07,0.0,0.0,0.0,1.21846967915e-07,-0.0784532,-0.08825985,7.0215614,9e-08,0.0,0.0,0.0,9e-08,0.0,0.0,0.0,9e-08
1531944032635304302,1211,1531944032634993553,base_link,0.0398154535866,0.186552924669,-0.9798134812,0.0598187095476,1.0,0.0,0.0,0.0,1.0,0.0,0.0,0.0,1.0,-0.0107562839985,-0.0340715125203,0.237903371453,1.21846967915e-07,0.0,0.0,0.0,1.21846967915e-07,0.0,0.0,0.0,1.21846967915e-07,-1.1375714,-0.5099458,9.81645665,9e-08,0.0,0.0,0.0,9e-08,0.0,0.0,0.0,9e-08
1531944033075210875,1212,1531944033074932253,base_link,0.047899043541,0.197485840118,-0.972681262781,0.112232729695,1.0,0.0,0.0,0.0,1.0,0.0,0.0,0.0,1.0,-0.0116704721004,-0.0104372985661,0.204770073295,1.21846967915e-07,0.0,0.0,0.0,1.21846967915e-07,0.0,0.0,0.0,1.21846967915e-07,-1.40235095,-0.0784532,9.4928372,9e-08,0.0,0.0,0.0,9e-08,0.0,0.0,0.0,9e-08
1531944033426993000,1213,1531944033426661387,base_link,0.0557780322388,0.206528366222,-0.967061863957,0.137935478922,1.0,0.0,0.0,0.0,1.0,0.0,0.0,0.0,1.0,0.0245228521526,0.0263101682067,0.174155920744,1.21846967915e-07,0.0,0.0,0.0,1.21846967915e-07,0.0,0.0,0.0,1.21846967915e-07,-1.2552512,-0.57859235,8.95347145,9e-08,0.0,0.0,0.0,9e-08,0.0,0.0,0.0,9e-08
1531944033916182164,1214,1531944033915428220,base_link,0.0776904346,0.173235630451,-0.967045858498,0.169634667078,1.0,0.0,0.0,0.0,1.0,0.0,0.0,0.0,1.0,0.182763427496,0.0470699369907,0.130138039589,1.21846967915e-07,0.0,0.0,0.0,1.21846967915e-07,0.0,0.0,0.0,1.21846967915e-07,-1.34351105,0.28439285,8.34545915,9e-08,0.0,0.0,0.0,9e-08,0.0,0.0,0.0,9e-08
1531944034280008109,1215,1531944034278800089,base_link,0.0963708569251,0.135538502189,-0.967631358173,0.189819722472,1.0,0.0,0.0,0.0,1.0,0.0,0.0,0.0,1.0,0.144799605012,0.0610364563763,0.146597102284,1.21846967915e-07,0.0,0.0,0.0,1.21846967915e-07,0.0,0.0,0.0,1.21846967915e-07,-1.46119085,0.0196133,8.2964259,9e-08,0.0,0.0,0.0,9e-08,0.0,0.0,0.0,9e-08
1531944034751950468,1216,1531944034751665191,base_link,0.111510415486,0.0962706883994,-0.966915613172,0.208258442319,1.0,0.0,0.0,0.0,1.0,0.0,0.0,0.0,1.0,0.184308096766,-0.00266486406326,0.0676284506917,1.21846967915e-07,0.0,0.0,0.0,1.21846967915e-07,0.0,0.0,0.0,1.21846967915e-07,-1.4513842,0.40207265,8.8652116,9e-08,0.0,0.0,0.0,9e-08,0.0,0.0,0.0,9e-08
1531944035111054347,1217,1531944035110532081,base_link,0.110505599896,0.0702525950167,-0.967972451398,0.214201817497,1.0,0.0,0.0,0.0,1.0,0.0,0.0,0.0,1.0,0.179064929485,-0.0512600839138,0.020480658859,1.21846967915e-07,0.0,0.0,0.0,1.21846967915e-07,0.0,0.0,0.0,1.21846967915e-07,-1.5298374,-0.02941995,10.73828175,9e-08,0.0,0.0,0.0,9e-08,0.0,0.0,0.0,9e-08
1531944035541177213,1218,1531944035540833025,base_link,0.0974375508777,0.0484751776701,-0.97094383426,0.213129424393,1.0,0.0,0.0,0.0,1.0,0.0,0.0,0.0,1.0,0.0899728164077,-0.113111659884,-0.0538851842284,1.21846967915e-07,0.0,0.0,0.0,1.21846967915e-07,0.0,0.0,0.0,1.21846967915e-07,-1.55925735,0.00980665,10.64021525,9e-08,0.0,0.0,0.0,9e-08,0.0,0.0,0.0,9e-08
1531944035944474133,1219,1531944035944141113,base_link,0.0785916104509,0.0201075095121,-0.974704466213,0.208255252927,1.0,0.0,0.0,0.0,1.0,0.0,0.0,0.0,1.0,0.0818703770638,-0.13241353631,0.0207717679441,1.21846967915e-07,0.0,0.0,0.0,1.21846967915e-07,0.0,0.0,0.0,1.21846967915e-07,-1.4709975,-0.06864655,11.6895268,9e-08,0.0,0.0,0.0,9e-08,0.0,0.0,0.0,9e-08
1531944036333891832,1220,1531944036333475228,base_link,0.0569793586555,0.00379548002264,-0.974629618651,0.21641638909,1.0,0.0,0.0,0.0,1.0,0.0,0.0,0.0,1.0,-0.0661617070436,-0.106709443033,0.0327750407159,1.21846967915e-07,0.0,0.0,0.0,1.21846967915e-07,0.0,0.0,0.0,1.21846967915e-07,-1.3533177,0.36284605,11.99353295,9e-08,0.0,0.0,0.0,9e-08,0.0,0.0,0.0,9e-08
1531944036643756516,1221,1531944036642885484,base_link,0.0414843512986,0.00768604518972,-0.975208749248,0.217227688608,1.0,0.0,0.0,0.0,1.0,0.0,0.0,0.0,1.0,-0.00760418968275,-0.0686805471778,-0.0154473064467,1.21846967915e-07,0.0,0.0,0.0,1.21846967915e-07,0.0,0.0,0.0,1.21846967915e-07,-1.40235095,-0.1372931,12.24850585,9e-08,0.0,0.0,0.0,9e-08,0.0,0.0,0.0,9e-08
1531944036979182070,1222,1531944036978950937,base_link,0.0328839697564,-0.000162331838461,-0.976718150694,0.211991208041,1.0,0.0,0.0,0.0,1.0,0.0,0.0,0.0,1.0,0.053730469197,-0.0484297946095,-0.0341391786933,1.21846967915e-07,0.0,0.0,0.0,1.21846967915e-07,0.0,0.0,0.0,1.21846967915e-07,-1.28467115,0.08825985,10.97364135,9e-08,0.0,0.0,0.0,9e-08,0.0,0.0,0.0,9e-08
1531944037506149115,1223,1531944037505740735,base_link,0.028790648174,-0.0181521539038,-0.978374596034,0.204021439367,1.0,0.0,0.0,0.0,1.0,0.0,0.0,0.0,1.0,0.0214884839952,-0.0420151427388,0.000255375169218,1.21846967915e-07,0.0,0.0,0.0,1.21846967915e-07,0.0,0.0,0.0,1.21846967915e-07,-1.1179581,0.65704555,9.44380395,9e-08,0.0,0.0,0.0,9e-08,0.0,0.0,0.0,9e-08
1531944038005512397,1224,1531944038005129361,base_link,0.0173444251485,0.00639061636692,-0.979649992433,0.199860509516,1.0,0.0,0.0,0.0,1.0,0.0,0.0,0.0,1.0,-0.205603986979,0.00406767241657,-0.0210479367524,1.21846967915e-07,0.0,0.0,0.0,1.21846967915e-07,0.0,0.0,0.0,1.21846967915e-07,-0.73549875,0.36284605,9.83606995,9e-08,0.0,0.0,0.0,9e-08,0.0,0.0,0.0,9e-08
1531944038416526976,1225,1531944038416292834,base_link,0.0168449169079,-0.00325287007267,-0.979857731059,0.198958524558,1.0,0.0,0.0,0.0,1.0,0.0,0.0,0.0,1.0,0.129648789763,0.00367664173245,0.0246933996677,1.21846967915e-07,0.0,0.0,0.0,1.21846967915e-07,0.0,0.0,0.0,1.21846967915e-07,-0.4707192,-0.04903325,10.58137535,9e-08,0.0,0.0,0.0,9e-08,0.0,0.0,0.0,9e-08
1531944038763915328,1226,1531944038762426543,base_link,0.0222386443327,-0.00532067094096,-0.978793912518,0.203567212432,1.0,0.0,0.0,0.0,1.0,0.0,0.0,0.0,1.0,-0.0641289204359,0.0184554774314,0.0074668652378,1.21846967915e-07,0.0,0.0,0.0,1.21846967915e-07,0.0,0.0,0.0,1.21846967915e-07,-0.3726527,0.28439285,8.77695175,9e-08,0.0,0.0,0.0,9e-08,0.0,0.0,0.0,9e-08
1531944039094903489,1227,1531944039094624803,base_link,0.0223624907733,0.00187687039489,-0.979084642609,0.202211915995,1.0,0.0,0.0,0.0,1.0,0.0,0.0,0.0,1.0,-0.0541289933026,-0.00132786668837,-0.00841403566301,1.21846967915e-07,0.0,0.0,0.0,1.21846967915e-07,0.0,0.0,0.0,1.21846967915e-07,-0.2745862,0.3138128,10.1204628,9e-08,0.0,0.0,0.0,9e-08,0.0,0.0,0.0,9e-08
1531944039408452364,1228,1531944039408211407,base_link,0.0240498107919,-0.009107685553,-0.979826023181,0.198190870025,1.0,0.0,0.0,0.0,1.0,0.0,0.0,0.0,1.0,0.0433046147227,0.0104162693024,-0.0128751508892,1.21846967915e-07,0.0,0.0,0.0,1.21846967915e-07,0.0,0.0,0.0,1.21846967915e-07,-0.14709975,0.196133,9.83606995,9e-08,0.0,0.0,0.0,9e-08,0.0,0.0,0.0,9e-08
1531944039770488127,1229,1531944039768976078,base_link,0.0216310456094,-0.0058246740069,-0.980020858325,0.197629168613,1.0,0.0,0.0,0.0,1.0,0.0,0.0,0.0,1.0,-0.0419155694544,-0.0292966607958,-0.0167867448181,1.21846967915e-07,0.0,0.0,0.0,1.21846967915e-07,0.0,0.0,0.0,1.21846967915e-07,-0.08825985,1.17214501521e-15,9.5712904,9e-08,0.0,0.0,0.0,9e-08,0.0,0.0,0.0,9e-08
1531944040058095176,1230,1531944040057775147,base_link,0.01553444126,-0.00234923094835,-0.980481633795,0.195981958453,1.0,0.0,0.0,0.0,1.0,0.0,0.0,0.0,1.0,-0.0477291829884,-0.0373365730047,0.0110724624246,1.21846967915e-07,0.0,0.0,0.0,1.21846967915e-07,0.0,0.0,0.0,1.21846967915e-07,-0.12748645,0.14709975,10.64021525,9e-08,0.0,0.0,0.0,9e-08,0.0,0.0,0.0,9e-08
1531944040388512402,1231,1531944040387572283,base_link,0.0113100018045,-0.000939758266178,-0.980634249857,0.19551897279,1.0,0.0,0.0,0.0,1.0,0.0,0.0,0.0,1.0,0.0939715951681,-0.00645732134581,-0.0631089806557,1.21846967915e-07,0.0,0.0,0.0,1.21846967915e-07,0.0,0.0,0.0,1.21846967915e-07,-0.0196133,0.02941995,9.7674234,9e-08,0.0,0.0,0.0,9e-08,0.0,0.0,0.0,9e-08
1531944040816128391,1232,1531944040815101137,base_link,0.00629216428363,-0.00858230755276,-0.981138712629,0.193011862969,1.0,0.0,0.0,0.0,1.0,0.0,0.0,0.0,1.0,-0.184267997742,-0.0148557052016,-0.00216453708708,1.21846967915e-07,0.0,0.0,0.0,1.21846967915e-07,0.0,0.0,0.0,1.21846967915e-07,-0.0196133,0.2549729,10.34601575,9e-08,0.0,0.0,0.0,9e-08,0.0,0.0,0.0,9e-08
1531944041223244581,1233,1531944041222196112,base_link,0.000879789195325,0.00679623012266,-0.983600360726,0.180231427909,1.0,0.0,0.0,0.0,1.0,0.0,0.0,0.0,1.0,-0.0535221248865,-0.0291634369642,-0.0671105012298,1.21846967915e-07,0.0,0.0,0.0,1.21846967915e-07,0.0,0.0,0.0,1.21846967915e-07,0.12748645,0.22555295,9.5712904,9e-08,0.0,0.0,0.0,9e-08,0.0,0.0,0.0,9e-08
1531944041559064091,1234,1531944041558832798,base_link,-0.00437920603351,0.00892765734505,-0.984208864514,0.176731520962,1.0,0.0,0.0,0.0,1.0,0.0,0.0,0.0,1.0,-0.0611590743065,-0.0126357283443,-0.0230787843466,1.21846967915e-07,0.0,0.0,0.0,1.21846967915e-07,0.0,0.0,0.0,1.21846967915e-07,0.3334261,0.1372931,10.05181625,9e-08,0.0,0.0,0.0,9e-08,0.0,0.0,0.0,9e-08
1531944041908589260,1235,1531944041908290575,base_link,-0.00520776424203,0.0168727032413,-0.98367366398,0.179093031324,1.0,0.0,0.0,0.0,1.0,0.0,0.0,0.0,1.0,0.167576551437,0.0121977441013,0.10266135633,1.21846967915e-07,0.0,0.0,0.0,1.21846967915e-07,0.0,0.0,0.0,1.21846967915e-07,0.1569064,-0.28439285,8.85540495,9e-08,0.0,0.0,0.0,9e-08,0.0,0.0,0.0,9e-08
1531944042473055918,1236,1531944042472720210,base_link,-0.000282491792319,0.00854893513899,-0.977536328714,0.210593356854,1.0,0.0,0.0,0.0,1.0,0.0,0.0,0.0,1.0,-0.0898527428508,0.0304484330118,-0.00172019191086,1.21846967915e-07,0.0,0.0,0.0,1.21846967915e-07,0.0,0.0,0.0,1.21846967915e-07,0.69627215,0.4903325,10.07142955,9e-08,0.0,0.0,0.0,9e-08,0.0,0.0,0.0,9e-08
1531944042869977874,1237,1531944042869709461,base_link,0.00184746186503,-0.0147477518599,-0.97830380942,0.206641591105,1.0,0.0,0.0,0.0,1.0,0.0,0.0,0.0,1.0,0.374954342842,0.0024875793606,0.0129795223475,1.21846967915e-07,0.0,0.0,0.0,1.21846967915e-07,0.0,0.0,0.0,1.21846967915e-07,0.81395195,-0.18632635,11.64049355,9e-08,0.0,0.0,0.0,9e-08,0.0,0.0,0.0,9e-08
1531944043321463075,1238,1531944043320860137,base_link,0.00733136591128,-0.0503120525725,-0.973459052852,0.223142153928,1.0,0.0,0.0,0.0,1.0,0.0,0.0,0.0,1.0,0.043992228806,0.0328865349293,0.00629385514185,1.21846967915e-07,0.0,0.0,0.0,1.21846967915e-07,0.0,0.0,0.0,1.21846967915e-07,-0.0784532,0.7453054,7.30595425,9e-08,0.0,0.0,0.0,9e-08,0.0,0.0,0.0,9e-08
1531944043682078538,1239,1531944043681372497,base_link,0.0152571798351,-0.0518202887838,-0.97747594865,0.20401628843,1.0,0.0,0.0,0.0,1.0,0.0,0.0,0.0,1.0,-0.112690798938,0.0248344410211,-0.144812211394,1.21846967915e-07,0.0,0.0,0.0,1.21846967915e-07,0.0,0.0,0.0,1.21846967915e-07,0.16671305,0.06864655,7.9237732,9e-08,0.0,0.0,0.0,9e-08,0.0,0.0,0.0,9e-08
1531944044212702043,1240,1531944044212343710,base_link,0.00447854479423,-0.039433243164,-0.980916792113,0.190334465931,1.0,0.0,0.0,0.0,1.0,0.0,0.0,0.0,1.0,-0.0438657850027,-0.0759861022234,0.0671205446124,1.21846967915e-07,0.0,0.0,0.0,1.21846967915e-07,0.0,0.0,0.0,1.21846967915e-07,0.57859235,-0.196133,11.36590735,9e-08,0.0,0.0,0.0,9e-08,0.0,0.0,0.0,9e-08
1531944044598212754,1241,1531944044597661592,base_link,-0.0108765192104,-0.0180566443776,-0.977135731072,0.211568953264,1.0,0.0,0.0,0.0,1.0,0.0,0.0,0.0,1.0,-0.192675754428,-0.0670436099172,0.111815147102,1.21846967915e-07,0.0,0.0,0.0,1.21846967915e-07,0.0,0.0,0.0,1.21846967915e-07,0.53936575,0.1569064,11.4149406,9e-08,0.0,0.0,0.0,9e-08,0.0,0.0,0.0,9e-08
1531944045001580284,1242,1531944045001331326,base_link,-0.0239489836683,0.0078135040006,-0.974495564094,0.222988320094,1.0,0.0,0.0,0.0,1.0,0.0,0.0,0.0,1.0,-0.126508787274,0.0162977837026,-0.0153852794319,1.21846967915e-07,0.0,0.0,0.0,1.21846967915e-07,0.0,0.0,0.0,1.21846967915e-07,0.5295591,0.1176798,9.93413645,9e-08,0.0,0.0,0.0,9e-08,0.0,0.0,0.0,9e-08
1531944045339053864,1243,1531944045338405326,base_link,-0.0249531356286,0.0106709318681,-0.973899940593,0.225349457395,1.0,0.0,0.0,0.0,1.0,0.0,0.0,0.0,1.0,0.0429109856486,0.000496899709106,0.0708634853363,1.21846967915e-07,0.0,0.0,0.0,1.21846967915e-07,0.0,0.0,0.0,1.21846967915e-07,0.40207265,-0.22555295,10.591182,9e-08,0.0,0.0,0.0,9e-08,0.0,0.0,0.0,9e-08
1531944045734169443,1244,1531944045733064046,base_link,-0.0302661853739,0.0221464890193,-0.968167380168,0.247478110194,1.0,0.0,0.0,0.0,1.0,0.0,0.0,0.0,1.0,-0.014817555435,0.0264252964407,0.0744410157204,1.21846967915e-07,0.0,0.0,0.0,1.21846967915e-07,0.0,0.0,0.0,1.21846967915e-07,0.2941995,0.61781895,9.8654899,9e-08,0.0,0.0,0.0,9e-08,0.0,0.0,0.0,9e-08
1531944046062578856,1245,1531944046062225483,base_link,-0.0240737300076,0.0100991998026,-0.969390805595,0.244130964267,1.0,0.0,0.0,0.0,1.0,0.0,0.0,0.0,1.0,0.0513002164662,0.0433066934347,-0.0713513419032,1.21846967915e-07,0.0,0.0,0.0,1.21846967915e-07,0.0,0.0,0.0,1.21846967915e-07,0.51975245,0.1372931,9.62032365,9e-08,0.0,0.0,0.0,9e-08,0.0,0.0,0.0,9e-08
1531944046427244845,1246,1531944046426934512,base_link,-0.012847915443,-0.0153242468524,-0.97151702635,0.236124471497,1.0,0.0,0.0,0.0,1.0,0.0,0.0,0.0,1.0,0.326251149178,0.0235007368028,-0.0180547703058,1.21846967915e-07,0.0,0.0,0.0,1.21846967915e-07,0.0,0.0,0.0,1.21846967915e-07,0.38245935,0.0784532,8.2179727,9e-08,0.0,0.0,0.0,9e-08,0.0,0.0,0.0,9e-08
1531944046730292265,1247,1531944046730061579,base_link,-0.00114454097058,-0.0399521763153,-0.971883468571,0.232045334261,1.0,0.0,0.0,0.0,1.0,0.0,0.0,0.0,1.0,-0.0162755176425,0.089634642005,-0.0604848340154,1.21846967915e-07,0.0,0.0,0.0,1.21846967915e-07,0.0,0.0,0.0,1.21846967915e-07,0.46091255,0.50013915,8.8848249,9e-08,0.0,0.0,0.0,9e-08,0.0,0.0,0.0,9e-08
1531944047165282563,1248,1531944047164996293,base_link,0.00962809640433,-0.0180655238792,-0.976751306212,0.213395928781,1.0,0.0,0.0,0.0,1.0,0.0,0.0,0.0,1.0,-0.189232409,0.0715851634741,-0.084945872426,1.21846967915e-07,0.0,0.0,0.0,1.21846967915e-07,0.0,0.0,0.0,1.21846967915e-07,0.61781895,0.3530394,8.7083052,9e-08,0.0,0.0,0.0,9e-08,0.0,0.0,0.0,9e-08
1531944047564362874,1249,1531944047563823552,base_link,0.0179043705456,-0.00239443228614,-0.978337859846,0.206224955333,1.0,0.0,0.0,0.0,1.0,0.0,0.0,0.0,1.0,-0.0807387381792,0.0243193451315,0.00978830084205,1.21846967915e-07,0.0,0.0,0.0,1.21846967915e-07,0.0,0.0,0.0,1.21846967915e-07,1.1964113,0.0784532,10.198916,9e-08,0.0,0.0,0.0,9e-08,0.0,0.0,0.0,9e-08
1531944047972831927,1250,1531944047972548345,base_link,0.01877677414,0.015261641991,-0.977795203346,0.208161128335,1.0,0.0,0.0,0.0,1.0,0.0,0.0,0.0,1.0,-0.162501364946,0.0235826224089,-0.0104959029704,1.21846967915e-07,0.0,0.0,0.0,1.21846967915e-07,0.0,0.0,0.0,1.21846967915e-07,1.0198916,0.4511059,9.18883105,9e-08,0.0,0.0,0.0,9e-08,0.0,0.0,0.0,9e-08
1531944048314983865,1251,1531944048314657020,base_link,0.0157949534911,0.0288087753959,-0.979287759702,0.199790033793,1.0,0.0,0.0,0.0,1.0,0.0,0.0,0.0,1.0,0.0519327446818,-0.0467955991626,-0.0937896445394,1.21846967915e-07,0.0,0.0,0.0,1.21846967915e-07,0.0,0.0,0.0,1.21846967915e-07,0.6472389,0.48052585,9.26728425,9e-08,0.0,0.0,0.0,9e-08,0.0,0.0,0.0,9e-08
1531944048641794129,1252,1531944048641542771,base_link,0.0153552290209,-0.00992913101401,-0.979537369399,0.200429965946,1.0,0.0,0.0,0.0,1.0,0.0,0.0,0.0,1.0,0.253707647324,-0.0608424395323,0.119991526008,1.21846967915e-07,0.0,0.0,0.0,1.21846967915e-07,0.0,0.0,0.0,1.21846967915e-07,0.5099458,-0.16671305,10.54214875,9e-08,0.0,0.0,0.0,9e-08,0.0,0.0,0.0,9e-08
1531944049020295410,1253,1531944049020036917,base_link,0.0105277710997,-0.0558483642865,-0.973542171538,0.22132728363,1.0,0.0,0.0,0.0,1.0,0.0,0.0,0.0,1.0,0.107902266085,-0.0559483282268,0.0714723914862,1.21846967915e-07,0.0,0.0,0.0,1.21846967915e-07,0.0,0.0,0.0,1.21846967915e-07,0.5491724,0.48052585,10.48330885,9e-08,0.0,0.0,0.0,9e-08,0.0,0.0,0.0,9e-08
1531944049429253102,1254,1531944049427798876,base_link,0.00864065937607,-0.0786933853918,-0.97288242453,0.217330343353,1.0,0.0,0.0,0.0,1.0,0.0,0.0,0.0,1.0,0.0413478985429,0.028372105211,-0.114991255105,1.21846967915e-07,0.0,0.0,0.0,1.21846967915e-07,0.0,0.0,0.0,1.21846967915e-07,0.9414384,0.53936575,11.58165365,9e-08,0.0,0.0,0.0,9e-08,0.0,0.0,0.0,9e-08
1531944049938990520,1255,1531944049938372126,base_link,0.0220436106894,-0.131563870986,-0.977293526984,0.164628032832,1.0,0.0,0.0,0.0,1.0,0.0,0.0,0.0,1.0,0.10856346041,-0.0696513056755,-0.192273586988,1.21846967915e-07,0.0,0.0,0.0,1.21846967915e-07,0.0,0.0,0.0,1.21846967915e-07,0.5295591,0.2157463,10.002783,9e-08,0.0,0.0,0.0,9e-08,0.0,0.0,0.0,9e-08
1531944050326897090,1256,1531944050326390759,base_link,0.0229223866651,-0.16319357834,-0.976403915006,0.13956294257,1.0,0.0,0.0,0.0,1.0,0.0,0.0,0.0,1.0,0.0283177904785,0.000268196687102,-0.0634801238775,1.21846967915e-07,0.0,0.0,0.0,1.21846967915e-07,0.0,0.0,0.0,1.21846967915e-07,0.53936575,-0.2745862,8.50236555,9e-08,0.0,0.0,0.0,9e-08,0.0,0.0,0.0,9e-08
1531944050672123114,1257,1531944050671854797,base_link,0.0162370290227,-0.151708065228,-0.97936602622,0.132526255961,1.0,0.0,0.0,0.0,1.0,0.0,0.0,0.0,1.0,-0.0601017139852,0.0462614744902,-0.150761321187,1.21846967915e-07,0.0,0.0,0.0,1.21846967915e-07,0.0,0.0,0.0,1.21846967915e-07,0.69627215,0.79433865,8.34545915,9e-08,0.0,0.0,0.0,9e-08,0.0,0.0,0.0,9e-08
1531944051075956378,1258,1531944051075516350,base_link,0.0299292556899,-0.162473803379,-0.983677458568,0.0713103104422,1.0,0.0,0.0,0.0,1.0,0.0,0.0,0.0,1.0,0.284410476685,-0.0353535376489,-0.33243688941,1.21846967915e-07,0.0,0.0,0.0,1.21846967915e-07,0.0,0.0,0.0,1.21846967915e-07,0.57859235,0.10787315,9.4928372,9e-08,0.0,0.0,0.0,9e-08,0.0,0.0,0.0,9e-08
1531944051445590231,1259,1531944051442953328,base_link,0.0166886985644,-0.191815834821,-0.980971740213,0.0249523096067,1.0,0.0,0.0,0.0,1.0,0.0,0.0,0.0,1.0,-0.103885859251,-0.158439487219,-0.186287656426,1.21846967915e-07,0.0,0.0,0.0,1.21846967915e-07,0.0,0.0,0.0,1.21846967915e-07,0.59820565,0.50013915,10.38524235,9e-08,0.0,0.0,0.0,9e-08,0.0,0.0,0.0,9e-08
1531944051805838287,1260,1531944051805519858,base_link,-0.00439982622999,-0.166171410816,-0.986025421129,-0.0110259985147,1.0,0.0,0.0,0.0,1.0,0.0,0.0,0.0,1.0,-0.17731103301,-0.159172877669,-0.140666037798,1.21846967915e-07,0.0,0.0,0.0,1.21846967915e-07,0.0,0.0,0.0,1.21846967915e-07,0.4903325,0.2549729,10.7480884,9e-08,0.0,0.0,0.0,9e-08,0.0,0.0,0.0,9e-08
1531944052192173962,1261,1531944052191882349,base_link,-0.0250344508465,-0.139273176764,-0.989115164256,-0.0403416700632,1.0,0.0,0.0,0.0,1.0,0.0,0.0,0.0,1.0,-0.128297016025,-0.116747662425,-0.143810227513,1.21846967915e-07,0.0,0.0,0.0,1.21846967915e-07,0.0,0.0,0.0,1.21846967915e-07,0.53936575,0.3138128,11.1991943,9e-08,0.0,0.0,0.0,9e-08,0.0,0.0,0.0,9e-08
1531944052611903491,1262,1531944052611596550,base_link,-0.039368258796,-0.110769225968,-0.990505488474,-0.0712684788736,1.0,0.0,0.0,0.0,1.0,0.0,0.0,0.0,1.0,-0.21090722084,-0.0591780468822,-0.0937223434448,1.21846967915e-07,0.0,0.0,0.0,1.21846967915e-07,0.0,0.0,0.0,1.21846967915e-07,0.3530394,0.2745862,10.9638347,9e-08,0.0,0.0,0.0,9e-08,0.0,0.0,0.0,9e-08
1531944053056381067,1263,1531944053050055848,base_link,-0.047515920743,-0.0678807310104,-0.992691878437,-0.0877341331447,1.0,0.0,0.0,0.0,1.0,0.0,0.0,0.0,1.0,-0.163762062788,-0.0303098578006,-0.0225544776767,1.21846967915e-07,0.0,0.0,0.0,1.21846967915e-07,0.0,0.0,0.0,1.21846967915e-07,0.12748645,0.2353596,10.5519554,9e-08,0.0,0.0,0.0,9e-08,0.0,0.0,0.0,9e-08
1531944053387070052,1264,1531944053385797809,base_link,-0.0481595303814,-0.0474483951138,-0.993511260979,-0.0914586449897,1.0,0.0,0.0,0.0,1.0,0.0,0.0,0.0,1.0,-0.157817021012,0.0216079428792,-0.00857466738671,1.21846967915e-07,0.0,0.0,0.0,1.21846967915e-07,0.0,0.0,0.0,1.21846967915e-07,0.3530394,0.1569064,9.40457735,9e-08,0.0,0.0,0.0,9e-08,0.0,0.0,0.0,9e-08
1531944053721651224,1265,1531944053720613250,base_link,-0.0407164305127,-0.0191108020332,-0.994067755884,-0.0990264926364,1.0,0.0,0.0,0.0,1.0,0.0,0.0,0.0,1.0,-0.172168955207,0.0301056168973,-0.059217620641,1.21846967915e-07,0.0,0.0,0.0,1.21846967915e-07,0.0,0.0,0.0,1.21846967915e-07,0.38245935,0.12748645,9.2378643,9e-08,0.0,0.0,0.0,9e-08,0.0,0.0,0.0,9e-08
1531944054123563455,1266,1531944054123019460,base_link,-0.031040302488,0.00599948028801,-0.993564183944,-0.108769105178,1.0,0.0,0.0,0.0,1.0,0.0,0.0,0.0,1.0,-0.0785096362233,0.039503917098,-0.0294426716864,1.21846967915e-07,0.0,0.0,0.0,1.21846967915e-07,0.0,0.0,0.0,1.21846967915e-07,0.36284605,0.3726527,9.93413645,9e-08,0.0,0.0,0.0,9e-08,0.0,0.0,0.0,9e-08
1531944054574342829,1267,1531944054573620116,base_link,-0.018035385777,0.00799299736459,-0.994010348003,-0.107490766658,1.0,0.0,0.0,0.0,1.0,0.0,0.0,0.0,1.0,-0.0130245741457,0.0949626043439,0.0347656756639,1.21846967915e-07,0.0,0.0,0.0,1.21846967915e-07,0.0,0.0,0.0,1.21846967915e-07,0.5491724,0.14709975,8.34545915,9e-08,0.0,0.0,0.0,9e-08,0.0,0.0,0.0,9e-08
1531944054953901774,1268,1531944054953600625,base_link,-0.000586026435142,0.00732595648199,-0.994854956173,-0.101042580692,1.0,0.0,0.0,0.0,1.0,0.0,0.0,0.0,1.0,0.0976851508021,0.0857802778482,0.0445737242699,1.21846967915e-07,0.0,0.0,0.0,1.21846967915e-07,0.0,0.0,0.0,1.21846967915e-07,0.99047165,-0.0784532,7.8060934,9e-08,0.0,0.0,0.0,9e-08,0.0,0.0,0.0,9e-08
1531944055386028339,1269,1531944055385501208,base_link,0.0145473943607,-0.00197655154752,-0.995791423175,-0.0904649550527,1.0,0.0,0.0,0.0,1.0,0.0,0.0,0.0,1.0,0.0471447631717,0.0519358962774,0.0299286209047,1.21846967915e-07,0.0,0.0,0.0,1.21846967915e-07,0.0,0.0,0.0,1.21846967915e-07,1.24544455,0.0980665,9.0417313,9e-08,0.0,0.0,0.0,9e-08,0.0,0.0,0.0,9e-08
1531944055813126313,1270,1531944055812891243,base_link,0.0191918310617,0.000428326008021,-0.996556908896,-0.0806586479463,1.0,0.0,0.0,0.0,1.0,0.0,0.0,0.0,1.0,-0.103013686836,0.024465624243,0.0426734127104,1.21846967915e-07,0.0,0.0,0.0,1.21846967915e-07,0.0,0.0,0.0,1.21846967915e-07,1.0395049,0.30400615,10.3165958,9e-08,0.0,0.0,0.0,9e-08,0.0,0.0,0.0,9e-08
1531944056226779554,1271,1531944056225439215,base_link,0.0122362549757,-0.0115126900694,-0.99716660539,-0.0733245738287,1.0,0.0,0.0,0.0,1.0,0.0,0.0,0.0,1.0,0.018664482981,-0.0386575832963,0.0760536417365,1.21846967915e-07,0.0,0.0,0.0,1.21846967915e-07,0.0,0.0,0.0,1.21846967915e-07,1.12776475,-0.02941995,11.30706745,9e-08,0.0,0.0,0.0,9e-08,0.0,0.0,0.0,9e-08
1531944056631502803,1272,1531944056630981753,base_link,0.00492559257056,-0.0183337974306,-0.997807087842,-0.0634084052991,1.0,0.0,0.0,0.0,1.0,0.0,0.0,0.0,1.0,0.101063244045,-0.0114747770131,-0.0315157920122,1.21846967915e-07,0.0,0.0,0.0,1.21846967915e-07,0.0,0.0,0.0,1.21846967915e-07,0.3726527,0.46091255,10.34601575,9e-08,0.0,0.0,0.0,9e-08,0.0,0.0,0.0,9e-08
1531944056909654030,1273,1531944056908925365,base_link,-0.000317487318733,-0.036454806209,-0.996838320245,-0.070599643041,1.0,0.0,0.0,0.0,1.0,0.0,0.0,0.0,1.0,0.196925327182,-0.0390704683959,-0.0709777772427,1.21846967915e-07,0.0,0.0,0.0,1.21846967915e-07,0.0,0.0,0.0,1.21846967915e-07,0.392266,0.24516625,10.24794925,9e-08,0.0,0.0,0.0,9e-08,0.0,0.0,0.0,9e-08
1531944057354694747,1274,1531944057353886275,base_link,-0.0142032350936,-0.0915489645241,-0.992497625427,-0.0797842010033,1.0,0.0,0.0,0.0,1.0,0.0,0.0,0.0,1.0,0.298978328705,-0.0514922142029,-0.01016382128,1.21846967915e-07,0.0,0.0,0.0,1.21846967915e-07,0.0,0.0,0.0,1.21846967915e-07,0.0,0.20593965,9.8458766,9e-08,0.0,0.0,0.0,9e-08,0.0,0.0,0.0,9e-08
1531944057729548239,1275,1531944057729231474,base_link,-0.025627047165,-0.131575046268,-0.986746066737,-0.091451962432,1.0,0.0,0.0,0.0,1.0,0.0,0.0,0.0,1.0,0.233835577965,-0.0149039123207,-0.129368573427,1.21846967915e-07,0.0,0.0,0.0,1.21846967915e-07,0.0,0.0,0.0,1.21846967915e-07,0.0588399,0.3530394,9.0613446,9e-08,0.0,0.0,0.0,9e-08,0.0,0.0,0.0,9e-08
1531944058062136860,1276,1531944058061590561,base_link,-0.0360240422257,-0.174361185495,-0.97737348793,-0.114199432864,1.0,0.0,0.0,0.0,1.0,0.0,0.0,0.0,1.0,0.257407397032,-0.0783471167088,-0.127100721002,1.21846967915e-07,0.0,0.0,0.0,1.21846967915e-07,0.0,0.0,0.0,1.21846967915e-07,0.14709975,0.4511059,10.4735022,9e-08,0.0,0.0,0.0,9e-08,0.0,0.0,0.0,9e-08
1531944058572129366,1277,1531944058571835673,base_link,-0.0530343809906,-0.234040737015,-0.9570242427,-0.162840064895,1.0,0.0,0.0,0.0,1.0,0.0,0.0,0.0,1.0,0.233973637223,-0.105252832174,-0.207212299109,1.21846967915e-07,0.0,0.0,0.0,1.21846967915e-07,0.0,0.0,0.0,1.21846967915e-07,0.392266,0.16671305,8.9436648,9e-08,0.0,0.0,0.0,9e-08,0.0,0.0,0.0,9e-08
1531944058998072445,1278,1531944058997749504,base_link,-0.0703763284078,-0.246342155751,-0.943275817706,-0.211171604226,1.0,0.0,0.0,0.0,1.0,0.0,0.0,0.0,1.0,0.0496011339128,-0.109690442681,-0.248978346586,1.21846967915e-07,0.0,0.0,0.0,1.21846967915e-07,0.0,0.0,0.0,1.21846967915e-07,0.6668522,0.44129925,11.6503002,9e-08,0.0,0.0,0.0,9e-08,0.0,0.0,0.0,9e-08
1531944059482078740,1279,1531944059480948799,base_link,-0.0867134541146,-0.266318663933,-0.915682221568,-0.288238122427,1.0,0.0,0.0,0.0,1.0,0.0,0.0,0.0,1.0,0.127103552222,-0.182852268219,-0.34893938899,1.21846967915e-07,0.0,0.0,0.0,1.21846967915e-07,0.0,0.0,0.0,1.21846967915e-07,0.65704555,0.3138128,11.6503002,9e-08,0.0,0.0,0.0,9e-08,0.0,0.0,0.0,9e-08
1531944059861490559,1280,1531944059856477648,base_link,-0.11382152131,-0.284758053569,-0.887903652327,-0.342906133511,1.0,0.0,0.0,0.0,1.0,0.0,0.0,0.0,1.0,0.00365082733333,-0.23549169302,-0.23273165524,1.21846967915e-07,0.0,0.0,0.0,1.21846967915e-07,0.0,0.0,0.0,1.21846967915e-07,0.9610517,0.38245935,11.89546645,9e-08,0.0,0.0,0.0,9e-08,0.0,0.0,0.0,9e-08
1531944060335566264,1281,1531944060334278884,base_link,-0.13898822349,-0.255690232322,-0.857859028176,-0.423535909462,1.0,0.0,0.0,0.0,1.0,0.0,0.0,0.0,1.0,0.00315757095814,-0.238873407245,-0.323725998402,1.21846967915e-07,0.0,0.0,0.0,1.21846967915e-07,0.0,0.0,0.0,1.21846967915e-07,0.51975245,0.75511205,14.121576,9e-08,0.0,0.0,0.0,9e-08,0.0,0.0,0.0,9e-08
1531944060806171634,1282,1531944060805847477,base_link,-0.154881845579,-0.213836424416,-0.824248672696,-0.500898915013,1.0,0.0,0.0,0.0,1.0,0.0,0.0,0.0,1.0,-0.30126875639,-0.200054198503,-0.271048665047,1.21846967915e-07,0.0,0.0,0.0,1.21846967915e-07,0.0,0.0,0.0,1.21846967915e-07,0.392266,0.588399,11.99353295,9e-08,0.0,0.0,0.0,9e-08,0.0,0.0,0.0,9e-08
1531944061226166103,1283,1531944061225781307,base_link,-0.155496745207,-0.178321960946,-0.795573589543,-0.557749678705,1.0,0.0,0.0,0.0,1.0,0.0,0.0,0.0,1.0,-0.136103138328,-0.113530904055,-0.287808448076,1.21846967915e-07,0.0,0.0,0.0,1.21846967915e-07,0.0,0.0,0.0,1.21846967915e-07,0.10787315,0.83356525,11.9248864,9e-08,0.0,0.0,0.0,9e-08,0.0,0.0,0.0,9e-08
1531944061577175799,1284,1531944061576823322,base_link,-0.147270525502,-0.155224126061,-0.759767011401,-0.613979601774,1.0,0.0,0.0,0.0,1.0,0.0,0.0,0.0,1.0,-0.0789829194546,-0.114371873438,-0.309839099646,1.21846967915e-07,0.0,0.0,0.0,1.21846967915e-07,0.0,0.0,0.0,1.21846967915e-07,0.06864655,0.1765197,10.3558224,9e-08,0.0,0.0,0.0,9e-08,0.0,0.0,0.0,9e-08
1531944061914065695,1285,1531944061913510725,base_link,-0.139707557318,-0.123368723864,-0.740833723253,-0.64531182454,1.0,0.0,0.0,0.0,1.0,0.0,0.0,0.0,1.0,-0.288019090891,-0.100780457258,-0.077424377203,1.21846967915e-07,0.0,0.0,0.0,1.21846967915e-07,0.0,0.0,0.0,1.21846967915e-07,0.2745862,-0.00980665,9.9635564,9e-08,0.0,0.0,0.0,9e-08,0.0,0.0,0.0,9e-08
1531944062404614236,1286,1531944062404134369,base_link,-0.117472034161,-0.0817444802365,-0.730616497073,-0.667620921891,1.0,0.0,0.0,0.0,1.0,0.0,0.0,0.0,1.0,-0.323973685503,0.00104858726263,-0.123334266245,1.21846967915e-07,0.0,0.0,0.0,1.21846967915e-07,0.0,0.0,0.0,1.21846967915e-07,0.4314926,0.196133,8.5710121,9e-08,0.0,0.0,0.0,9e-08,0.0,0.0,0.0,9e-08
1531944062786451156,1287,1531944062786151703,base_link,-0.0633953122877,-0.0293080252722,-0.721415661944,-0.688971346818,1.0,0.0,0.0,0.0,1.0,0.0,0.0,0.0,1.0,-0.359163284302,0.0595719441772,-0.064401961863,1.21846967915e-07,0.0,0.0,0.0,1.21846967915e-07,0.0,0.0,0.0,1.21846967915e-07,0.6080123,0.1765197,10.7480884,9e-08,0.0,0.0,0.0,9e-08,0.0,0.0,0.0,9e-08
1531944063191587275,1288,1531944063191195215,base_link,-0.0222536281965,-0.000944323321948,-0.713037624915,-0.700771881386,1.0,0.0,0.0,0.0,1.0,0.0,0.0,0.0,1.0,-0.156892731786,0.0689701363444,-0.0560143180192,1.21846967915e-07,0.0,0.0,0.0,1.21846967915e-07,0.0,0.0,0.0,1.21846967915e-07,0.3726527,0.1765197,9.9635564,9e-08,0.0,0.0,0.0,9e-08,0.0,0.0,0.0,9e-08
1531944063482031767,1289,1531944063481255422,base_link,-0.0184247321842,-0.0088093227246,-0.709977574567,-0.70392809909,1.0,0.0,0.0,0.0,1.0,0.0,0.0,0.0,1.0,0.00448499945924,0.0524657554924,-0.0370867401361,1.21846967915e-07,0.0,0.0,0.0,1.21846967915e-07,0.0,0.0,0.0,1.21846967915e-07,0.50013915,0.2549729,8.67888525,9e-08,0.0,0.0,0.0,9e-08,0.0,0.0,0.0,9e-08
1531944063865110276,1290,1531944063862887673,base_link,-0.0263223395131,-0.0334246108097,-0.70223367662,-0.710674182207,1.0,0.0,0.0,0.0,1.0,0.0,0.0,0.0,1.0,0.287516891956,0.0623484030366,-0.0604324005544,1.21846967915e-07,0.0,0.0,0.0,1.21846967915e-07,0.0,0.0,0.0,1.21846967915e-07,0.32361945,-0.16671305,7.1784678,9e-08,0.0,0.0,0.0,9e-08,0.0,0.0,0.0,9e-08
1531944064169146252,1291,1531944064168880079,base_link,-0.0330212084806,-0.0486883152136,-0.702444546446,-0.709302972587,1.0,0.0,0.0,0.0,1.0,0.0,0.0,0.0,1.0,-0.137561440468,0.0609583444893,0.0531818270683,1.21846967915e-07,0.0,0.0,0.0,1.21846967915e-07,0.0,0.0,0.0,1.21846967915e-07,0.59820565,0.00980665,8.54159215,9e-08,0.0,0.0,0.0,9e-08,0.0,0.0,0.0,9e-08
1531944064575790935,1292,1531944064575309532,base_link,0.00123607988732,-0.0262291419138,-0.710703451657,-0.703001499304,1.0,0.0,0.0,0.0,1.0,0.0,0.0,0.0,1.0,-0.324692815542,0.0943432822824,-0.0321582071483,1.21846967915e-07,0.0,0.0,0.0,1.21846967915e-07,0.0,0.0,0.0,1.21846967915e-07,0.6276256,0.6276256,9.03192465,9e-08,0.0,0.0,0.0,9e-08,0.0,0.0,0.0,9e-08
1531944064958004814,1293,1531944064957721329,base_link,0.0290767727763,-0.0182396387379,-0.690176633182,-0.722826446579,1.0,0.0,0.0,0.0,1.0,0.0,0.0,0.0,1.0,-0.120651178062,0.0242067612708,-0.181968957186,1.21846967915e-07,0.0,0.0,0.0,1.21846967915e-07,0.0,0.0,0.0,1.21846967915e-07,0.44129925,0.196133,10.4538889,9e-08,0.0,0.0,0.0,9e-08,0.0,0.0,0.0,9e-08
1531944065408383572,1294,1531944065407889817,base_link,0.00798566233805,-0.0255063465498,-0.68265966544,-0.730247517397,1.0,0.0,0.0,0.0,1.0,0.0,0.0,0.0,1.0,0.0513216219842,-0.0994314998388,0.0539465546608,1.21846967915e-07,0.0,0.0,0.0,1.21846967915e-07,0.0,0.0,0.0,1.21846967915e-07,0.24516625,-0.2353596,10.7088618,9e-08,0.0,0.0,0.0,9e-08,0.0,0.0,0.0,9e-08
1531944065784231082,1295,1531944065783715279,base_link,-0.00597728706252,-0.0127987618376,-0.694145114464,-0.719696480331,1.0,0.0,0.0,0.0,1.0,0.0,0.0,0.0,1.0,-0.0152324298397,-0.0959827452898,0.0772006958723,1.21846967915e-07,0.0,0.0,0.0,1.21846967915e-07,0.0,0.0,0.0,1.21846967915e-07,-0.14709975,0.4903325,11.16977435,9e-08,0.0,0.0,0.0,9e-08,0.0,0.0,0.0,9e-08
1531944066119450536,1296,1531944066117290525,base_link,-0.00836795223138,0.000290785857096,-0.695098219922,-0.718866021927,1.0,0.0,0.0,0.0,1.0,0.0,0.0,0.0,1.0,0.0600173585117,-0.0339188612998,-0.0542879514396,1.21846967915e-07,0.0,0.0,0.0,1.21846967915e-07,0.0,0.0,0.0,1.21846967915e-07,-0.30400615,0.22555295,11.3168741,9e-08,0.0,0.0,0.0,9e-08,0.0,0.0,0.0,9e-08
1531944066506909327,1297,1531944066506403764,base_link,-0.0178479579068,-0.00620028288288,-0.690191329345,-0.723380215231,1.0,0.0,0.0,0.0,1.0,0.0,0.0,0.0,1.0,-0.147816002369,0.000810910016298,-0.0437133833766,1.21846967915e-07,0.0,0.0,0.0,1.21846967915e-07,0.0,0.0,0.0,1.21846967915e-07,-0.392266,0.3726527,9.16921775,9e-08,0.0,0.0,0.0,9e-08,0.0,0.0,0.0,9e-08
1531944066871984494,1298,1531944066868162387,base_link,-0.0211131601441,-0.0118412001536,-0.68510945142,-0.728037814967,1.0,0.0,0.0,0.0,1.0,0.0,0.0,0.0,1.0,0.1043965891,0.0138324322179,-0.0225302912295,1.21846967915e-07,0.0,0.0,0.0,1.21846967915e-07,0.0,0.0,0.0,1.21846967915e-07,-0.36284605,-0.14709975,8.22777935,9e-08,0.0,0.0,0.0,9e-08,0.0,0.0,0.0,9e-08
1531944067203259764,1299,1531944067202937879,base_link,-0.0128093994367,-0.00575080347624,-0.688643179674,-0.724964425772,1.0,0.0,0.0,0.0,1.0,0.0,0.0,0.0,1.0,-0.135671928525,0.0322508960962,0.00184306176379,1.21846967915e-07,0.0,0.0,0.0,1.21846967915e-07,0.0,0.0,0.0,1.21846967915e-07,-0.0196133,0.1765197,9.3947707,9e-08,0.0,0.0,0.0,9e-08,0.0,0.0,0.0,9e-08
1531944067650924344,1300,1531944067650639866,base_link,0.00156575923148,-0.00199169259655,-0.689963639041,-0.723839594358,1.0,0.0,0.0,0.0,1.0,0.0,0.0,0.0,1.0,-0.108298368752,0.0435214936733,-0.00516922585666,1.21846967915e-07,0.0,0.0,0.0,1.21846967915e-07,0.0,0.0,0.0,1.21846967915e-07,0.0980665,0.2941995,10.07142955,9e-08,0.0,0.0,0.0,9e-08,0.0,0.0,0.0,9e-08
1531944068104534563,1301,1531944068103998632,base_link,0.020941178411,0.00200150329281,-0.689965089404,-0.723536893624,1.0,0.0,0.0,0.0,1.0,0.0,0.0,0.0,1.0,-0.128772243857,0.0555017367005,0.0185760855675,1.21846967915e-07,0.0,0.0,0.0,1.21846967915e-07,0.0,0.0,0.0,1.21846967915e-07,0.1176798,-0.0588399,8.42391235,9e-08,0.0,0.0,0.0,9e-08,0.0,0.0,0.0,9e-08
1531944068411077496,1302,1531944068410828155,base_link,0.0241148870945,-0.00492604474216,-0.69755530197,-0.716108097285,1.0,0.0,0.0,0.0,1.0,0.0,0.0,0.0,1.0,-0.0119720567018,0.0682004913688,0.088028639555,1.21846967915e-07,0.0,0.0,0.0,1.21846967915e-07,0.0,0.0,0.0,1.21846967915e-07,0.2157463,0.0784532,8.40429905,9e-08,0.0,0.0,0.0,9e-08,0.0,0.0,0.0,9e-08
1531944068906604113,1303,1531944068906263348,base_link,0.0432426586572,0.00149499075068,-0.708925672918,-0.703954705753,1.0,0.0,0.0,0.0,1.0,0.0,0.0,0.0,1.0,-0.199259370565,0.0333155505359,0.0384553335607,1.21846967915e-07,0.0,0.0,0.0,1.21846967915e-07,0.0,0.0,0.0,1.21846967915e-07,0.3530394,0.5687857,10.4538889,9e-08,0.0,0.0,0.0,9e-08,0.0,0.0,0.0,9e-08
1531944069271852914,1304,1531944069271332375,base_link,0.0319479057191,-0.017898881539,-0.703891499938,-0.709362895615,1.0,0.0,0.0,0.0,1.0,0.0,0.0,0.0,1.0,0.233613058925,-0.0166570711881,-0.060460537672,1.21846967915e-07,0.0,0.0,0.0,1.21846967915e-07,0.0,0.0,0.0,1.21846967915e-07,0.22555295,0.196133,8.4729456,9e-08,0.0,0.0,0.0,9e-08,0.0,0.0,0.0,9e-08
1531944069723890447,1305,1531944069723608242,base_link,0.00969069653658,-0.0326880441827,-0.701716940406,-0.711639598192,1.0,0.0,0.0,0.0,1.0,0.0,0.0,0.0,1.0,0.0212353877723,-0.0367832109332,-0.00405121501535,1.21846967915e-07,0.0,0.0,0.0,1.21846967915e-07,0.0,0.0,0.0,1.21846967915e-07,0.32361945,0.30400615,10.1793027,9e-08,0.0,0.0,0.0,9e-08,0.0,0.0,0.0,9e-08
1531944070167953946,1306,1531944070167642109,base_link,-0.00351321426296,-0.0366530394191,-0.697431409529,-0.715704995811,1.0,0.0,0.0,0.0,1.0,0.0,0.0,0.0,1.0,0.0644950568676,-0.0230587553233,-0.0272281840444,1.21846967915e-07,0.0,0.0,0.0,1.21846967915e-07,0.0,0.0,0.0,1.21846967915e-07,0.16671305,0.196133,9.79684335,9e-08,0.0,0.0,0.0,9e-08,0.0,0.0,0.0,9e-08
1531944070430095805,1307,1531944070429736449,base_link,-0.0104110545452,-0.0362522155493,-0.696798584257,-0.716274472384,1.0,0.0,0.0,0.0,1.0,0.0,0.0,0.0,1.0,-0.00373042188585,-0.0257700942457,0.000332395546138,1.21846967915e-07,0.0,0.0,0.0,1.21846967915e-07,0.0,0.0,0.0,1.21846967915e-07,0.3334261,0.18632635,9.97336305,9e-08,0.0,0.0,0.0,9e-08,0.0,0.0,0.0,9e-08
1531944070923821003,1308,1531944070922487063,base_link,-0.00647569517497,-0.0212719447407,-0.693252632361,-0.720351551303,1.0,0.0,0.0,0.0,1.0,0.0,0.0,0.0,1.0,-0.0788872390985,-0.0117284785956,-0.0712929144502,1.21846967915e-07,0.0,0.0,0.0,1.21846967915e-07,0.0,0.0,0.0,1.21846967915e-07,0.3726527,0.34323275,10.2185293,9e-08,0.0,0.0,0.0,9e-08,0.0,0.0,0.0,9e-08
1531944071287038050,1309,1531944071286479687,base_link,-0.00987821899629,-0.0168173949688,-0.684938751844,-0.728339551472,1.0,0.0,0.0,0.0,1.0,0.0,0.0,0.0,1.0,0.113520182669,-0.0331376567483,-0.0178536791354,1.21846967915e-07,0.0,0.0,0.0,1.21846967915e-07,0.0,0.0,0.0,1.21846967915e-07,0.196133,0.0392266,11.8072066,9e-08,0.0,0.0,0.0,9e-08,0.0,0.0,0.0,9e-08
1531944071626294336,1310,1531944071626096194,base_link,-0.0182359159981,-0.0111701521725,-0.689808477253,-0.723675993645,1.0,0.0,0.0,0.0,1.0,0.0,0.0,0.0,1.0,-0.0988666787744,-0.0354401990771,0.0164385773242,1.21846967915e-07,0.0,0.0,0.0,1.21846967915e-07,0.0,0.0,0.0,1.21846967915e-07,0.1569064,0.4118793,11.24822755,9e-08,0.0,0.0,0.0,9e-08,0.0,0.0,0.0,9e-08
1531944071967461932,1311,1531944071966972433,base_link,-0.00718468301836,0.0100932959218,-0.688510045027,-0.725120971703,1.0,0.0,0.0,0.0,1.0,0.0,0.0,0.0,1.0,-0.0380957648158,-0.0537347905338,-0.0391118973494,1.21846967915e-07,0.0,0.0,0.0,1.21846967915e-07,0.0,0.0,0.0,1.21846967915e-07,0.06864655,0.42168595,10.9049948,9e-08,0.0,0.0,0.0,9e-08,0.0,0.0,0.0,9e-08
1531944072411495387,1312,1531944072411000224,base_link,-0.0213397650334,0.00394574389473,-0.684220721714,-0.728952021406,1.0,0.0,0.0,0.0,1.0,0.0,0.0,0.0,1.0,0.149781227112,-0.013328384608,0.00211030105129,1.21846967915e-07,0.0,0.0,0.0,1.21846967915e-07,0.0,0.0,0.0,1.21846967915e-07,0.3726527,-0.04903325,9.7478101,9e-08,0.0,0.0,0.0,9e-08,0.0,0.0,0.0,9e-08
1531944072751209270,1313,1531944072749880547,base_link,-0.0441379900882,-0.0144917805369,-0.685991636981,-0.726124851606,1.0,0.0,0.0,0.0,1.0,0.0,0.0,0.0,1.0,0.134026870131,-0.0170287825167,0.0385212823749,1.21846967915e-07,0.0,0.0,0.0,1.21846967915e-07,0.0,0.0,0.0,1.21846967915e-07,0.1372931,0.06864655,9.3555441,9e-08,0.0,0.0,0.0,9e-08,0.0,0.0,0.0,9e-08
1531944073138692102,1314,1531944073136922231,base_link,-0.0585808679652,-0.0295266416125,-0.686587126013,-0.724081886071,1.0,0.0,0.0,0.0,1.0,0.0,0.0,0.0,1.0,0.182638898492,-0.00199909321964,-0.0257649160922,1.21846967915e-07,0.0,0.0,0.0,1.21846967915e-07,0.0,0.0,0.0,1.21846967915e-07,0.18632635,0.12748645,8.8063717,9e-08,0.0,0.0,0.0,9e-08,0.0,0.0,0.0,9e-08
1531944073536250486,1315,1531944073536063576,base_link,-0.0939149646621,-0.068366164178,-0.674960427891,-0.728652501395,1.0,0.0,0.0,0.0,1.0,0.0,0.0,0.0,1.0,0.150308519602,0.0245200283825,-0.110285133123,1.21846967915e-07,0.0,0.0,0.0,1.21846967915e-07,0.0,0.0,0.0,1.21846967915e-07,0.38245935,0.42168595,9.1201845,9e-08,0.0,0.0,0.0,9e-08,0.0,0.0,0.0,9e-08
1531944073872310934,1316,1531944073872054904,base_link,-0.0991333005101,-0.08385075771,-0.65790151354,-0.741826959366,1.0,0.0,0.0,0.0,1.0,0.0,0.0,0.0,1.0,0.00856415554881,0.0654125660658,-0.177124619484,1.21846967915e-07,0.0,0.0,0.0,1.21846967915e-07,0.0,0.0,0.0,1.21846967915e-07,0.4314926,0.3334261,8.01203305,9e-08,0.0,0.0,0.0,9e-08,0.0,0.0,0.0,9e-08
1531944074251158970,1317,1531944074250891581,base_link,-0.0992833741593,-0.0951465494036,-0.632747495848,-0.762050229479,1.0,0.0,0.0,0.0,1.0,0.0,0.0,0.0,1.0,0.149369075894,0.002721154131,-0.167238309979,1.21846967915e-07,0.0,0.0,0.0,1.21846967915e-07,0.0,0.0,0.0,1.21846967915e-07,0.75511205,0.2745862,8.30623255,9e-08,0.0,0.0,0.0,9e-08,0.0,0.0,0.0,9e-08
1531944074630399516,1318,1531944074628001299,base_link,-0.123447377433,-0.111256872916,-0.607852030257,-0.776465429073,1.0,0.0,0.0,0.0,1.0,0.0,0.0,0.0,1.0,0.163742974401,-0.0596446245909,-0.136314094067,1.21846967915e-07,0.0,0.0,0.0,1.21846967915e-07,0.0,0.0,0.0,1.21846967915e-07,0.9414384,0.04903325,9.73800345,9e-08,0.0,0.0,0.0,9e-08,0.0,0.0,0.0,9e-08
1531944075019833052,1319,1531944075019220034,base_link,-0.158142935568,-0.123459397283,-0.576232343887,-0.792278281295,1.0,0.0,0.0,0.0,1.0,0.0,0.0,0.0,1.0,0.160501688719,-0.115407213569,-0.210721507668,1.21846967915e-07,0.0,0.0,0.0,1.21846967915e-07,0.0,0.0,0.0,1.21846967915e-07,0.9610517,0.6668522,10.2185293,9e-08,0.0,0.0,0.0,9e-08,0.0,0.0,0.0,9e-08
1531944075390843406,1320,1531944075390525777,base_link,-0.184282413883,-0.123526291567,-0.532298506829,-0.816969734355,1.0,0.0,0.0,0.0,1.0,0.0,0.0,0.0,1.0,0.0587934739888,-0.15515370667,-0.26789560914,1.21846967915e-07,0.0,0.0,0.0,1.21846967915e-07,0.0,0.0,0.0,1.21846967915e-07,0.77472535,0.6668522,11.40513395,9e-08,0.0,0.0,0.0,9e-08,0.0,0.0,0.0,9e-08
1531944075859781171,1321,1531944075859373751,base_link,-0.226670061048,-0.115867478512,-0.475014067833,-0.842352091591,1.0,0.0,0.0,0.0,1.0,0.0,0.0,0.0,1.0,0.0643426403403,-0.212506219745,-0.178337529302,1.21846967915e-07,0.0,0.0,0.0,1.21846967915e-07,0.0,0.0,0.0,1.21846967915e-07,0.7453054,0.34323275,12.5917386,9e-08,0.0,0.0,0.0,9e-08,0.0,0.0,0.0,9e-08
1531944076218565467,1322,1531944076218301886,base_link,-0.249779373554,-0.0929050676647,-0.440413652064,-0.85732999949,1.0,0.0,0.0,0.0,1.0,0.0,0.0,0.0,1.0,0.02471040003,-0.227923765779,-0.178409129381,1.21846967915e-07,0.0,0.0,0.0,1.21846967915e-07,0.0,0.0,0.0,1.21846967915e-07,0.8433719,0.6472389,12.09159945,9e-08,0.0,0.0,0.0,9e-08,0.0,0.0,0.0,9e-08
1531944076533118477,1323,1531944076526598828,base_link,-0.261547025776,-0.0717150637159,-0.405207215763,-0.87307343061,1.0,0.0,0.0,0.0,1.0,0.0,0.0,0.0,1.0,-0.136895090342,-0.206574752927,-0.204015389085,1.21846967915e-07,0.0,0.0,0.0,1.21846967915e-07,0.0,0.0,0.0,1.21846967915e-07,1.0983448,0.55897905,12.56231865,9e-08,0.0,0.0,0.0,9e-08,0.0,0.0,0.0,9e-08
1531944076959742890,1324,1531944076956061869,base_link,-0.260228602049,-0.0454978197961,-0.348166972353,-0.899439148821,1.0,0.0,0.0,0.0,1.0,0.0,0.0,0.0,1.0,-0.107312388718,-0.143181279302,-0.265548795462,1.21846967915e-07,0.0,0.0,0.0,1.21846967915e-07,0.0,0.0,0.0,1.21846967915e-07,0.89240515,0.59820565,11.26784085,9e-08,0.0,0.0,0.0,9e-08,0.0,0.0,0.0,9e-08
1531944077312171473,1325,1531944077308994544,base_link,-0.266822076238,-0.0332243387295,-0.29545408327,-0.91673824379,1.0,0.0,0.0,0.0,1.0,0.0,0.0,0.0,1.0,0.00750076072291,-0.131544440985,-0.261536955833,1.21846967915e-07,0.0,0.0,0.0,1.21846967915e-07,0.0,0.0,0.0,1.21846967915e-07,1.0002783,0.36284605,11.0030613,9e-08,0.0,0.0,0.0,9e-08,0.0,0.0,0.0,9e-08
1531944077646690373,1326,1531944077646288776,base_link,-0.244853304226,-0.0190714927855,-0.248280746356,-0.937037783956,1.0,0.0,0.0,0.0,1.0,0.0,0.0,0.0,1.0,-0.268729388714,-0.0647222325206,-0.300394684076,1.21846967915e-07,0.0,0.0,0.0,1.21846967915e-07,0.0,0.0,0.0,1.21846967915e-07,1.01008495,0.6472389,10.67944185,9e-08,0.0,0.0,0.0,9e-08,0.0,0.0,0.0,9e-08
1531944077969210315,1327,1531944077968869070,base_link,-0.194673167925,-0.00823924799502,-0.197842699879,-0.960673065401,1.0,0.0,0.0,0.0,1.0,0.0,0.0,0.0,1.0,-0.290112674236,-0.0289694480598,-0.298949450254,1.21846967915e-07,0.0,0.0,0.0,1.21846967915e-07,0.0,0.0,0.0,1.21846967915e-07,0.99047165,0.6276256,9.7674234,9e-08,0.0,0.0,0.0,9e-08,0.0,0.0,0.0,9e-08
1531944078472532523,1328,1531944078472181550,base_link,-0.164998852901,0.00435350709192,-0.136334111778,-0.976815968073,1.0,0.0,0.0,0.0,1.0,0.0,0.0,0.0,1.0,-0.0891335308552,-0.0924668982625,-0.14579628408,1.21846967915e-07,0.0,0.0,0.0,1.21846967915e-07,0.0,0.0,0.0,1.21846967915e-07,1.1964113,1.30305055482e-15,10.64021525,9e-08,0.0,0.0,0.0,9e-08,0.0,0.0,0.0,9e-08
1531944078826225255,1329,1531944078825225521,base_link,-0.141188658856,0.016242640497,-0.113986669704,-0.983264449866,1.0,0.0,0.0,0.0,1.0,0.0,0.0,0.0,1.0,-0.169787436724,-0.0298737790436,-0.0995751395822,1.21846967915e-07,0.0,0.0,0.0,1.21846967915e-07,0.0,0.0,0.0,1.21846967915e-07,1.06892485,0.392266,10.198916,9e-08,0.0,0.0,0.0,9e-08,0.0,0.0,0.0,9e-08
1531944079290402784,1330,1531944079290172003,base_link,-0.106518321648,0.025560316801,-0.0826994537086,-0.990535874017,1.0,0.0,0.0,0.0,1.0,0.0,0.0,0.0,1.0,-0.2042979002,0.00165810808539,-0.135944858193,1.21846967915e-07,0.0,0.0,0.0,1.21846967915e-07,0.0,0.0,0.0,1.21846967915e-07,1.0591182,0.24516625,11.32668075,9e-08,0.0,0.0,0.0,9e-08,0.0,0.0,0.0,9e-08
1531944079662216496,1331,1531944079661345625,base_link,-0.0664112842813,0.0298539642248,-0.063702440218,-0.995309138535,1.0,0.0,0.0,0.0,1.0,0.0,0.0,0.0,1.0,-0.210433274508,-0.0203893501312,-0.0312218666077,1.21846967915e-07,0.0,0.0,0.0,1.21846967915e-07,0.0,0.0,0.0,1.21846967915e-07,0.9414384,0.12748645,10.52253545,9e-08,0.0,0.0,0.0,9e-08,0.0,0.0,0.0,9e-08
1531944080109480845,1332,1531944080109096592,base_link,-0.0220901822583,0.0270953154224,-0.053036686152,-0.997980449534,1.0,0.0,0.0,0.0,1.0,0.0,0.0,0.0,1.0,-0.0909416154027,0.0420394130051,-0.0734504833817,1.21846967915e-07,0.0,0.0,0.0,1.21846967915e-07,0.0,0.0,0.0,1.21846967915e-07,0.89240515,0.20593965,9.42419065,9e-08,0.0,0.0,0.0,9e-08,0.0,0.0,0.0,9e-08
1531944080545712116,1333,1531944080544381825,base_link,-0.00655132899407,0.0186177455828,-0.0401802718621,-0.998997500193,1.0,0.0,0.0,0.0,1.0,0.0,0.0,0.0,1.0,-0.115231387317,0.0650601908565,-0.0464735552669,1.21846967915e-07,0.0,0.0,0.0,1.21846967915e-07,0.0,0.0,0.0,1.21846967915e-07,0.7256921,0.0392266,9.1790244,9e-08,0.0,0.0,0.0,9e-08,0.0,0.0,0.0,9e-08
1531944080912019674,1334,1531944080911683421,base_link,-0.00245064178137,0.00917407641178,-0.0367903990701,-0.999277887884,1.0,0.0,0.0,0.0,1.0,0.0,0.0,0.0,1.0,0.0813227444887,0.0522914342582,-0.00177363911644,1.21846967915e-07,0.0,0.0,0.0,1.21846967915e-07,0.0,0.0,0.0,1.21846967915e-07,0.8237586,-0.06864655,9.8851032,9e-08,0.0,0.0,0.0,9e-08,0.0,0.0,0.0,9e-08
1531944081312361147,1335,1531944081311544579,base_link,0.00154295551646,0.000593497987328,-0.0397077542529,-0.999209968575,1.0,0.0,0.0,0.0,1.0,0.0,0.0,0.0,1.0,-0.0599914044142,0.0479369089007,0.0166046060622,1.21846967915e-07,0.0,0.0,0.0,1.21846967915e-07,0.0,0.0,0.0,1.21846967915e-07,0.69627215,0.22555295,8.3748791,9e-08,0.0,0.0,0.0,9e-08,0.0,0.0,0.0,9e-08
1531944081685934045,1336,1531944081685620736,base_link,-0.0048900539053,-0.00959435975611,-0.0369810311367,-0.999257944161,1.0,0.0,0.0,0.0,1.0,0.0,0.0,0.0,1.0,0.0323520414531,0.0325296446681,-0.0228122584522,1.21846967915e-07,0.0,0.0,0.0,1.21846967915e-07,0.0,0.0,0.0,1.21846967915e-07,0.36284605,0.1372931,7.9826131,9e-08,0.0,0.0,0.0,9e-08,0.0,0.0,0.0,9e-08
1531944082017551089,1337,1531944082017251476,base_link,-0.00369978302146,-0.0124482638952,-0.0371415552158,-0.999225628778,1.0,0.0,0.0,0.0,1.0,0.0,0.0,0.0,1.0,0.0369631797075,0.0160436443985,0.0119614526629,1.21846967915e-07,0.0,0.0,0.0,1.21846967915e-07,0.0,0.0,0.0,1.21846967915e-07,0.26477955,0.0784532,8.7279185,9e-08,0.0,0.0,0.0,9e-08,0.0,0.0,0.0,9e-08
1531944082366927228,1338,1531944082366490592,base_link,-0.0113086605343,-0.0140081746233,-0.0429513360811,-0.998914945313,1.0,0.0,0.0,0.0,1.0,0.0,0.0,0.0,1.0,-0.00493284408003,0.00957718025893,0.042427919805,1.21846967915e-07,0.0,0.0,0.0,1.21846967915e-07,0.0,0.0,0.0,1.21846967915e-07,0.48052585,-0.1372931,9.1201845,9e-08,0.0,0.0,0.0,9e-08,0.0,0.0,0.0,9e-08
1531944082790686750,1339,1531944082790274114,base_link,-0.00575230550702,-0.00962565098523,-0.0480624020903,-0.998781389159,1.0,0.0,0.0,0.0,1.0,0.0,0.0,0.0,1.0,0.0014536161907,-0.0252149198204,-0.022507512942,1.21846967915e-07,0.0,0.0,0.0,1.21846967915e-07,0.0,0.0,0.0,1.21846967915e-07,0.53936575,0.10787315,9.91452315,9e-08,0.0,0.0,0.0,9e-08,0.0,0.0,0.0,9e-08
1531944083233535210,1340,1531944083232582835,base_link,-0.0162124875677,-0.00176935868041,-0.0409637393302,-0.999027525485,1.0,0.0,0.0,0.0,1.0,0.0,0.0,0.0,1.0,-0.0444253236055,-0.0408636368811,-0.0282372198999,1.21846967915e-07,0.0,0.0,0.0,1.21846967915e-07,0.0,0.0,0.0,1.21846967915e-07,0.3334261,0.18632635,9.9439431,9e-08,0.0,0.0,0.0,9e-08,0.0,0.0,0.0,9e-08
1531944083486440851,1341,1531944083486110486,base_link,-0.0152268788643,0.00196561666586,-0.0394673317816,-0.999102901724,1.0,0.0,0.0,0.0,1.0,0.0,0.0,0.0,1.0,-0.0211467519403,-0.0293631032109,0.0031407517381,1.21846967915e-07,0.0,0.0,0.0,1.21846967915e-07,0.0,0.0,0.0,1.21846967915e-07,0.40207265,-0.10787315,10.93441475,9e-08,0.0,0.0,0.0,9e-08,0.0,0.0,0.0,9e-08
1531944083956726809,1342,1531944083956444316,base_link,-0.0112300790673,0.00849749697055,-0.0496565934119,-0.998667061938,1.0,0.0,0.0,0.0,1.0,0.0,0.0,0.0,1.0,-0.0595622360706,-0.00556525960565,0.0446659252048,1.21846967915e-07,0.0,0.0,0.0,1.21846967915e-07,0.0,0.0,0.0,1.21846967915e-07,0.0588399,0.24516625,10.22833595,9e-08,0.0,0.0,0.0,9e-08,0.0,0.0,0.0,9e-08
1531944084373458529,1343,1531944084373147940,base_link,0.00961548492297,0.00856164868387,-0.0551346124223,-0.998395921033,1.0,0.0,0.0,0.0,1.0,0.0,0.0,0.0,1.0,-0.204392045736,0.0235712137073,0.020730311051,1.21846967915e-07,0.0,0.0,0.0,1.21846967915e-07,0.0,0.0,0.0,1.21846967915e-07,0.08825985,0.20593965,9.9047165,9e-08,0.0,0.0,0.0,9e-08,0.0,0.0,0.0,9e-08
1531944084691078431,1344,1531944084690641187,base_link,0.0271076112112,0.0051883278497,-0.0588854432109,-0.997883141077,1.0,0.0,0.0,0.0,1.0,0.0,0.0,0.0,1.0,-0.0769864693284,0.0162165667862,0.0160308107734,1.21846967915e-07,0.0,0.0,0.0,1.21846967915e-07,0.0,0.0,0.0,1.21846967915e-07,0.4903325,1.17574791997e-15,9.60071035,9e-08,0.0,0.0,0.0,9e-08,0.0,0.0,0.0,9e-08
1531944085048885116,1345,1531944085048399009,base_link,0.0323207397154,0.00106242964839,-0.0635868989249,-0.997452228085,1.0,0.0,0.0,0.0,1.0,0.0,0.0,0.0,1.0,-0.0500499606133,0.0200971905142,0.0356341265142,1.21846967915e-07,0.0,0.0,0.0,1.21846967915e-07,0.0,0.0,0.0,1.21846967915e-07,0.46091255,0.02941995,9.1790244,9e-08,0.0,0.0,0.0,9e-08,0.0,0.0,0.0,9e-08
1531944085328165385,1346,1531944085327501616,base_link,0.0414565921055,-0.00196792479947,-0.0655695285642,-0.996984510996,1.0,0.0,0.0,0.0,1.0,0.0,0.0,0.0,1.0,-0.0325785577297,0.0487863980234,-0.000912932679057,1.21846967915e-07,0.0,0.0,0.0,1.21846967915e-07,0.0,0.0,0.0,1.21846967915e-07,0.1372931,0.30400615,8.99269805,9e-08,0.0,0.0,0.0,9e-08,0.0,0.0,0.0,9e-08
1531944085768547215,1347,1531944085768158739,base_link,0.0239425457647,-0.00863491137813,-0.0669820424167,-0.997429495654,1.0,0.0,0.0,0.0,1.0,0.0,0.0,0.0,1.0,0.0549470745027,0.0175621975213,0.0385397598147,1.21846967915e-07,0.0,0.0,0.0,1.21846967915e-07,0.0,0.0,0.0,1.21846967915e-07,0.3334261,0.2353596,8.42391235,9e-08,0.0,0.0,0.0,9e-08,0.0,0.0,0.0,9e-08
1531944086112364563,1348,1531944086112067702,base_link,0.0205482399993,-0.0132065061299,-0.0717711365842,-0.997121989519,1.0,0.0,0.0,0.0,1.0,0.0,0.0,0.0,1.0,0.0788086950779,0.0280628949404,0.024400414899,1.21846967915e-07,0.0,0.0,0.0,1.21846967915e-07,0.0,0.0,0.0,1.21846967915e-07,0.77472535,-0.0784532,9.79684335,9e-08,0.0,0.0,0.0,9e-08,0.0,0.0,0.0,9e-08
1531944086497716009,1349,1531944086497222382,base_link,0.00358439088776,-0.0159417399275,-0.0795593535694,-0.99669620363,1.0,0.0,0.0,0.0,1.0,0.0,0.0,0.0,1.0,-0.04532751441,0.0307633634657,0.0586446225643,1.21846967915e-07,0.0,0.0,0.0,1.21846967915e-07,0.0,0.0,0.0,1.21846967915e-07,0.71588545,-0.04903325,9.79684335,9e-08,0.0,0.0,0.0,9e-08,0.0,0.0,0.0,9e-08
1531944086866371712,1350,1531944086865990371,base_link,0.00101831936282,-0.0144582933934,-0.0882022155813,-0.995997133502,1.0,0.0,0.0,0.0,1.0,0.0,0.0,0.0,1.0,-0.0263252686709,-0.0174957849085,0.0367884226143,1.21846967915e-07,0.0,0.0,0.0,1.21846967915e-07,0.0,0.0,0.0,1.21846967915e-07,0.3138128,0.2549729,10.83634825,9e-08,0.0,0.0,0.0,9e-08,0.0,0.0,0.0,9e-08
1531944087237675262,1351,1531944087237425856,base_link,-0.0102432130611,-0.00930255272159,-0.0882442151124,-0.996002759835,1.0,0.0,0.0,0.0,1.0,0.0,0.0,0.0,1.0,-0.0954385399818,-0.0438967123628,0.00237844698131,1.21846967915e-07,0.0,0.0,0.0,1.21846967915e-07,0.0,0.0,0.0,1.21846967915e-07,0.36284605,0.08825985,10.46369555,9e-08,0.0,0.0,0.0,9e-08,0.0,0.0,0.0,9e-08
1531944087571283333,1352,1531944087570908681,base_link,0.0039840889357,-0.00397262738973,-0.0878384193795,-0.996118847,1.0,0.0,0.0,0.0,1.0,0.0,0.0,0.0,1.0,-0.174670919776,-0.0110530760139,-0.0226815789938,1.21846967915e-07,0.0,0.0,0.0,1.21846967915e-07,0.0,0.0,0.0,1.21846967915e-07,0.196133,0.61781895,9.73800345,9e-08,0.0,0.0,0.0,9e-08,0.0,0.0,0.0,9e-08
1531944087982462374,1353,1531944087980997748,base_link,-0.00587911258923,-0.00221237842441,-0.0796378794126,-0.996804067798,1.0,0.0,0.0,0.0,1.0,0.0,0.0,0.0,1.0,0.160155534744,-0.0369886234403,0.00911562982947,1.21846967915e-07,0.0,0.0,0.0,1.21846967915e-07,0.0,0.0,0.0,1.21846967915e-07,0.00980665,0.14709975,9.80665,9e-08,0.0,0.0,0.0,9e-08,0.0,0.0,0.0,9e-08
1531944088418694969,1354,1531944088418289884,base_link,-0.0390724957272,-0.000552471770019,-0.0796614704806,-0.996055763988,1.0,0.0,0.0,0.0,1.0,0.0,0.0,0.0,1.0,-0.143628969789,-0.0417468771338,-0.0277124699205,1.21846967915e-07,0.0,0.0,0.0,1.21846967915e-07,0.0,0.0,0.0,1.21846967915e-07,0.3726527,0.4707192,9.4928372,9e-08,0.0,0.0,0.0,9e-08,0.0,0.0,0.0,9e-08
1531944088775568162,1355,1531944088775179718,base_link,-0.0025727243109,0.00156525639102,-0.0585425177495,-0.998280373782,1.0,0.0,0.0,0.0,1.0,0.0,0.0,0.0,1.0,-0.191768929362,0.0462340265512,-0.165314540267,1.21846967915e-07,0.0,0.0,0.0,1.21846967915e-07,0.0,0.0,0.0,1.21846967915e-07,0.3334261,-0.10787315,9.7478101,9e-08,0.0,0.0,0.0,9e-08,0.0,0.0,0.0,9e-08
1531944089199587243,1356,1531944089199176079,base_link,-0.0381070527344,0.00122332345829,-0.0548360062452,-0.997767191498,1.0,0.0,0.0,0.0,1.0,0.0,0.0,0.0,1.0,0.0621351450682,-0.0166268572211,0.102892436087,1.21846967915e-07,0.0,0.0,0.0,1.21846967915e-07,0.0,0.0,0.0,1.21846967915e-07,0.16671305,0.3334261,9.81645665,9e-08,0.0,0.0,0.0,9e-08,0.0,0.0,0.0,9e-08
1531944089635094150,1357,1531944089627769164,base_link,-0.0234055695714,-0.00782875953815,-0.0524050724902,-0.998320889401,1.0,0.0,0.0,0.0,1.0,0.0,0.0,0.0,1.0,-0.0213638413697,0.101526290178,-0.127641037107,1.21846967915e-07,0.0,0.0,0.0,1.21846967915e-07,0.0,0.0,0.0,1.21846967915e-07,0.5687857,0.2353596,8.7671451,9e-08,0.0,0.0,0.0,9e-08,0.0,0.0,0.0,9e-08
1531944090006455591,1358,1531944090006034091,base_link,-0.0322828355804,-0.0160570142271,-0.0445837605823,-0.998354786192,1.0,0.0,0.0,0.0,1.0,0.0,0.0,0.0,1.0,-0.0158973969519,0.0261821970344,0.148096293211,1.21846967915e-07,0.0,0.0,0.0,1.21846967915e-07,0.0,0.0,0.0,1.21846967915e-07,0.4707192,-0.65704555,6.9431082,9e-08,0.0,0.0,0.0,9e-08,0.0,0.0,0.0,9e-08
1531944090367083727,1359,1531944090365087555,base_link,-0.0194813146379,-0.0176257017197,-0.0753870174123,-0.996808211556,1.0,0.0,0.0,0.0,1.0,0.0,0.0,0.0,1.0,0.0229191146791,0.0269456170499,0.061890732497,1.21846967915e-07,0.0,0.0,0.0,1.21846967915e-07,0.0,0.0,0.0,1.21846967915e-07,0.5687857,0.46091255,8.7083052,9e-08,0.0,0.0,0.0,9e-08,0.0,0.0,0.0,9e-08
1531944090770566143,1360,1531944090770245314,base_link,-0.0275896936806,-0.0210782812557,-0.0614062800826,-0.997508788747,1.0,0.0,0.0,0.0,1.0,0.0,0.0,0.0,1.0,0.000209662131965,-0.0103285927325,-0.127796024084,1.21846967915e-07,0.0,0.0,0.0,1.21846967915e-07,0.0,0.0,0.0,1.21846967915e-07,0.77472535,0.2549729,10.5323421,9e-08,0.0,0.0,0.0,9e-08,0.0,0.0,0.0,9e-08
1531944091089332536,1361,1531944091089052442,base_link,-0.0323077321755,-0.0172808624319,-0.052189627135,-0.997964841593,1.0,0.0,0.0,0.0,1.0,0.0,0.0,0.0,1.0,0.0474938675761,-0.0667314082384,0.010976601392,1.21846967915e-07,0.0,0.0,0.0,1.21846967915e-07,0.0,0.0,0.0,1.21846967915e-07,0.48052585,-0.2353596,11.2188076,9e-08,0.0,0.0,0.0,9e-08,0.0,0.0,0.0,9e-08
1531944091465192400,1362,1531944091464947666,base_link,0.0160781293438,-0.00355668218612,-0.0679853272594,-0.9975504193,1.0,0.0,0.0,0.0,1.0,0.0,0.0,0.0,1.0,-0.221005469561,-0.0388103798032,0.0678376033902,1.21846967915e-07,0.0,0.0,0.0,1.21846967915e-07,0.0,0.0,0.0,1.21846967915e-07,0.26477955,0.2353596,8.75733845,9e-08,0.0,0.0,0.0,9e-08,0.0,0.0,0.0,9e-08
1531944091776468178,1363,1531944091776072790,base_link,0.0439037653582,0.00270405193187,-0.074632124821,-0.99624052991,1.0,0.0,0.0,0.0,1.0,0.0,0.0,0.0,1.0,-0.290173113346,0.00442525930703,-0.00881237722933,1.21846967915e-07,0.0,0.0,0.0,1.21846967915e-07,0.0,0.0,0.0,1.21846967915e-07,0.4314926,0.46091255,9.6693569,9e-08,0.0,0.0,0.0,9e-08,0.0,0.0,0.0,9e-08
1531944092189793444,1364,1531944092189489351,base_link,0.0485916492495,0.00394500231032,-0.0656275086337,-0.996652556657,1.0,0.0,0.0,0.0,1.0,0.0,0.0,0.0,1.0,0.171667218208,0.0078723365441,0.0290501397103,1.21846967915e-07,0.0,0.0,0.0,1.21846967915e-07,0.0,0.0,0.0,1.21846967915e-07,0.55897905,-0.2549729,10.14988275,9e-08,0.0,0.0,0.0,9e-08,0.0,0.0,0.0,9e-08
1531944092538071236,1365,1531944092537662888,base_link,0.0309796891103,0.00193444430199,-0.081649256905,-0.996177652648,1.0,0.0,0.0,0.0,1.0,0.0,0.0,0.0,1.0,-0.116791971028,0.0171819105744,0.132979646325,1.21846967915e-07,0.0,0.0,0.0,1.21846967915e-07,0.0,0.0,0.0,1.21846967915e-07,0.6864655,0.02941995,10.5323421,9e-08,0.0,0.0,0.0,9e-08,0.0,0.0,0.0,9e-08
1531944092926672547,1366,1531944092926353350,base_link,0.0147254622548,-0.00161347377558,-0.0820425401201,-0.996518729917,1.0,0.0,0.0,0.0,1.0,0.0,0.0,0.0,1.0,0.248417675495,-0.0117017161101,-0.0761317312717,1.21846967915e-07,0.0,0.0,0.0,1.21846967915e-07,0.0,0.0,0.0,1.21846967915e-07,0.67665885,0.40207265,10.18910935,9e-08,0.0,0.0,0.0,9e-08,0.0,0.0,0.0,9e-08
1531944093270040243,1367,1531944093269651639,base_link,-0.0188197008378,-0.00324003249776,-0.0745394222304,-0.99703520278,1.0,0.0,0.0,0.0,1.0,0.0,0.0,0.0,1.0,0.123393490911,-0.0140008945018,-0.0224808901548,1.21846967915e-07,0.0,0.0,0.0,1.21846967915e-07,0.0,0.0,0.0,1.21846967915e-07,0.51975245,0.26477955,9.54187045,9e-08,0.0,0.0,0.0,9e-08,0.0,0.0,0.0,9e-08
1531944093687110307,1368,1531944093686676679,base_link,-0.0324269746885,0.00114868609257,-0.0699057028214,-0.997025759219,1.0,0.0,0.0,0.0,1.0,0.0,0.0,0.0,1.0,0.147483751178,0.00684601441026,-0.0434577092528,1.21846967915e-07,0.0,0.0,0.0,1.21846967915e-07,0.0,0.0,0.0,1.21846967915e-07,0.392266,0.2157463,10.73828175,9e-08,0.0,0.0,0.0,9e-08,0.0,0.0,0.0,9e-08
1531944093995712928,1369,1531944093995391811,base_link,-0.0452514077337,0.00104537116906,-0.0616855152778,-0.997068761171,1.0,0.0,0.0,0.0,1.0,0.0,0.0,0.0,1.0,0.00771942501888,-0.00774039328098,-0.0601137839258,1.21846967915e-07,0.0,0.0,0.0,1.21846967915e-07,0.0,0.0,0.0,1.21846967915e-07,0.20593965,0.26477955,9.7085835,9e-08,0.0,0.0,0.0,9e-08,0.0,0.0,0.0,9e-08
1531944094494349159,1370,1531944094493952874,base_link,-0.0543232990569,-0.000889451423291,-0.0429968177437,-0.997596843279,1.0,0.0,0.0,0.0,1.0,0.0,0.0,0.0,1.0,0.0820023939013,-0.00507814064622,-0.0956111773849,1.21846967915e-07,0.0,0.0,0.0,1.21846967915e-07,0.0,0.0,0.0,1.21846967915e-07,0.02941995,0.588399,9.1397978,9e-08,0.0,0.0,0.0,9e-08,0.0,0.0,0.0,9e-08
1531944095018605721,1371,1531944095018154493,base_link,-0.08055334297,-0.011992326352,-0.0157548638969,-0.996553624904,1.0,0.0,0.0,0.0,1.0,0.0,0.0,0.0,1.0,0.217484816909,0.0488947816193,-0.0844217687845,1.21846967915e-07,0.0,0.0,0.0,1.21846967915e-07,0.0,0.0,0.0,1.21846967915e-07,0.0784532,0.00980665,6.5900688,9e-08,0.0,0.0,0.0,9e-08,0.0,0.0,0.0,9e-08
1531944095335746694,1372,1531944095334989773,base_link,-0.10392044244,-0.011195171643,-0.0227904473397,-0.99426143709,1.0,0.0,0.0,0.0,1.0,0.0,0.0,0.0,1.0,0.104849308729,0.00530066434294,0.139373376966,1.21846967915e-07,0.0,0.0,0.0,1.21846967915e-07,0.0,0.0,0.0,1.21846967915e-07,0.6276256,-0.3530394,9.1986377,9e-08,0.0,0.0,0.0,9e-08,0.0,0.0,0.0,9e-08
1531944095729273562,1373,1531944095729085148,base_link,-0.082793010455,-0.0151590816145,-0.0276059962909,-0.996068987888,1.0,0.0,0.0,0.0,1.0,0.0,0.0,0.0,1.0,-0.139721289277,0.0808167904615,-0.191507875919,1.21846967915e-07,0.0,0.0,0.0,1.21846967915e-07,0.0,0.0,0.0,1.21846967915e-07,0.40207265,1.0983448,9.2574776,9e-08,0.0,0.0,0.0,9e-08,0.0,0.0,0.0,9e-08
1531944096224827361,1374,1531944096224555812,base_link,-0.15122598751,-0.0185642346743,0.034096930299,-0.987736538373,1.0,0.0,0.0,0.0,1.0,0.0,0.0,0.0,1.0,0.266660302877,-0.0865735113621,-0.153187379241,1.21846967915e-07,0.0,0.0,0.0,1.21846967915e-07,0.0,0.0,0.0,1.21846967915e-07,-0.0196133,0.1765197,11.26784085,9e-08,0.0,0.0,0.0,9e-08,0.0,0.0,0.0,9e-08
1531944096613114473,1375,1531944096612686541,base_link,-0.2301779652,0.00284815869441,0.0660290599684,-0.97090172292,1.0,0.0,0.0,0.0,1.0,0.0,0.0,0.0,1.0,0.280799031258,-0.123403817415,-0.138956338167,1.21846967915e-07,0.0,0.0,0.0,1.21846967915e-07,0.0,0.0,0.0,1.21846967915e-07,-0.32361945,0.3138128,10.4342756,9e-08,0.0,0.0,0.0,9e-08,0.0,0.0,0.0,9e-08
1531944096938600968,1376,1531944096938277867,base_link,-0.258479755818,0.0215415547602,0.095160704304,-0.961076801097,1.0,0.0,0.0,0.0,1.0,0.0,0.0,0.0,1.0,0.153638169169,-0.160378605127,-0.198747754097,1.21846967915e-07,0.0,0.0,0.0,1.21846967915e-07,0.0,0.0,0.0,1.21846967915e-07,-0.2941995,0.67665885,11.40513395,9e-08,0.0,0.0,0.0,9e-08,0.0,0.0,0.0,9e-08
1531944097398419910,1377,1531944097397790124,base_link,-0.265612206911,0.0416059391138,0.160931426176,-0.949642131247,1.0,0.0,0.0,0.0,1.0,0.0,0.0,0.0,1.0,0.101322807372,-0.125236839056,-0.306056201458,1.21846967915e-07,0.0,0.0,0.0,1.21846967915e-07,0.0,0.0,0.0,1.21846967915e-07,0.14709975,0.42168595,11.91507975,9e-08,0.0,0.0,0.0,9e-08,0.0,0.0,0.0,9e-08
1531944097908354311,1378,1531944097908068426,base_link,-0.345011246915,0.0821241657442,0.246194081162,-0.902004066124,1.0,0.0,0.0,0.0,1.0,0.0,0.0,0.0,1.0,0.186858564615,-0.286504417658,-0.242375925183,1.21846967915e-07,0.0,0.0,0.0,1.21846967915e-07,0.0,0.0,0.0,1.21846967915e-07,-0.20593965,0.30400615,11.13054775,9e-08,0.0,0.0,0.0,9e-08,0.0,0.0,0.0,9e-08
1531944098315804761,1379,1531944098315514396,base_link,-0.353623925188,0.118686859888,0.315202853582,-0.872645810119,1.0,0.0,0.0,0.0,1.0,0.0,0.0,0.0,1.0,0.0298302713782,-0.308326154947,-0.346077203751,1.21846967915e-07,0.0,0.0,0.0,1.21846967915e-07,0.0,0.0,0.0,1.21846967915e-07,0.40207265,0.6080123,11.58165365,9e-08,0.0,0.0,0.0,9e-08,0.0,0.0,0.0,9e-08
1531944098724028164,1380,1531944098723778406,base_link,-0.350978502889,0.147834488091,0.410855774212,-0.828345693196,1.0,0.0,0.0,0.0,1.0,0.0,0.0,0.0,1.0,0.100792251527,-0.349296241999,-0.438173353672,1.21846967915e-07,0.0,0.0,0.0,1.21846967915e-07,0.0,0.0,0.0,1.21846967915e-07,0.0,0.4903325,11.87585315,9e-08,0.0,0.0,0.0,9e-08,0.0,0.0,0.0,9e-08
1531944099065102991,1381,1531944099064798546,base_link,-0.341819051128,0.184193019559,0.483155890791,-0.784724826309,1.0,0.0,0.0,0.0,1.0,0.0,0.0,0.0,1.0,-0.0446569956839,-0.461243540049,-0.314536005259,1.21846967915e-07,0.0,0.0,0.0,1.21846967915e-07,0.0,0.0,0.0,1.21846967915e-07,0.28439285,0.0392266,14.0823494,9e-08,0.0,0.0,0.0,9e-08,0.0,0.0,0.0,9e-08
1531944099370054068,1382,1531944099369767895,base_link,-0.305246792432,0.226569282975,0.534551568156,-0.754814796293,1.0,0.0,0.0,0.0,1.0,0.0,0.0,0.0,1.0,-0.0831162035465,-0.444795489311,-0.175285428762,1.21846967915e-07,0.0,0.0,0.0,1.21846967915e-07,0.0,0.0,0.0,1.21846967915e-07,0.83356525,0.2353596,14.4550021,9e-08,0.0,0.0,0.0,9e-08,0.0,0.0,0.0,9e-08
1531944099786702384,1383,1531944099784872450,base_link,-0.236601834732,0.250647996206,0.597995444674,-0.72359975259,1.0,0.0,0.0,0.0,1.0,0.0,0.0,0.0,1.0,-0.377662420273,-0.324650377035,-0.185011804104,1.21846967915e-07,0.0,0.0,0.0,1.21846967915e-07,0.0,0.0,0.0,1.21846967915e-07,0.83356525,0.26477955,14.513842,9e-08,0.0,0.0,0.0,9e-08,0.0,0.0,0.0,9e-08
1531944100195541016,1384,1531944100195117692,base_link,-0.167998182417,0.229261440608,0.662856399323,-0.692702819708,1.0,0.0,0.0,0.0,1.0,0.0,0.0,0.0,1.0,-0.501984238625,-0.177123948932,-0.323764652014,1.21846967915e-07,0.0,0.0,0.0,1.21846967915e-07,0.0,0.0,0.0,1.21846967915e-07,0.51975245,0.36284605,11.76798,9e-08,0.0,0.0,0.0,9e-08,0.0,0.0,0.0,9e-08
1531944100622666801,1385,1531944100621292286,base_link,0.0872991916275,-0.186354167872,-0.717980780124,0.664947046486,1.0,0.0,0.0,0.0,1.0,0.0,0.0,0.0,1.0,-0.468611091375,-0.143087029457,-0.103469476104,1.21846967915e-07,0.0,0.0,0.0,1.21846967915e-07,0.0,0.0,0.0,1.21846967915e-07,0.50013915,0.2941995,13.9058297,9e-08,0.0,0.0,0.0,9e-08,0.0,0.0,0.0,9e-08
1531944100999019631,1386,1531944100998453076,base_link,0.0147179119245,-0.105745665542,-0.751505911458,0.65103003182,1.0,0.0,0.0,0.0,1.0,0.0,0.0,0.0,1.0,-0.675696790218,0.0837137252092,-0.204911053181,1.21846967915e-07,0.0,0.0,0.0,1.21846967915e-07,0.0,0.0,0.0,1.21846967915e-07,0.00980665,0.7256921,10.38524235,9e-08,0.0,0.0,0.0,9e-08,0.0,0.0,0.0,9e-08
1531944101356775231,1387,1531944101356540193,base_link,-0.0275515968559,-0.027492550903,-0.78382395238,0.619762116324,1.0,0.0,0.0,0.0,1.0,0.0,0.0,0.0,1.0,-0.338626474142,0.0881418734789,-0.17728382349,1.21846967915e-07,0.0,0.0,0.0,1.21846967915e-07,0.0,0.0,0.0,1.21846967915e-07,0.18632635,-0.38245935,7.32556755,9e-08,0.0,0.0,0.0,9e-08,0.0,0.0,0.0,9e-08
1531944101810281407,1388,1531944101806985182,base_link,-0.0521503773799,0.0228294072836,-0.780331113702,0.622770029217,1.0,0.0,0.0,0.0,1.0,0.0,0.0,0.0,1.0,-0.316008329391,0.0554025173187,0.196074187756,1.21846967915e-07,0.0,0.0,0.0,1.21846967915e-07,0.0,0.0,0.0,1.21846967915e-07,0.57859235,-0.1569064,9.2770909,9e-08,0.0,0.0,0.0,9e-08,0.0,0.0,0.0,9e-08
1531944102272104881,1389,1531944102271755380,base_link,-0.0652478728646,0.0833192936941,-0.760856678663,0.640232555341,1.0,0.0,0.0,0.0,1.0,0.0,0.0,0.0,1.0,-0.232583791018,0.109897889197,0.0783462896943,1.21846967915e-07,0.0,0.0,0.0,1.21846967915e-07,0.0,0.0,0.0,1.21846967915e-07,0.8237586,0.10787315,7.60015375,9e-08,0.0,0.0,0.0,9e-08,0.0,0.0,0.0,9e-08
1531944102737393826,1390,1531944102736813608,base_link,-0.0525484751107,0.103680715485,-0.755698216309,0.644522437831,1.0,0.0,0.0,0.0,1.0,0.0,0.0,0.0,1.0,0.0357137434185,0.0645295232534,0.0529370382428,1.21846967915e-07,0.0,0.0,0.0,1.21846967915e-07,0.0,0.0,0.0,1.21846967915e-07,0.79433865,-0.0588399,7.9041599,9e-08,0.0,0.0,0.0,9e-08,0.0,0.0,0.0,9e-08
1531944103094941014,1391,1531944103094691640,base_link,-0.0366446668828,0.0944181820925,-0.745843708197,0.65837644112,1.0,0.0,0.0,0.0,1.0,0.0,0.0,0.0,1.0,0.0824965015054,-0.0130003802478,0.098310276866,1.21846967915e-07,0.0,0.0,0.0,1.21846967915e-07,0.0,0.0,0.0,1.21846967915e-07,0.588399,0.1569064,10.42446895,9e-08,0.0,0.0,0.0,9e-08,0.0,0.0,0.0,9e-08
1531944103457613817,1392,1531944103457290204,base_link,-0.0210887021569,0.0785447093142,-0.735567922805,0.672551727542,1.0,0.0,0.0,0.0,1.0,0.0,0.0,0.0,1.0,0.115642465651,-0.00764605216682,0.0737454816699,1.21846967915e-07,0.0,0.0,0.0,1.21846967915e-07,0.0,0.0,0.0,1.21846967915e-07,0.26477955,0.24516625,9.01231135,9e-08,0.0,0.0,0.0,9e-08,0.0,0.0,0.0,9e-08
1531944103965936144,1393,1531944103965524404,base_link,-0.00297641875649,0.0492640925905,-0.724861238812,0.687124715448,1.0,0.0,0.0,0.0,1.0,0.0,0.0,0.0,1.0,0.134677380323,-0.0152137391269,0.0639553666115,1.21846967915e-07,0.0,0.0,0.0,1.21846967915e-07,0.0,0.0,0.0,1.21846967915e-07,0.3138128,0.10787315,9.80665,9e-08,0.0,0.0,0.0,9e-08,0.0,0.0,0.0,9e-08
1531944104343939234,1394,1531944104341394427,base_link,0.00658741063793,0.032940114459,-0.719849937238,0.693316394396,1.0,0.0,0.0,0.0,1.0,0.0,0.0,0.0,1.0,0.0473273508251,-0.00659581832588,0.0140590239316,1.21846967915e-07,0.0,0.0,0.0,1.21846967915e-07,0.0,0.0,0.0,1.21846967915e-07,0.16671305,0.2941995,10.4146623,9e-08,0.0,0.0,0.0,9e-08,0.0,0.0,0.0,9e-08
1531944104664310073,1395,1531944104664016860,base_link,0.0123979590964,0.0213166942784,-0.722814203927,0.690602284789,1.0,0.0,0.0,0.0,1.0,0.0,0.0,0.0,1.0,0.0759347602725,-0.0324635989964,-0.0764676854014,1.21846967915e-07,0.0,0.0,0.0,1.21846967915e-07,0.0,0.0,0.0,1.21846967915e-07,-0.00980665,0.2549729,9.36535075,9e-08,0.0,0.0,0.0,9e-08,0.0,0.0,0.0,9e-08
1531944105123784388,1396,1531944105123148074,base_link,0.0278303648316,-0.00403938723262,-0.730302311978,0.682545007501,1.0,0.0,0.0,0.0,1.0,0.0,0.0,0.0,1.0,0.0529773496091,-0.00940466299653,-0.0259545799345,1.21846967915e-07,0.0,0.0,0.0,1.21846967915e-07,0.0,0.0,0.0,1.21846967915e-07,-0.59820565,0.16671305,10.13026945,9e-08,0.0,0.0,0.0,9e-08,0.0,0.0,0.0,9e-08
1531944105608800765,1397,1531944105608488832,base_link,0.040780248147,-0.0107663703543,-0.735326430513,0.676399362226,1.0,0.0,0.0,0.0,1.0,0.0,0.0,0.0,1.0,0.02798749879,0.0557631254196,-0.0496954545379,1.21846967915e-07,0.0,0.0,0.0,1.21846967915e-07,0.0,0.0,0.0,1.21846967915e-07,-1.0002783,0.5491724,8.1199062,9e-08,0.0,0.0,0.0,9e-08,0.0,0.0,0.0,9e-08
1531944106086000321,1398,1531944106085698948,base_link,0.0433884373088,0.0176423967559,-0.748910046707,0.661014320031,1.0,0.0,0.0,0.0,1.0,0.0,0.0,0.0,1.0,0.0763870477676,0.0959495380521,-0.123763054609,1.21846967915e-07,0.0,0.0,0.0,1.21846967915e-07,0.0,0.0,0.0,1.21846967915e-07,-1.0983448,-0.1569064,7.81590005,9e-08,0.0,0.0,0.0,9e-08,0.0,0.0,0.0,9e-08
1531944106483237727,1399,1531944106482825187,base_link,0.046698322016,0.0362444846529,-0.751199755489,0.657422642907,1.0,0.0,0.0,0.0,1.0,0.0,0.0,0.0,1.0,0.0428821444511,0.0881795808673,0.0191471967846,1.21846967915e-07,0.0,0.0,0.0,1.21846967915e-07,0.0,0.0,0.0,1.21846967915e-07,-1.1375714,-0.196133,7.7080269,9e-08,0.0,0.0,0.0,9e-08,0.0,0.0,0.0,9e-08
1531944106855686057,1400,1531944106852052492,base_link,0.0559726264782,0.0352908461994,-0.743545391541,0.665403540702,1.0,0.0,0.0,0.0,1.0,0.0,0.0,0.0,1.0,-0.0447382107377,0.0230627655983,0.0486798100173,1.21846967915e-07,0.0,0.0,0.0,1.21846967915e-07,0.0,0.0,0.0,1.21846967915e-07,-0.95124505,0.3334261,8.5906254,9e-08,0.0,0.0,0.0,9e-08,0.0,0.0,0.0,9e-08
1531944107308461431,1401,1531944107308165946,base_link,0.0589607573966,0.0327185488608,-0.744723416715,0.663957949153,1.0,0.0,0.0,0.0,1.0,0.0,0.0,0.0,1.0,0.0657955631614,-0.0214102845639,-0.0648122578859,1.21846967915e-07,0.0,0.0,0.0,1.21846967915e-07,0.0,0.0,0.0,1.21846967915e-07,-1.12776475,-0.0196133,8.8455983,9e-08,0.0,0.0,0.0,9e-08,0.0,0.0,0.0,9e-08
1531944107766095318,1402,1531944107765740410,base_link,0.0936939132661,-0.0261633455942,-0.753395569599,0.650332257905,1.0,0.0,0.0,0.0,1.0,0.0,0.0,0.0,1.0,0.289139389992,-0.0715649724007,-0.0168778710067,1.21846967915e-07,0.0,0.0,0.0,1.21846967915e-07,0.0,0.0,0.0,1.21846967915e-07,-1.06892485,-0.0392266,10.79712165,9e-08,0.0,0.0,0.0,9e-08,0.0,0.0,0.0,9e-08
1531944108281254484,1403,1531944108279994688,base_link,0.121726224588,-0.091327210533,-0.761253650515,0.630345101069,1.0,0.0,0.0,0.0,1.0,0.0,0.0,0.0,1.0,0.30123385787,-0.0939189568162,-0.139871552587,1.21846967915e-07,0.0,0.0,0.0,1.21846967915e-07,0.0,0.0,0.0,1.21846967915e-07,-1.0787315,0.22555295,10.3362091,9e-08,0.0,0.0,0.0,9e-08,0.0,0.0,0.0,9e-08
1531944108515043589,1404,1531944108514819911,base_link,0.133278630758,-0.118433715936,-0.773438423383,0.608278938274,1.0,0.0,0.0,0.0,1.0,0.0,0.0,0.0,1.0,-0.00954636745155,-0.111117810011,-0.208725839853,1.21846967915e-07,0.0,0.0,0.0,1.21846967915e-07,0.0,0.0,0.0,1.21846967915e-07,-1.01008495,0.5687857,9.40457735,9e-08,0.0,0.0,0.0,9e-08,0.0,0.0,0.0,9e-08
1531944108979099881,1405,1531944108978723501,base_link,0.124362949273,-0.140820770715,-0.807284677412,0.559459397096,1.0,0.0,0.0,0.0,1.0,0.0,0.0,0.0,1.0,0.399722218513,-0.0990378186107,-0.289009451866,1.21846967915e-07,0.0,0.0,0.0,1.21846967915e-07,0.0,0.0,0.0,1.21846967915e-07,-0.73549875,0.5687857,10.89518815,9e-08,0.0,0.0,0.0,9e-08,0.0,0.0,0.0,9e-08
1531944109381985045,1406,1531944109381551481,base_link,0.140666543277,-0.191286361209,-0.833675695183,0.498605341807,1.0,0.0,0.0,0.0,1.0,0.0,0.0,0.0,1.0,0.254438430071,-0.164335832,-0.314872711897,1.21846967915e-07,0.0,0.0,0.0,1.21846967915e-07,0.0,0.0,0.0,1.21846967915e-07,-0.59820565,0.34323275,10.7088618,9e-08,0.0,0.0,0.0,9e-08,0.0,0.0,0.0,9e-08
1531944109783538125,1407,1531944109783143184,base_link,0.145190510473,-0.235840793156,-0.85850081162,0.431596098685,1.0,0.0,0.0,0.0,1.0,0.0,0.0,0.0,1.0,0.218548893929,-0.184901401401,-0.307447731495,1.21846967915e-07,0.0,0.0,0.0,1.21846967915e-07,0.0,0.0,0.0,1.21846967915e-07,-0.61781895,0.1372931,10.79712165,9e-08,0.0,0.0,0.0,9e-08,0.0,0.0,0.0,9e-08
1531944110261809836,1408,1531944110260101245,base_link,0.132753475825,-0.287576230561,-0.885268118758,0.340553643621,1.0,0.0,0.0,0.0,1.0,0.0,0.0,0.0,1.0,0.146933406591,-0.257625937462,-0.33698618412,1.21846967915e-07,0.0,0.0,0.0,1.21846967915e-07,0.0,0.0,0.0,1.21846967915e-07,-0.51975245,0.4314926,11.01286795,9e-08,0.0,0.0,0.0,9e-08,0.0,0.0,0.0,9e-08
1531944110670470082,1409,1531944110670133733,base_link,0.101940404504,-0.294861214761,-0.916176324568,0.251567009481,1.0,0.0,0.0,0.0,1.0,0.0,0.0,0.0,1.0,-0.0753853321075,-0.281778246164,-0.388390749693,1.21846967915e-07,0.0,0.0,0.0,1.21846967915e-07,0.0,0.0,0.0,1.21846967915e-07,-0.28439285,0.30400615,12.46425215,9e-08,0.0,0.0,0.0,9e-08,0.0,0.0,0.0,9e-08
1531944111030778851,1410,1531944111030269096,base_link,0.0739114318783,-0.294319385787,-0.937935078372,0.16790172169,1.0,0.0,0.0,0.0,1.0,0.0,0.0,0.0,1.0,-0.048137690872,-0.321140259504,-0.393104940653,1.21846967915e-07,0.0,0.0,0.0,1.21846967915e-07,0.0,0.0,0.0,1.21846967915e-07,-0.2745862,0.36284605,11.81701325,9e-08,0.0,0.0,0.0,9e-08,0.0,0.0,0.0,9e-08
1531944111443050519,1411,1531944111441872898,base_link,0.034710613936,-0.280370458646,-0.956268067347,0.0757559408268,1.0,0.0,0.0,0.0,1.0,0.0,0.0,0.0,1.0,-0.132970765233,-0.324044317007,-0.373304903507,1.21846967915e-07,0.0,0.0,0.0,1.21846967915e-07,0.0,0.0,0.0,1.21846967915e-07,-0.2157463,0.2157463,12.7290317,9e-08,0.0,0.0,0.0,9e-08,0.0,0.0,0.0,9e-08
1531944111870708856,1412,1531944111870366492,base_link,-0.00952093563731,-0.246505080295,-0.968911624438,-0.0188377599943,1.0,0.0,0.0,0.0,1.0,0.0,0.0,0.0,1.0,-0.230844780803,-0.289424657822,-0.328925192356,1.21846967915e-07,0.0,0.0,0.0,1.21846967915e-07,0.0,0.0,0.0,1.21846967915e-07,-0.10787315,0.1765197,12.07198615,9e-08,0.0,0.0,0.0,9e-08,0.0,0.0,0.0,9e-08
1531944112168131696,1413,1531944112166963803,base_link,-0.0318751121104,-0.215329840379,-0.972879887544,-0.0782416863521,1.0,0.0,0.0,0.0,1.0,0.0,0.0,0.0,1.0,-0.138966292143,-0.222360625863,-0.3520578444,1.21846967915e-07,0.0,0.0,0.0,1.21846967915e-07,0.0,0.0,0.0,1.21846967915e-07,-0.0980665,0.00980665,11.6306869,9e-08,0.0,0.0,0.0,9e-08,0.0,0.0,0.0,9e-08
1531944112565357460,1414,1531944112565015095,base_link,-0.0544868537529,-0.194885102861,-0.967371479029,-0.152457866353,1.0,0.0,0.0,0.0,1.0,0.0,0.0,0.0,1.0,-0.390802174807,-0.129664421082,-0.231975123286,1.21846967915e-07,0.0,0.0,0.0,1.21846967915e-07,0.0,0.0,0.0,1.21846967915e-07,-0.0588399,0.02941995,10.4931155,9e-08,0.0,0.0,0.0,9e-08,0.0,0.0,0.0,9e-08
1531944113018603716,1415,1531944113016583447,base_link,-0.0518207058901,-0.0727417714497,-0.973288840924,-0.211499601087,1.0,0.0,0.0,0.0,1.0,0.0,0.0,0.0,1.0,-0.361756950617,-0.061359655112,-0.266474694014,1.21846967915e-07,0.0,0.0,0.0,1.21846967915e-07,0.0,0.0,0.0,1.21846967915e-07,-0.02941995,-0.10787315,10.69905515,9e-08,0.0,0.0,0.0,9e-08,0.0,0.0,0.0,9e-08
1531944113471263035,1416,1531944113470604161,base_link,-0.0451935322145,-0.0293716498713,-0.965158224689,-0.256055564565,1.0,0.0,0.0,0.0,1.0,0.0,0.0,0.0,1.0,-0.15972006321,0.013016439043,-0.0944316163659,1.21846967915e-07,0.0,0.0,0.0,1.21846967915e-07,0.0,0.0,0.0,1.21846967915e-07,0.06864655,-0.196133,9.20844435,9e-08,0.0,0.0,0.0,9e-08,0.0,0.0,0.0,9e-08
1531944113841440513,1417,1531944113841217827,base_link,-0.0261085051659,0.0228888974131,-0.963549863558,-0.265266101813,1.0,0.0,0.0,0.0,1.0,0.0,0.0,0.0,1.0,-0.344933152199,0.0187746118754,0.00679312925786,1.21846967915e-07,0.0,0.0,0.0,1.21846967915e-07,0.0,0.0,0.0,1.21846967915e-07,0.0588399,-0.2157463,8.4141057,9e-08,0.0,0.0,0.0,9e-08,0.0,0.0,0.0,9e-08
1531944114185509983,1418,1531944114185181731,base_link,-0.00535381005647,0.0775286174449,-0.962807934003,-0.25876926482,1.0,0.0,0.0,0.0,1.0,0.0,0.0,0.0,1.0,-0.171640172601,0.0188212543726,0.0617000460625,1.21846967915e-07,0.0,0.0,0.0,1.21846967915e-07,0.0,0.0,0.0,1.21846967915e-07,0.1765197,-0.26477955,8.3748791,9e-08,0.0,0.0,0.0,9e-08,0.0,0.0,0.0,9e-08
1531944114686039728,1419,1531944114685010330,base_link,0.00785054689667,0.099448505049,-0.966969730386,-0.234558956925,1.0,0.0,0.0,0.0,1.0,0.0,0.0,0.0,1.0,-0.20813831687,0.011038646102,0.167068690062,1.21846967915e-07,0.0,0.0,0.0,1.21846967915e-07,0.0,0.0,0.0,1.21846967915e-07,0.3726527,-0.0980665,8.97308475,9e-08,0.0,0.0,0.0,9e-08,0.0,0.0,0.0,9e-08
1531944114972580464,1420,1531944114971759064,base_link,0.0139327504674,0.132263260021,-0.968556636323,-0.21026257572,1.0,0.0,0.0,0.0,1.0,0.0,0.0,0.0,1.0,-0.191006541252,-0.0359010994434,0.168450072408,1.21846967915e-07,0.0,0.0,0.0,1.21846967915e-07,0.0,0.0,0.0,1.21846967915e-07,0.50013915,-0.2549729,9.38496405,9e-08,0.0,0.0,0.0,9e-08,0.0,0.0,0.0,9e-08
1531944115434563249,1421,1531944115434160533,base_link,0.0118227994235,0.133592320327,-0.977553574475,-0.162487914613,1.0,0.0,0.0,0.0,1.0,0.0,0.0,0.0,1.0,0.102221675217,-0.00609252322465,0.254363805056,1.21846967915e-07,0.0,0.0,0.0,1.21846967915e-07,0.0,0.0,0.0,1.21846967915e-07,0.59820565,-0.34323275,9.3555441,9e-08,0.0,0.0,0.0,9e-08,0.0,0.0,0.0,9e-08
1531944115914269513,1422,1531944115913805998,base_link,0.0091326793709,0.107830181531,-0.989687293161,-0.0938525858653,1.0,0.0,0.0,0.0,1.0,0.0,0.0,0.0,1.0,0.0814696326852,-0.0655632391572,0.284909456968,1.21846967915e-07,0.0,0.0,0.0,1.21846967915e-07,0.0,0.0,0.0,1.21846967915e-07,0.5099458,-0.0784532,9.11037785,9e-08,0.0,0.0,0.0,9e-08,0.0,0.0,0.0,9e-08
1531944116174887745,1423,1531944116174602948,base_link,-0.00446484043916,0.0829362540528,-0.994621098431,-0.0618911424944,1.0,0.0,0.0,0.0,1.0,0.0,0.0,0.0,1.0,0.288126647472,-0.142734214664,0.186623483896,1.21846967915e-07,0.0,0.0,0.0,1.21846967915e-07,0.0,0.0,0.0,1.21846967915e-07,0.73549875,-0.0196133,9.79684335,9e-08,0.0,0.0,0.0,9e-08,0.0,0.0,0.0,9e-08
1531944116565804645,1424,1531944116565424553,base_link,-0.0329780548759,0.0493275410466,-0.997815782424,-0.0290328423885,1.0,0.0,0.0,0.0,1.0,0.0,0.0,0.0,1.0,0.0670739412308,-0.0909959673882,0.117364734411,1.21846967915e-07,0.0,0.0,0.0,1.21846967915e-07,0.0,0.0,0.0,1.21846967915e-07,0.95124505,0.0784532,10.1008495,9e-08,0.0,0.0,0.0,9e-08,0.0,0.0,0.0,9e-08
1531944117006331059,1425,1531944117005929943,base_link,-0.0066709775401,0.00415652510616,-0.99978925504,-0.0189648850263,1.0,0.0,0.0,0.0,1.0,0.0,0.0,0.0,1.0,0.189634114504,0.357264131308,-0.0150200035423,1.21846967915e-07,0.0,0.0,0.0,1.21846967915e-07,0.0,0.0,0.0,1.21846967915e-07,0.61781895,0.0784532,8.4925589,9e-08,0.0,0.0,0.0,9e-08,0.0,0.0,0.0,9e-08
1531944117378794950,1426,1531944117378136077,base_link,0.0211736561165,-0.0506527594609,-0.998172319608,-0.0252585552753,1.0,0.0,0.0,0.0,1.0,0.0,0.0,0.0,1.0,0.314418941736,-0.0724997594953,-0.0376157946885,1.21846967915e-07,0.0,0.0,0.0,1.21846967915e-07,0.0,0.0,0.0,1.21846967915e-07,0.6472389,0.18632635,9.50264385,9e-08,0.0,0.0,0.0,9e-08,0.0,0.0,0.0,9e-08
1531944117820824102,1427,1531944117820454665,base_link,-0.0265567586627,-0.0834112500784,-0.995228555357,-0.0430978483349,1.0,0.0,0.0,0.0,1.0,0.0,0.0,0.0,1.0,-0.0296708345413,-0.213971912861,-0.0669803768396,1.21846967915e-07,0.0,0.0,0.0,1.21846967915e-07,0.0,0.0,0.0,1.21846967915e-07,0.980665,0.1176798,10.81673495,9e-08,0.0,0.0,0.0,9e-08,0.0,0.0,0.0,9e-08
1531944118164723785,1428,1531944118164485675,base_link,-0.0350863581519,-0.0741474980259,-0.995137993766,-0.0545111857393,1.0,0.0,0.0,0.0,1.0,0.0,0.0,0.0,1.0,-0.0616667233407,0.102924823761,-0.0518427789211,1.21846967915e-07,0.0,0.0,0.0,1.21846967915e-07,0.0,0.0,0.0,1.21846967915e-07,0.8629852,0.20593965,9.5516771,9e-08,0.0,0.0,0.0,9e-08,0.0,0.0,0.0,9e-08
1531944118639852048,1429,1531944118639106359,base_link,-0.00648908010398,-0.0580523317396,-0.996981259762,-0.0511486686343,1.0,0.0,0.0,0.0,1.0,0.0,0.0,0.0,1.0,-0.146504953504,-0.00926508195698,0.0675326883793,1.21846967915e-07,0.0,0.0,0.0,1.21846967915e-07,0.0,0.0,0.0,1.21846967915e-07,0.6668522,0.51975245,8.7867584,9e-08,0.0,0.0,0.0,9e-08,0.0,0.0,0.0,9e-08
1531944118881165728,1430,1531944118880892643,base_link,-0.0124264076326,-0.0201406664254,-0.998664946151,-0.0459158281875,1.0,0.0,0.0,0.0,1.0,0.0,0.0,0.0,1.0,-0.337821543217,-0.0700803175569,0.0195820126683,1.21846967915e-07,0.0,0.0,0.0,1.21846967915e-07,0.0,0.0,0.0,1.21846967915e-07,0.85317855,0.28439285,9.5909037,9e-08,0.0,0.0,0.0,9e-08,0.0,0.0,0.0,9e-08
1531944119209250330,1431,1531944119209036604,base_link,-0.00400973933435,0.00105543657592,-0.998658296518,-0.0516179701196,1.0,0.0,0.0,0.0,1.0,0.0,0.0,0.0,1.0,0.0279704928398,0.084694750607,-0.0428136922419,1.21846967915e-07,0.0,0.0,0.0,1.21846967915e-07,0.0,0.0,0.0,1.21846967915e-07,0.7256921,0.10787315,8.4925589,9e-08,0.0,0.0,0.0,9e-08,0.0,0.0,0.0,9e-08
1531944119622890506,1432,1531944119622446190,base_link,-0.00796319036838,-0.00824811927111,-0.997962636185,-0.0627625119441,1.0,0.0,0.0,0.0,1.0,0.0,0.0,0.0,1.0,0.0262791067362,0.0632130131125,0.0167198069394,1.21846967915e-07,0.0,0.0,0.0,1.21846967915e-07,0.0,0.0,0.0,1.21846967915e-07,0.6864655,0.0392266,8.825985,9e-08,0.0,0.0,0.0,9e-08,0.0,0.0,0.0,9e-08
1531944119969910193,1433,1531944119969539093,base_link,0.0125503989761,-0.026357068751,-0.998567393258,-0.0448436565598,1.0,0.0,0.0,0.0,1.0,0.0,0.0,0.0,1.0,0.125876739621,0.166673272848,0.128786757588,1.21846967915e-07,0.0,0.0,0.0,1.21846967915e-07,0.0,0.0,0.0,1.21846967915e-07,0.7256921,0.06864655,9.0025047,9e-08,0.0,0.0,0.0,9e-08,0.0,0.0,0.0,9e-08
