%time,field.header.seq,field.header.stamp,field.header.frame_id,field.orientation.x,field.orientation.y,field.orientation.z,field.orientation.w,field.orientation_covariance0,field.orientation_covariance1,field.orientation_covariance2,field.orientation_covariance3,field.orientation_covariance4,field.orientation_covariance5,field.orientation_covariance6,field.orientation_covariance7,field.orientation_covariance8,field.angular_velocity.x,field.angular_velocity.y,field.angular_velocity.z,field.angular_velocity_covariance0,field.angular_velocity_covariance1,field.angular_velocity_covariance2,field.angular_velocity_covariance3,field.angular_velocity_covariance4,field.angular_velocity_covariance5,field.angular_velocity_covariance6,field.angular_velocity_covariance7,field.angular_velocity_covariance8,field.linear_acceleration.x,field.linear_acceleration.y,field.linear_acceleration.z,field.linear_acceleration_covariance0,field.linear_acceleration_covariance1,field.linear_acceleration_covariance2,field.linear_acceleration_covariance3,field.linear_acceleration_covariance4,field.linear_acceleration_covariance5,field.linear_acceleration_covariance6,field.linear_acceleration_covariance7,field.linear_acceleration_covariance8
1536693177434575608,1442,1536693177434264568,base_link,-0.0226772962511,-0.298297249028,-0.949192705994,-0.0976611404083,1.0,0.0,0.0,0.0,1.0,0.0,0.0,0.0,1.0,0.395058333874,-0.0487973839045,-0.201718628407,1.21846967915e-07,0.0,0.0,0.0,1.21846967915e-07,0.0,0.0,0.0,1.21846967915e-07,-1.0198916,0.79433865,9.2378643,9e-08,0.0,0.0,0.0,9e-08,0.0,0.0,0.0,9e-08
1536693177785239960,1443,1536693177783915640,base_link,-0.0315869199586,-0.330694033243,-0.932437975701,-0.142137765337,1.0,0.0,0.0,0.0,1.0,0.0,0.0,0.0,1.0,0.0849245265126,-0.213386580348,-0.253936946392,1.21846967915e-07,0.0,0.0,0.0,1.21846967915e-07,0.0,0.0,0.0,1.21846967915e-07,-0.6668522,0.89240515,9.87529655,9e-08,0.0,0.0,0.0,9e-08,0.0,0.0,0.0,9e-08
1536693178174368504,1444,1536693178173348856,base_link,-0.0573434949199,-0.327665641415,-0.921718270536,-0.199455209976,1.0,0.0,0.0,0.0,1.0,0.0,0.0,0.0,1.0,-0.0194128975272,-0.202027142048,-0.211305513978,1.21846967915e-07,0.0,0.0,0.0,1.21846967915e-07,0.0,0.0,0.0,1.21846967915e-07,-0.0588399,0.95124505,12.85651815,9e-08,0.0,0.0,0.0,9e-08,0.0,0.0,0.0,9e-08
1536693178554358680,1445,1536693178547652952,base_link,-0.0690155603821,-0.30786874241,-0.916832027355,-0.24468903426,1.0,0.0,0.0,0.0,1.0,0.0,0.0,0.0,1.0,-0.229741290212,-0.135627403855,-0.229811161757,1.21846967915e-07,0.0,0.0,0.0,1.21846967915e-07,0.0,0.0,0.0,1.21846967915e-07,-0.04903325,1.176798,11.83662655,9e-08,0.0,0.0,0.0,9e-08,0.0,0.0,0.0,9e-08
1536693179049579352,1446,1536693179049098552,base_link,-0.066969240442,-0.250158271988,-0.910014519955,-0.323743004961,1.0,0.0,0.0,0.0,1.0,0.0,0.0,0.0,1.0,-0.326036453247,-0.121277950704,-0.251289397478,1.21846967915e-07,0.0,0.0,0.0,1.21846967915e-07,0.0,0.0,0.0,1.21846967915e-07,-0.22555295,0.8825985,10.4146623,9e-08,0.0,0.0,0.0,9e-08,0.0,0.0,0.0,9e-08
1536693179375761880,1447,1536693179375348792,base_link,-0.0683063700461,-0.203848479636,-0.906890910485,-0.36239331346,1.0,0.0,0.0,0.0,1.0,0.0,0.0,0.0,1.0,-0.285657554865,-0.196664974093,-0.148845985532,1.21846967915e-07,0.0,0.0,0.0,1.21846967915e-07,0.0,0.0,0.0,1.21846967915e-07,-0.26477955,0.63743225,11.77778665,9e-08,0.0,0.0,0.0,9e-08,0.0,0.0,0.0,9e-08
1536693179716544088,1448,1536693179716267896,base_link,-0.0684127252631,-0.139685386343,-0.907449797983,-0.390310845359,1.0,0.0,0.0,0.0,1.0,0.0,0.0,0.0,1.0,-0.358458161354,-0.149407938123,-0.108034104109,1.21846967915e-07,0.0,0.0,0.0,1.21846967915e-07,0.0,0.0,0.0,1.21846967915e-07,-0.22555295,0.8433719,12.36618565,9e-08,0.0,0.0,0.0,9e-08,0.0,0.0,0.0,9e-08
1536693180105810296,1449,1536693180105538648,base_link,-0.0450790217947,-0.074919403208,-0.907020932333,-0.411907748322,1.0,0.0,0.0,0.0,1.0,0.0,0.0,0.0,1.0,-0.319884806871,0.0180189181119,-0.0529407337308,1.21846967915e-07,0.0,0.0,0.0,1.21846967915e-07,0.0,0.0,0.0,1.21846967915e-07,-0.36284605,0.6864655,9.5712904,9e-08,0.0,0.0,0.0,9e-08,0.0,0.0,0.0,9e-08
1536693180376527288,1450,1536693180374128568,base_link,-0.0310667876115,-0.0424533169807,-0.906027839077,-0.419935858677,1.0,0.0,0.0,0.0,1.0,0.0,0.0,0.0,1.0,-0.197747781873,-0.0171826072037,-0.0419255718589,1.21846967915e-07,0.0,0.0,0.0,1.21846967915e-07,0.0,0.0,0.0,1.21846967915e-07,-0.40207265,0.50013915,9.7674234,9e-08,0.0,0.0,0.0,9e-08,0.0,0.0,0.0,9e-08
1536693180853533272,1451,1536693180853299832,base_link,-0.0072850633231,-0.00134418127531,-0.90678582268,-0.421526503099,1.0,0.0,0.0,0.0,1.0,0.0,0.0,0.0,1.0,-0.0979459956288,0.0454072207212,0.0174088831991,1.21846967915e-07,0.0,0.0,0.0,1.21846967915e-07,0.0,0.0,0.0,1.21846967915e-07,-0.46091255,0.53936575,8.7475318,9e-08,0.0,0.0,0.0,9e-08,0.0,0.0,0.0,9e-08
1536693181186937848,1452,1536693181186615000,base_link,0.00693018210493,0.0108076837853,-0.907370679464,-0.420135236081,1.0,0.0,0.0,0.0,1.0,0.0,0.0,0.0,1.0,-0.00790520850569,0.106535539031,0.0146591952071,1.21846967915e-07,0.0,0.0,0.0,1.21846967915e-07,0.0,0.0,0.0,1.21846967915e-07,-0.2941995,0.4314926,9.4339973,9e-08,0.0,0.0,0.0,9e-08,0.0,0.0,0.0,9e-08
1536693181541822552,1453,1536693181540295352,base_link,0.0258268064877,0.00612891522986,-0.909263182488,-0.415374382259,1.0,0.0,0.0,0.0,1.0,0.0,0.0,0.0,1.0,0.0105065125972,0.0813435092568,0.0401398539543,1.21846967915e-07,0.0,0.0,0.0,1.21846967915e-07,0.0,0.0,0.0,1.21846967915e-07,-0.4314926,0.44129925,8.6102387,9e-08,0.0,0.0,0.0,9e-08,0.0,0.0,0.0,9e-08
1536693181794475800,1454,1536693181793945144,base_link,0.0255236155273,-0.0108475063731,-0.910878831667,-0.411740975222,1.0,0.0,0.0,0.0,1.0,0.0,0.0,0.0,1.0,0.138480275869,0.06477445364,0.034367211163,1.21846967915e-07,0.0,0.0,0.0,1.21846967915e-07,0.0,0.0,0.0,1.21846967915e-07,-0.392266,0.46091255,9.11037785,9e-08,0.0,0.0,0.0,9e-08,0.0,0.0,0.0,9e-08
1536693182218045624,1455,1536693182216143576,base_link,0.0184894510433,-0.0456234602866,-0.912502286537,-0.406098777562,1.0,0.0,0.0,0.0,1.0,0.0,0.0,0.0,1.0,0.227268338203,-0.013353719376,0.0377219691873,1.21846967915e-07,0.0,0.0,0.0,1.21846967915e-07,0.0,0.0,0.0,1.21846967915e-07,-0.34323275,0.42168595,9.80665,9e-08,0.0,0.0,0.0,9e-08,0.0,0.0,0.0,9e-08
1536693182602172088,1456,1536693182601323096,base_link,0.00482935494441,-0.0863568155585,-0.910730770582,-0.403842347027,1.0,0.0,0.0,0.0,1.0,0.0,0.0,0.0,1.0,0.273558944464,0.03793958202,-0.0185007750988,1.21846967915e-07,0.0,0.0,0.0,1.21846967915e-07,0.0,0.0,0.0,1.21846967915e-07,-0.36284605,0.63743225,9.7281968,9e-08,0.0,0.0,0.0,9e-08,0.0,0.0,0.0,9e-08
1536693183007815480,1457,1536693183006728504,base_link,-0.0170960112174,-0.137438529816,-0.902154918126,-0.408576652079,1.0,0.0,0.0,0.0,1.0,0.0,0.0,0.0,1.0,0.344722658396,0.0155996689573,-0.0242299269885,1.21846967915e-07,0.0,0.0,0.0,1.21846967915e-07,0.0,0.0,0.0,1.21846967915e-07,-0.38245935,0.61781895,9.8851032,9e-08,0.0,0.0,0.0,9e-08,0.0,0.0,0.0,9e-08
1536693183490760664,1458,1536693183490369272,base_link,-0.0376039034949,-0.19842450379,-0.879034676982,-0.431870002895,1.0,0.0,0.0,0.0,1.0,0.0,0.0,0.0,1.0,0.11466190964,-0.0301223229617,-0.204066768289,1.21846967915e-07,0.0,0.0,0.0,1.21846967915e-07,0.0,0.0,0.0,1.21846967915e-07,-0.4314926,0.8825985,9.8654899,9e-08,0.0,0.0,0.0,9e-08,0.0,0.0,0.0,9e-08
1536693183719523832,1459,1536693183719187288,base_link,-0.0408980854281,-0.205215216389,-0.866121472307,-0.453924725895,1.0,0.0,0.0,0.0,1.0,0.0,0.0,0.0,1.0,0.106477692723,-0.00719213299453,-0.232582256198,1.21846967915e-07,0.0,0.0,0.0,1.21846967915e-07,0.0,0.0,0.0,1.21846967915e-07,-0.26477955,0.8433719,10.591182,9e-08,0.0,0.0,0.0,9e-08,0.0,0.0,0.0,9e-08
1536693184087404888,1460,1536693184081465752,base_link,-0.0701422934821,-0.224082976211,-0.838717347449,-0.491345183679,1.0,0.0,0.0,0.0,1.0,0.0,0.0,0.0,1.0,0.137813985348,-0.146844133735,-0.159841582179,1.21846967915e-07,0.0,0.0,0.0,1.21846967915e-07,0.0,0.0,0.0,1.21846967915e-07,-0.10787315,0.5491724,11.7287534,9e-08,0.0,0.0,0.0,9e-08,0.0,0.0,0.0,9e-08
1536693184531623352,1461,1536693184531144024,base_link,-0.102847644728,-0.225122238353,-0.816000060681,-0.522385145981,1.0,0.0,0.0,0.0,1.0,0.0,0.0,0.0,1.0,0.0637983158231,-0.222613096237,-0.172196298838,1.21846967915e-07,0.0,0.0,0.0,1.21846967915e-07,0.0,0.0,0.0,1.21846967915e-07,-0.1372931,0.97085835,11.8856598,9e-08,0.0,0.0,0.0,9e-08,0.0,0.0,0.0,9e-08
1536693184820434648,1462,1536693184819158776,base_link,-0.118235943792,-0.214470220503,-0.796116958252,-0.553372004078,1.0,0.0,0.0,0.0,1.0,0.0,0.0,0.0,1.0,-0.0901102647185,-0.219719991088,-0.227277129889,1.21846967915e-07,0.0,0.0,0.0,1.21846967915e-07,0.0,0.0,0.0,1.21846967915e-07,-0.0980665,1.02969825,11.5522337,9e-08,0.0,0.0,0.0,9e-08,0.0,0.0,0.0,9e-08
1536693185273543672,1463,1536693185273265400,base_link,-0.115060775422,-0.180354095376,-0.764438044646,-0.608167652986,1.0,0.0,0.0,0.0,1.0,0.0,0.0,0.0,1.0,-0.0766522139311,-0.129721984267,-0.269959032536,1.21846967915e-07,0.0,0.0,0.0,1.21846967915e-07,0.0,0.0,0.0,1.21846967915e-07,-0.08825985,0.77472535,11.56204035,9e-08,0.0,0.0,0.0,9e-08,0.0,0.0,0.0,9e-08
1536693185686652376,1464,1536693185686185048,base_link,-0.10528930109,-0.137883821417,-0.740935062652,-0.648781510064,1.0,0.0,0.0,0.0,1.0,0.0,0.0,0.0,1.0,-0.18427759409,-0.0907360464334,-0.144893556833,1.21846967915e-07,0.0,0.0,0.0,1.21846967915e-07,0.0,0.0,0.0,1.21846967915e-07,-0.12748645,0.63743225,11.6895268,9e-08,0.0,0.0,0.0,9e-08,0.0,0.0,0.0,9e-08
1536693185997574360,1465,1536693185992417048,base_link,-0.102543566051,-0.112538985356,-0.730015549911,-0.666256024907,1.0,0.0,0.0,0.0,1.0,0.0,0.0,0.0,1.0,-0.164568856359,-0.135573014617,-0.0971452221274,1.21846967915e-07,0.0,0.0,0.0,1.21846967915e-07,0.0,0.0,0.0,1.21846967915e-07,-0.0980665,0.87279185,11.50320045,9e-08,0.0,0.0,0.0,9e-08,0.0,0.0,0.0,9e-08
1536693186484211192,1466,1536693186482339224,base_link,-0.0829237952723,-0.0789110274897,-0.716501374316,-0.688129693097,1.0,0.0,0.0,0.0,1.0,0.0,0.0,0.0,1.0,-0.00708731031045,-0.0356888361275,-0.101614072919,1.21846967915e-07,0.0,0.0,0.0,1.21846967915e-07,0.0,0.0,0.0,1.21846967915e-07,-0.14709975,0.6080123,9.7085835,9e-08,0.0,0.0,0.0,9e-08,0.0,0.0,0.0,9e-08
1536693186870457528,1467,1536693186870183960,base_link,-0.087553236523,-0.080503365862,-0.705302312129,-0.698857844891,1.0,0.0,0.0,0.0,1.0,0.0,0.0,0.0,1.0,0.01692231372,0.050576902926,-0.0542902611196,1.21846967915e-07,0.0,0.0,0.0,1.21846967915e-07,0.0,0.0,0.0,1.21846967915e-07,-0.08825985,0.588399,9.60071035,9e-08,0.0,0.0,0.0,9e-08,0.0,0.0,0.0,9e-08
1536693187225214296,1468,1536693187224802840,base_link,-0.0953996260753,-0.0816675638062,-0.696787755646,-0.70619837436,1.0,0.0,0.0,0.0,1.0,0.0,0.0,0.0,1.0,0.0820046514273,-0.0605373904109,-0.0747102573514,1.21846967915e-07,0.0,0.0,0.0,1.21846967915e-07,0.0,0.0,0.0,1.21846967915e-07,-0.16671305,0.6864655,9.85568325,9e-08,0.0,0.0,0.0,9e-08,0.0,0.0,0.0,9e-08
1536693187536904024,1469,1536693187536721464,base_link,-0.104095987002,-0.0932817208573,-0.685768967139,-0.714271285825,1.0,0.0,0.0,0.0,1.0,0.0,0.0,0.0,1.0,0.136082977057,-0.0119811529294,-0.110741190612,1.21846967915e-07,0.0,0.0,0.0,1.21846967915e-07,0.0,0.0,0.0,1.21846967915e-07,0.0,0.7649187,9.40457735,9e-08,0.0,0.0,0.0,9e-08,0.0,0.0,0.0,9e-08
1536693187974346232,1470,1536693187974057848,base_link,-0.128680952488,-0.12116454235,-0.658385656973,-0.731634261661,1.0,0.0,0.0,0.0,1.0,0.0,0.0,0.0,1.0,0.160354271531,-0.0117892678827,-0.14944639802,1.21846967915e-07,0.0,0.0,0.0,1.21846967915e-07,0.0,0.0,0.0,1.21846967915e-07,-0.02941995,0.8041453,9.4339973,9e-08,0.0,0.0,0.0,9e-08,0.0,0.0,0.0,9e-08
1536693188431506520,1471,1536693188431238616,base_link,-0.1654245164,-0.143737197654,-0.622369441912,-0.751419074258,1.0,0.0,0.0,0.0,1.0,0.0,0.0,0.0,1.0,0.173923522234,-0.0975234806538,-0.165265768766,1.21846967915e-07,0.0,0.0,0.0,1.21846967915e-07,0.0,0.0,0.0,1.21846967915e-07,0.0784532,0.79433865,10.002783,9e-08,0.0,0.0,0.0,9e-08,0.0,0.0,0.0,9e-08
1536693188804843800,1472,1536693188804573432,base_link,-0.187109927359,-0.146975032692,-0.590999206267,-0.770784115717,1.0,0.0,0.0,0.0,1.0,0.0,0.0,0.0,1.0,0.0697141215205,-0.114575631917,-0.202972769737,1.21846967915e-07,0.0,0.0,0.0,1.21846967915e-07,0.0,0.0,0.0,1.21846967915e-07,0.12748645,0.93163175,10.5519554,9e-08,0.0,0.0,0.0,9e-08,0.0,0.0,0.0,9e-08
1536693189118753880,1473,1536693189118401464,base_link,-0.201155046668,-0.150550712404,-0.559516004174,-0.789818315354,1.0,0.0,0.0,0.0,1.0,0.0,0.0,0.0,1.0,0.0895896553993,-0.0593930892646,-0.231769636273,1.21846967915e-07,0.0,0.0,0.0,1.21846967915e-07,0.0,0.0,0.0,1.21846967915e-07,0.196133,0.8825985,10.3362091,9e-08,0.0,0.0,0.0,9e-08,0.0,0.0,0.0,9e-08
1536693189582791800,1474,1536693189582517464,base_link,-0.217963103956,-0.14227074494,-0.505109874334,-0.82287005979,1.0,0.0,0.0,0.0,1.0,0.0,0.0,0.0,1.0,-0.0250093862414,-0.151067212224,-0.227668881416,1.21846967915e-07,0.0,0.0,0.0,1.21846967915e-07,0.0,0.0,0.0,1.21846967915e-07,0.22555295,0.8237586,9.89490985,9e-08,0.0,0.0,0.0,9e-08,0.0,0.0,0.0,9e-08
1536693189974586552,1475,1536693189974273144,base_link,-0.233321340913,-0.125683040423,-0.46333175828,-0.845629119055,1.0,0.0,0.0,0.0,1.0,0.0,0.0,0.0,1.0,0.0211388524622,-0.189098492265,-0.190224587917,1.21846967915e-07,0.0,0.0,0.0,1.21846967915e-07,0.0,0.0,0.0,1.21846967915e-07,0.5099458,1.08853815,11.81701325,9e-08,0.0,0.0,0.0,9e-08,0.0,0.0,0.0,9e-08
1536693190378999160,1476,1536693190376937560,base_link,-0.246351331406,-0.106472145587,-0.415451683641,-0.869122892512,1.0,0.0,0.0,0.0,1.0,0.0,0.0,0.0,1.0,-0.0196224134415,-0.169487595558,-0.238502785563,1.21846967915e-07,0.0,0.0,0.0,1.21846967915e-07,0.0,0.0,0.0,1.21846967915e-07,0.6080123,1.2552512,11.4149406,9e-08,0.0,0.0,0.0,9e-08,0.0,0.0,0.0,9e-08
1536693190813146424,1477,1536693190812337624,base_link,-0.252906917058,-0.0896334474139,-0.359359657974,-0.893792242431,1.0,0.0,0.0,0.0,1.0,0.0,0.0,0.0,1.0,0.011854596436,-0.205772712827,-0.251401692629,1.21846967915e-07,0.0,0.0,0.0,1.21846967915e-07,0.0,0.0,0.0,1.21846967915e-07,0.6472389,1.14737805,10.83634825,9e-08,0.0,0.0,0.0,9e-08,0.0,0.0,0.0,9e-08
1536693191018420824,1478,1536693191018122904,base_link,-0.258407927078,-0.0735823660467,-0.328087939303,-0.905631979732,1.0,0.0,0.0,0.0,1.0,0.0,0.0,0.0,1.0,-0.00682740472257,-0.254407644272,-0.237473234534,1.21846967915e-07,0.0,0.0,0.0,1.21846967915e-07,0.0,0.0,0.0,1.21846967915e-07,0.8237586,1.0983448,11.99353295,9e-08,0.0,0.0,0.0,9e-08,0.0,0.0,0.0,9e-08
1536693191383316920,1479,1536693191383094712,base_link,-0.277777545818,-0.0407937868014,-0.278510565718,-0.918481010572,1.0,0.0,0.0,0.0,1.0,0.0,0.0,0.0,1.0,0.0454099550843,-0.285708516836,-0.198472127318,1.21846967915e-07,0.0,0.0,0.0,1.21846967915e-07,0.0,0.0,0.0,1.21846967915e-07,0.9414384,1.14737805,12.87613145,9e-08,0.0,0.0,0.0,9e-08,0.0,0.0,0.0,9e-08
1536693191754623256,1480,1536693191754397688,base_link,-0.293755685317,-0.0110483667536,-0.232755699651,-0.927043858302,1.0,0.0,0.0,0.0,1.0,0.0,0.0,0.0,1.0,-0.0418483801186,-0.213517338037,-0.212655186653,1.21846967915e-07,0.0,0.0,0.0,1.21846967915e-07,0.0,0.0,0.0,1.21846967915e-07,1.04931155,1.4709975,12.93497135,9e-08,0.0,0.0,0.0,9e-08,0.0,0.0,0.0,9e-08
1536693192085384728,1481,1536693192085015512,base_link,-0.268602837563,0.0140430756811,-0.179601652455,-0.946255015371,1.0,0.0,0.0,0.0,1.0,0.0,0.0,0.0,1.0,-0.23330527544,-0.128128960729,-0.279448479414,1.21846967915e-07,0.0,0.0,0.0,1.21846967915e-07,0.0,0.0,0.0,1.21846967915e-07,1.08853815,1.5102241,12.60154525,9e-08,0.0,0.0,0.0,9e-08,0.0,0.0,0.0,9e-08
1536693192462527064,1482,1536693192462312472,base_link,-0.22910251504,0.0245902541756,-0.123890975937,-0.965172721891,1.0,0.0,0.0,0.0,1.0,0.0,0.0,0.0,1.0,-0.376156061888,-0.0527969412506,-0.242938235402,1.21846967915e-07,0.0,0.0,0.0,1.21846967915e-07,0.0,0.0,0.0,1.21846967915e-07,0.7649187,1.26505785,10.8069283,9e-08,0.0,0.0,0.0,9e-08,0.0,0.0,0.0,9e-08
1536693192974210296,1483,1536693192973469240,base_link,-0.146632612298,0.0358786971715,-0.0652327071159,-0.98638546726,1.0,0.0,0.0,0.0,1.0,0.0,0.0,0.0,1.0,-0.28874361515,-0.0442234128714,-0.146192744374,1.21846967915e-07,0.0,0.0,0.0,1.21846967915e-07,0.0,0.0,0.0,1.21846967915e-07,0.6080123,0.71588545,9.97336305,9e-08,0.0,0.0,0.0,9e-08,0.0,0.0,0.0,9e-08
1536693193289648088,1484,1536693193289384056,base_link,-0.100663452073,0.0410656263337,-0.0446616094058,-0.993068892069,1.0,0.0,0.0,0.0,1.0,0.0,0.0,0.0,1.0,-0.297189682722,-0.0102928606793,-0.109747491777,1.21846967915e-07,0.0,0.0,0.0,1.21846967915e-07,0.0,0.0,0.0,1.21846967915e-07,0.46091255,0.8237586,10.01258965,9e-08,0.0,0.0,0.0,9e-08,0.0,0.0,0.0,9e-08
1536693193773448824,1485,1536693193772993560,base_link,-0.0428344706758,0.0461307433146,-0.0247344744392,-0.997710062301,1.0,0.0,0.0,0.0,1.0,0.0,0.0,0.0,1.0,-0.0843081697822,0.029595406726,-0.0341409482062,1.21846967915e-07,0.0,0.0,0.0,1.21846967915e-07,0.0,0.0,0.0,1.21846967915e-07,0.50013915,0.48052585,10.13026945,9e-08,0.0,0.0,0.0,9e-08,0.0,0.0,0.0,9e-08
1536693194231538328,1486,1536693194226522360,base_link,-0.0258322033632,0.0368680342558,-0.0328295975108,-0.998446624936,1.0,0.0,0.0,0.0,1.0,0.0,0.0,0.0,1.0,-0.0762095302343,0.0671908780932,0.053996168077,1.21846967915e-07,0.0,0.0,0.0,1.21846967915e-07,0.0,0.0,0.0,1.21846967915e-07,0.4707192,0.77472535,8.89463155,9e-08,0.0,0.0,0.0,9e-08,0.0,0.0,0.0,9e-08
1536693194594793976,1487,1536693194590091864,base_link,-0.0126520278134,0.0236518354094,-0.0357659528041,-0.999000156904,1.0,0.0,0.0,0.0,1.0,0.0,0.0,0.0,1.0,-0.0103718405589,0.0305602625012,-0.0163489170372,1.21846967915e-07,0.0,0.0,0.0,1.21846967915e-07,0.0,0.0,0.0,1.21846967915e-07,0.42168595,0.7453054,9.5712904,9e-08,0.0,0.0,0.0,9e-08,0.0,0.0,0.0,9e-08
1536693195017970264,1488,1536693195016877784,base_link,-0.0144727544637,0.0154168259194,-0.0363759128921,-0.999114434796,1.0,0.0,0.0,0.0,1.0,0.0,0.0,0.0,1.0,-0.0328882485628,0.0586375370622,0.0328843593597,1.21846967915e-07,0.0,0.0,0.0,1.21846967915e-07,0.0,0.0,0.0,1.21846967915e-07,0.3138128,0.4707192,8.5317855,9e-08,0.0,0.0,0.0,9e-08,0.0,0.0,0.0,9e-08
1536693195379847832,1489,1536693195376148280,base_link,-0.010265219385,0.00824256779847,-0.0455675694592,-0.998874507614,1.0,0.0,0.0,0.0,1.0,0.0,0.0,0.0,1.0,-0.0711370334029,-0.00881902314723,0.067508853972,1.21846967915e-07,0.0,0.0,0.0,1.21846967915e-07,0.0,0.0,0.0,1.21846967915e-07,0.53936575,0.5687857,9.5124505,9e-08,0.0,0.0,0.0,9e-08,0.0,0.0,0.0,9e-08
1536693195675123704,1490,1536693195674773272,base_link,-0.0045007055949,0.00416493677561,-0.0562563283463,-0.998397527276,1.0,0.0,0.0,0.0,1.0,0.0,0.0,0.0,1.0,0.00802683643997,0.0693643838167,0.0545498616993,1.21846967915e-07,0.0,0.0,0.0,1.21846967915e-07,0.0,0.0,0.0,1.21846967915e-07,0.5099458,0.69627215,8.8063717,9e-08,0.0,0.0,0.0,9e-08,0.0,0.0,0.0,9e-08
1536693196079221208,1491,1536693196079004216,base_link,-0.0137395736517,4.3268714431e-05,-0.0622629193946,-0.997965205361,1.0,0.0,0.0,0.0,1.0,0.0,0.0,0.0,1.0,0.084579192102,-0.00307106319815,0.0182217657566,1.21846967915e-07,0.0,0.0,0.0,1.21846967915e-07,0.0,0.0,0.0,1.21846967915e-07,0.61781895,0.7256921,9.7478101,9e-08,0.0,0.0,0.0,9e-08,0.0,0.0,0.0,9e-08
1536693196604363928,1492,1536693196604114584,base_link,-0.0233019430871,-0.00485844180304,-0.0693893973114,-0.997305633461,1.0,0.0,0.0,0.0,1.0,0.0,0.0,0.0,1.0,0.0405162349343,0.0284721627831,0.0257785040885,1.21846967915e-07,0.0,0.0,0.0,1.21846967915e-07,0.0,0.0,0.0,1.21846967915e-07,0.5687857,0.69627215,9.3751574,9e-08,0.0,0.0,0.0,9e-08,0.0,0.0,0.0,9e-08
1536693196951176984,1493,1536693196950858808,base_link,-0.0321823130629,-0.0040469078081,-0.0722043592522,-0.996862303314,1.0,0.0,0.0,0.0,1.0,0.0,0.0,0.0,1.0,0.0608743652701,-0.0397220663726,0.010019200854,1.21846967915e-07,0.0,0.0,0.0,1.21846967915e-07,0.0,0.0,0.0,1.21846967915e-07,0.5491724,0.73549875,9.93413645,9e-08,0.0,0.0,0.0,9e-08,0.0,0.0,0.0,9e-08
1536693197333387768,1494,1536693197333085784,base_link,-0.0421296797078,-0.00387313776545,-0.0750696876696,-0.996280397722,1.0,0.0,0.0,0.0,1.0,0.0,0.0,0.0,1.0,0.0683394223452,0.036529649049,0.0110431173816,1.21846967915e-07,0.0,0.0,0.0,1.21846967915e-07,0.0,0.0,0.0,1.21846967915e-07,0.4511059,0.63743225,9.62032365,9e-08,0.0,0.0,0.0,9e-08,0.0,0.0,0.0,9e-08
1536693197640840408,1495,1536693197640344312,base_link,-0.0548845510164,-0.00215243853838,-0.0782044026458,-0.995423088177,1.0,0.0,0.0,0.0,1.0,0.0,0.0,0.0,1.0,0.0980517491698,-0.0422401316464,0.0241843909025,1.21846967915e-07,0.0,0.0,0.0,1.21846967915e-07,0.0,0.0,0.0,1.21846967915e-07,0.57859235,0.6668522,10.16949605,9e-08,0.0,0.0,0.0,9e-08,0.0,0.0,0.0,9e-08
1536693198022163736,1496,1536693198021868664,base_link,-0.06494008034,0.00416063928442,-0.0835236279669,-0.994378840592,1.0,0.0,0.0,0.0,1.0,0.0,0.0,0.0,1.0,-0.00642974860966,-0.0476441979408,0.0354141257703,1.21846967915e-07,0.0,0.0,0.0,1.21846967915e-07,0.0,0.0,0.0,1.21846967915e-07,0.7060788,0.87279185,10.2381426,9e-08,0.0,0.0,0.0,9e-08,0.0,0.0,0.0,9e-08
1536693198392174200,1497,1536693198391688728,base_link,-0.0624111462226,0.0216958739857,-0.0855297944325,-0.994142239392,1.0,0.0,0.0,0.0,1.0,0.0,0.0,0.0,1.0,-0.0247295051813,-0.056717839092,-0.00282890442759,1.21846967915e-07,0.0,0.0,0.0,1.21846967915e-07,0.0,0.0,0.0,1.21846967915e-07,0.7453054,0.85317855,10.99325465,9e-08,0.0,0.0,0.0,9e-08,0.0,0.0,0.0,9e-08
1536693198696162552,1498,1536693198694522552,base_link,-0.0584279581678,0.0237965332741,-0.0832344255166,-0.994531009631,1.0,0.0,0.0,0.0,1.0,0.0,0.0,0.0,1.0,-0.00474824989215,-0.0171436816454,-0.0183646008372,1.21846967915e-07,0.0,0.0,0.0,1.21846967915e-07,0.0,0.0,0.0,1.21846967915e-07,0.67665885,0.81395195,10.3362091,9e-08,0.0,0.0,0.0,9e-08,0.0,0.0,0.0,9e-08
1536693199177012152,1499,1536693199176670136,base_link,-0.0591715534079,0.0311027491608,-0.0800636036858,-0.994545708164,1.0,0.0,0.0,0.0,1.0,0.0,0.0,0.0,1.0,-0.0115336626768,-0.0326784662902,-0.00138799555134,1.21846967915e-07,0.0,0.0,0.0,1.21846967915e-07,0.0,0.0,0.0,1.21846967915e-07,0.87279185,0.85317855,10.24794925,9e-08,0.0,0.0,0.0,9e-08,0.0,0.0,0.0,9e-08
1536693199630507672,1500,1536693199630148056,base_link,-0.0568826486214,0.0290922610638,-0.0803794355022,-0.994714607805,1.0,0.0,0.0,0.0,1.0,0.0,0.0,0.0,1.0,-0.0155725851655,-0.0177848786116,0.00265428121202,1.21846967915e-07,0.0,0.0,0.0,1.21846967915e-07,0.0,0.0,0.0,1.21846967915e-07,0.7453054,0.7649187,9.9635564,9e-08,0.0,0.0,0.0,9e-08,0.0,0.0,0.0,9e-08
1536693199937866584,1501,1536693199937598136,base_link,-0.0555250718842,0.0334084671258,-0.0800225320655,-0.994684490217,1.0,0.0,0.0,0.0,1.0,0.0,0.0,0.0,1.0,-0.000881512649357,-0.0264226850122,-0.0047077848576,1.21846967915e-07,0.0,0.0,0.0,1.21846967915e-07,0.0,0.0,0.0,1.21846967915e-07,0.81395195,0.8433719,10.1400761,9e-08,0.0,0.0,0.0,9e-08,0.0,0.0,0.0,9e-08
1536693200318302968,1502,1536693200318082840,base_link,-0.0502542622335,0.0309554366293,-0.0800422971848,-0.995042461773,1.0,0.0,0.0,0.0,1.0,0.0,0.0,0.0,1.0,-0.0419486686587,0.0395324528217,-0.00159513286781,1.21846967915e-07,0.0,0.0,0.0,1.21846967915e-07,0.0,0.0,0.0,1.21846967915e-07,0.73549875,0.7453054,9.5320638,9e-08,0.0,0.0,0.0,9e-08,0.0,0.0,0.0,9e-08
1536693200724575704,1503,1536693200724265816,base_link,-0.0520499343225,0.0298576429063,-0.0787118543511,-0.995089829855,1.0,0.0,0.0,0.0,1.0,0.0,0.0,0.0,1.0,0.0443851947784,0.0291799865663,-0.00112224009354,1.21846967915e-07,0.0,0.0,0.0,1.21846967915e-07,0.0,0.0,0.0,1.21846967915e-07,0.8041453,0.73549875,9.7674234,9e-08,0.0,0.0,0.0,9e-08,0.0,0.0,0.0,9e-08
1536693201058977656,1504,1536693201058710264,base_link,-0.0577084298898,0.0264072940244,-0.0802000069491,-0.994756427889,1.0,0.0,0.0,0.0,1.0,0.0,0.0,0.0,1.0,0.0507688336074,0.0334069393575,0.0180318579078,1.21846967915e-07,0.0,0.0,0.0,1.21846967915e-07,0.0,0.0,0.0,1.21846967915e-07,0.8433719,0.87279185,10.46369555,9e-08,0.0,0.0,0.0,9e-08,0.0,0.0,0.0,9e-08
1536693201381290072,1505,1536693201378475544,base_link,-0.0644079317526,0.0238671647131,-0.0783840110283,-0.994554133062,1.0,0.0,0.0,0.0,1.0,0.0,0.0,0.0,1.0,0.0668137893081,-0.015233467333,-0.0477074086666,1.21846967915e-07,0.0,0.0,0.0,1.21846967915e-07,0.0,0.0,0.0,1.21846967915e-07,0.85317855,1.06892485,10.1596894,9e-08,0.0,0.0,0.0,9e-08,0.0,0.0,0.0,9e-08
1536693201772311960,1506,1536693201771905496,base_link,-0.0638621828904,0.0345315637079,-0.0691759676829,-0.994959234441,1.0,0.0,0.0,0.0,1.0,0.0,0.0,0.0,1.0,0.0207187887281,-0.0357341915369,-0.0317913927138,1.21846967915e-07,0.0,0.0,0.0,1.21846967915e-07,0.0,0.0,0.0,1.21846967915e-07,0.93163175,0.89240515,10.89518815,9e-08,0.0,0.0,0.0,9e-08,0.0,0.0,0.0,9e-08
1536693202174390648,1507,1536693202173921176,base_link,-0.0715409580276,0.0358703845371,-0.0617645667796,-0.994877050257,1.0,0.0,0.0,0.0,1.0,0.0,0.0,0.0,1.0,0.0119974575937,0.0305101256818,-0.0278626531363,1.21846967915e-07,0.0,0.0,0.0,1.21846967915e-07,0.0,0.0,0.0,1.21846967915e-07,0.8237586,0.79433865,10.42446895,9e-08,0.0,0.0,0.0,9e-08,0.0,0.0,0.0,9e-08
1536693202598801624,1508,1536693202598438808,base_link,-0.068686505123,0.0320976857988,-0.0573296800307,-0.995472355401,1.0,0.0,0.0,0.0,1.0,0.0,0.0,0.0,1.0,-0.00719498563558,-0.00716303382069,-0.0329212620854,1.21846967915e-07,0.0,0.0,0.0,1.21846967915e-07,0.0,0.0,0.0,1.21846967915e-07,0.75511205,0.83356525,9.4732239,9e-08,0.0,0.0,0.0,9e-08,0.0,0.0,0.0,9e-08
1536693202923508280,1509,1536693202923299192,base_link,-0.0730933423951,0.0354323667738,-0.0532648599368,-0.995271201923,1.0,0.0,0.0,0.0,1.0,0.0,0.0,0.0,1.0,-0.106755308807,-0.0249438788742,-0.039044611156,1.21846967915e-07,0.0,0.0,0.0,1.21846967915e-07,0.0,0.0,0.0,1.21846967915e-07,0.61781895,0.980665,9.610517,9e-08,0.0,0.0,0.0,9e-08,0.0,0.0,0.0,9e-08
1536693203363092248,1510,1536693203362171672,base_link,-0.0751801786069,0.0337464034474,-0.0438258201204,-0.995634681241,1.0,0.0,0.0,0.0,1.0,0.0,0.0,0.0,1.0,-0.036855943501,0.0362621918321,-0.015061698854,1.21846967915e-07,0.0,0.0,0.0,1.21846967915e-07,0.0,0.0,0.0,1.21846967915e-07,0.71588545,0.7453054,9.9831697,9e-08,0.0,0.0,0.0,9e-08,0.0,0.0,0.0,9e-08
1536693203683721176,1511,1536693203683296472,base_link,-0.0624532457238,0.0306274871671,-0.0426718943278,-0.996664767393,1.0,0.0,0.0,0.0,1.0,0.0,0.0,0.0,1.0,-0.0167808458209,0.00302221323363,0.0060468185693,1.21846967915e-07,0.0,0.0,0.0,1.21846967915e-07,0.0,0.0,0.0,1.21846967915e-07,0.67665885,0.5687857,9.8654899,9e-08,0.0,0.0,0.0,9e-08,0.0,0.0,0.0,9e-08
1536693204098651256,1512,1536693204098450296,base_link,-0.0513809648905,0.0305768491776,-0.0454326154707,-0.997176478961,1.0,0.0,0.0,0.0,1.0,0.0,0.0,0.0,1.0,-0.120669007301,0.0318582132459,0.010119702667,1.21846967915e-07,0.0,0.0,0.0,1.21846967915e-07,0.0,0.0,0.0,1.21846967915e-07,0.6668522,0.8041453,9.24767095,9e-08,0.0,0.0,0.0,9e-08,0.0,0.0,0.0,9e-08
1536693204498891960,1513,1536693204498427096,base_link,-0.0310854796654,0.0196070477067,-0.0458613283605,-0.998271503748,1.0,0.0,0.0,0.0,1.0,0.0,0.0,0.0,1.0,-0.0682272687554,0.0726655200124,-0.00113241898362,1.21846967915e-07,0.0,0.0,0.0,1.21846967915e-07,0.0,0.0,0.0,1.21846967915e-07,0.6276256,0.7256921,9.67916355,9e-08,0.0,0.0,0.0,9e-08,0.0,0.0,0.0,9e-08
1536693204904968152,1514,1536693204904408216,base_link,-0.0193692988255,0.0111654258933,-0.0465931429206,-0.998663728469,1.0,0.0,0.0,0.0,1.0,0.0,0.0,0.0,1.0,-0.097544066608,-0.0206313058734,0.0185824260116,1.21846967915e-07,0.0,0.0,0.0,1.21846967915e-07,0.0,0.0,0.0,1.21846967915e-07,0.73549875,0.63743225,9.89490985,9e-08,0.0,0.0,0.0,9e-08,0.0,0.0,0.0,9e-08
1536693205340072536,1515,1536693205339561336,base_link,-0.0176546334134,0.0181396116958,-0.0574976870109,-0.998024691275,1.0,0.0,0.0,0.0,1.0,0.0,0.0,0.0,1.0,0.0653386414051,-0.0289341863245,0.0510356687009,1.21846967915e-07,0.0,0.0,0.0,1.21846967915e-07,0.0,0.0,0.0,1.21846967915e-07,0.87279185,0.69627215,10.1793027,9e-08,0.0,0.0,0.0,9e-08,0.0,0.0,0.0,9e-08
1536693205795375256,1516,1536693205794643544,base_link,-0.0487433210594,0.023989359754,-0.0668073465583,-0.996285791185,1.0,0.0,0.0,0.0,1.0,0.0,0.0,0.0,1.0,-0.0151495989412,-0.0704352557659,0.0349568501115,1.21846967915e-07,0.0,0.0,0.0,1.21846967915e-07,0.0,0.0,0.0,1.21846967915e-07,0.8825985,0.784532,9.83606995,9e-08,0.0,0.0,0.0,9e-08,0.0,0.0,0.0,9e-08
1536693206118462168,1517,1536693206117779608,base_link,-0.0314584384457,0.0378896999031,-0.0706525448155,-0.996284575412,1.0,0.0,0.0,0.0,1.0,0.0,0.0,0.0,1.0,0.0188480596989,-0.0252493787557,0.012972955592,1.21846967915e-07,0.0,0.0,0.0,1.21846967915e-07,0.0,0.0,0.0,1.21846967915e-07,1.22583125,0.63743225,11.2972608,9e-08,0.0,0.0,0.0,9e-08,0.0,0.0,0.0,9e-08
1536693206467831832,1518,1536693206465763736,base_link,-0.062183154651,0.0418694502986,-0.0816674848968,-0.99383631767,1.0,0.0,0.0,0.0,1.0,0.0,0.0,0.0,1.0,0.0402684099972,-0.0294312853366,0.121261626482,1.21846967915e-07,0.0,0.0,0.0,1.21846967915e-07,0.0,0.0,0.0,1.21846967915e-07,1.2160246,0.8433719,11.6699135,9e-08,0.0,0.0,0.0,9e-08,0.0,0.0,0.0,9e-08
1536693206971794936,1519,1536693206971435544,base_link,-0.0603685044488,0.029947567633,-0.09226574523,-0.993451467924,1.0,0.0,0.0,0.0,1.0,0.0,0.0,0.0,1.0,-0.00130205973983,0.110336825252,-0.0832853391767,1.21846967915e-07,0.0,0.0,0.0,1.21846967915e-07,0.0,0.0,0.0,1.21846967915e-07,0.9218251,1.1375714,8.825985,9e-08,0.0,0.0,0.0,9e-08,0.0,0.0,0.0,9e-08
1536693207247479160,1520,1536693207242242200,base_link,-0.0685991025792,0.00683558980389,-0.0770722150274,-0.994639287133,1.0,0.0,0.0,0.0,1.0,0.0,0.0,0.0,1.0,0.112666666508,0.148574277759,-0.121282912791,1.21846967915e-07,0.0,0.0,0.0,1.21846967915e-07,0.0,0.0,0.0,1.21846967915e-07,0.588399,0.6864655,7.5903471,9e-08,0.0,0.0,0.0,9e-08,0.0,0.0,0.0,9e-08
1536693207709541592,1521,1536693207709265720,base_link,-0.092978258713,0.010196437915,-0.0580010991532,-0.993925021597,1.0,0.0,0.0,0.0,1.0,0.0,0.0,0.0,1.0,0.0775965377688,-0.077497549355,-0.0338441506028,1.21846967915e-07,0.0,0.0,0.0,1.21846967915e-07,0.0,0.0,0.0,1.21846967915e-07,0.87279185,0.7060788,9.8851032,9e-08,0.0,0.0,0.0,9e-08,0.0,0.0,0.0,9e-08
1536693208085736728,1522,1536693208085396824,base_link,-0.0661540706217,0.0203531435688,-0.0597603756204,-0.995810266061,1.0,0.0,0.0,0.0,1.0,0.0,0.0,0.0,1.0,-0.200246199965,-0.039377592504,0.0180452223867,1.21846967915e-07,0.0,0.0,0.0,1.21846967915e-07,0.0,0.0,0.0,1.21846967915e-07,0.980665,0.9218251,10.52253545,9e-08,0.0,0.0,0.0,9e-08,0.0,0.0,0.0,9e-08
1536693208513483224,1523,1536693208513028664,base_link,-0.0511785296903,0.0217924288212,-0.056707879324,-0.996840039609,1.0,0.0,0.0,0.0,1.0,0.0,0.0,0.0,1.0,0.0692204087973,-0.0112809175625,-0.0310215726495,1.21846967915e-07,0.0,0.0,0.0,1.21846967915e-07,0.0,0.0,0.0,1.21846967915e-07,0.77472535,0.8237586,10.20872265,9e-08,0.0,0.0,0.0,9e-08,0.0,0.0,0.0,9e-08
1536693208929143480,1524,1536693208928592312,base_link,-0.0594063593015,0.0306185755851,-0.0537566596744,-0.996315014864,1.0,0.0,0.0,0.0,1.0,0.0,0.0,0.0,1.0,0.016231790185,-0.0346147194505,-0.00374198821373,1.21846967915e-07,0.0,0.0,0.0,1.21846967915e-07,0.0,0.0,0.0,1.21846967915e-07,0.87279185,0.77472535,10.4146623,9e-08,0.0,0.0,0.0,9e-08,0.0,0.0,0.0,9e-08
1536693209237558296,1525,1536693209237015992,base_link,-0.0571415953329,0.0325620219818,-0.0517243421952,-0.99649342458,1.0,0.0,0.0,0.0,1.0,0.0,0.0,0.0,1.0,0.00360187608749,0.0167256649584,-0.000966600608081,1.21846967915e-07,0.0,0.0,0.0,1.21846967915e-07,0.0,0.0,0.0,1.21846967915e-07,0.8237586,0.79433865,10.1400761,9e-08,0.0,0.0,0.0,9e-08,0.0,0.0,0.0,9e-08
1536693209684696984,1526,1536693209684198936,base_link,-0.0636255145603,0.0224743814137,-0.0532782535099,-0.99629720655,1.0,0.0,0.0,0.0,1.0,0.0,0.0,0.0,1.0,0.18739593029,-0.0265143439174,0.00855706445873,1.21846967915e-07,0.0,0.0,0.0,1.21846967915e-07,0.0,0.0,0.0,1.21846967915e-07,0.5687857,0.73549875,9.03192465,9e-08,0.0,0.0,0.0,9e-08,0.0,0.0,0.0,9e-08
1536693210032966168,1527,1536693210032422648,base_link,-0.0813673760021,0.0250169126262,-0.0537694567927,-0.994918262834,1.0,0.0,0.0,0.0,1.0,0.0,0.0,0.0,1.0,0.101275630295,-0.0335550047457,-0.00337490602396,1.21846967915e-07,0.0,0.0,0.0,1.21846967915e-07,0.0,0.0,0.0,1.21846967915e-07,0.83356525,0.7453054,9.95374975,9e-08,0.0,0.0,0.0,9e-08,0.0,0.0,0.0,9e-08
1536693210425028568,1528,1536693210424715544,base_link,-0.0694845254876,0.0317037176118,-0.0473695058936,-0.995953264425,1.0,0.0,0.0,0.0,1.0,0.0,0.0,0.0,1.0,-0.105739951134,-0.0143157048151,-0.059023860842,1.21846967915e-07,0.0,0.0,0.0,1.21846967915e-07,0.0,0.0,0.0,1.21846967915e-07,0.8041453,0.89240515,9.71839015,9e-08,0.0,0.0,0.0,9e-08,0.0,0.0,0.0,9e-08
1536693210883432856,1529,1536693210883114008,base_link,-0.0633884863519,0.0418612426533,-0.0373540278366,-0.996410664719,1.0,0.0,0.0,0.0,1.0,0.0,0.0,0.0,1.0,-0.0717702135444,-0.0584682486951,0.0294835846871,1.21846967915e-07,0.0,0.0,0.0,1.21846967915e-07,0.0,0.0,0.0,1.21846967915e-07,0.9022118,0.5491724,10.20872265,9e-08,0.0,0.0,0.0,9e-08,0.0,0.0,0.0,9e-08
1536693211266918360,1530,1536693211266666776,base_link,-0.0431825428861,0.0476253768783,-0.0434161777244,-0.996986522968,1.0,0.0,0.0,0.0,1.0,0.0,0.0,0.0,1.0,-0.0447317995131,-0.000347253051586,0.0225137770176,1.21846967915e-07,0.0,0.0,0.0,1.21846967915e-07,0.0,0.0,0.0,1.21846967915e-07,1.26505785,0.93163175,11.48358715,9e-08,0.0,0.0,0.0,9e-08,0.0,0.0,0.0,9e-08
1536693211653037880,1531,1536693211652503224,base_link,-0.0416758220248,0.0450535664045,-0.0490536322806,-0.996908743654,1.0,0.0,0.0,0.0,1.0,0.0,0.0,0.0,1.0,0.003420046065,0.0289658606052,0.0386774092913,1.21846967915e-07,0.0,0.0,0.0,1.21846967915e-07,0.0,0.0,0.0,1.21846967915e-07,1.08853815,0.9022118,11.38552065,9e-08,0.0,0.0,0.0,9e-08,0.0,0.0,0.0,9e-08
1536693212093824984,1532,1536693212093507256,base_link,-0.0317310415601,0.0304174526007,-0.0533579579886,-0.997607562069,1.0,0.0,0.0,0.0,1.0,0.0,0.0,0.0,1.0,-0.166647717357,0.046923417598,-0.000317795434967,1.21846967915e-07,0.0,0.0,0.0,1.21846967915e-07,0.0,0.0,0.0,1.21846967915e-07,0.81395195,0.9414384,9.9635564,9e-08,0.0,0.0,0.0,9e-08,0.0,0.0,0.0,9e-08
1536693212445166136,1533,1536693212444916280,base_link,-0.0239087390859,0.0203498102513,-0.0498150136801,-0.998264855552,1.0,0.0,0.0,0.0,1.0,0.0,0.0,0.0,1.0,0.0190214458853,0.119373485446,-0.0286492332816,1.21846967915e-07,0.0,0.0,0.0,1.21846967915e-07,0.0,0.0,0.0,1.21846967915e-07,0.8237586,0.9218251,10.07142955,9e-08,0.0,0.0,0.0,9e-08,0.0,0.0,0.0,9e-08
1536693212861541816,1534,1536693212859584728,base_link,-0.0402856304219,0.00372877324676,-0.0406164413934,-0.998355382076,1.0,0.0,0.0,0.0,1.0,0.0,0.0,0.0,1.0,0.1506139189,0.0884735435247,-0.0505221970379,1.21846967915e-07,0.0,0.0,0.0,1.21846967915e-07,0.0,0.0,0.0,1.21846967915e-07,0.59820565,0.588399,8.5906254,9e-08,0.0,0.0,0.0,9e-08,0.0,0.0,0.0,9e-08
1536693213226185272,1535,1536693213225782904,base_link,-0.0626672801825,-0.00381642562264,-0.0372173236781,-0.997333002416,1.0,0.0,0.0,0.0,1.0,0.0,0.0,0.0,1.0,0.0643507167697,0.0568432025611,0.00339411851019,1.21846967915e-07,0.0,0.0,0.0,1.21846967915e-07,0.0,0.0,0.0,1.21846967915e-07,0.69627215,0.6864655,9.44380395,9e-08,0.0,0.0,0.0,9e-08,0.0,0.0,0.0,9e-08
1536693213527578040,1536,1536693213527335448,base_link,-0.0643437842061,-0.00292831307688,-0.0386339058841,-0.997175372606,1.0,0.0,0.0,0.0,1.0,0.0,0.0,0.0,1.0,0.0017124991864,-0.0558281987906,0.0108185838908,1.21846967915e-07,0.0,0.0,0.0,1.21846967915e-07,0.0,0.0,0.0,1.21846967915e-07,0.6080123,0.73549875,9.5320638,9e-08,0.0,0.0,0.0,9e-08,0.0,0.0,0.0,9e-08
1536693213912852856,1537,1536693213911400536,base_link,-0.0540409506003,0.000675664341,-0.0402112190647,-0.997728508662,1.0,0.0,0.0,0.0,1.0,0.0,0.0,0.0,1.0,-0.0964014977217,-0.0157013721764,0.00509529886767,1.21846967915e-07,0.0,0.0,0.0,1.21846967915e-07,0.0,0.0,0.0,1.21846967915e-07,0.8041453,0.8629852,10.2773692,9e-08,0.0,0.0,0.0,9e-08,0.0,0.0,0.0,9e-08
1536693214389886392,1538,1536693214389573848,base_link,-0.068806537924,0.00494596841649,-0.0380567155089,-0.996891611029,1.0,0.0,0.0,0.0,1.0,0.0,0.0,0.0,1.0,0.0362074449658,0.0140911601484,-0.00369633920491,1.21846967915e-07,0.0,0.0,0.0,1.21846967915e-07,0.0,0.0,0.0,1.21846967915e-07,0.51975245,0.51975245,9.8654899,9e-08,0.0,0.0,0.0,9e-08,0.0,0.0,0.0,9e-08
1536693214872262136,1539,1536693214871832088,base_link,-0.0686531421363,-0.00197859679958,-0.0361795966355,-0.996982380996,1.0,0.0,0.0,0.0,1.0,0.0,0.0,0.0,1.0,-0.11010441184,0.0616598576307,-0.143984302878,1.21846967915e-07,0.0,0.0,0.0,1.21846967915e-07,0.0,0.0,0.0,1.21846967915e-07,0.53936575,1.18660465,10.11065615,9e-08,0.0,0.0,0.0,9e-08,0.0,0.0,0.0,9e-08
1536693215231064216,1540,1536693215224398456,base_link,-0.0778576062569,-0.00926308699399,-0.00250507552924,-0.996918308069,1.0,0.0,0.0,0.0,1.0,0.0,0.0,0.0,1.0,0.252578645945,-0.0737473368645,-0.189214706421,1.21846967915e-07,0.0,0.0,0.0,1.21846967915e-07,0.0,0.0,0.0,1.21846967915e-07,0.3530394,0.65704555,9.93413645,9e-08,0.0,0.0,0.0,9e-08,0.0,0.0,0.0,9e-08
1536693215585689208,1541,1536693215585340376,base_link,-0.117327478676,0.00849813154883,0.0120326891627,-0.992984017444,1.0,0.0,0.0,0.0,1.0,0.0,0.0,0.0,1.0,0.0358260348439,-0.0693362876773,0.0201643668115,1.21846967915e-07,0.0,0.0,0.0,1.21846967915e-07,0.0,0.0,0.0,1.21846967915e-07,0.71588545,0.7256921,12.160246,9e-08,0.0,0.0,0.0,9e-08,0.0,0.0,0.0,9e-08
1536693215971035096,1542,1536693215970242360,base_link,-0.128848798746,0.0116815567968,0.0130500629309,-0.99150956836,1.0,0.0,0.0,0.0,1.0,0.0,0.0,0.0,1.0,0.128238305449,0.00977987423539,-0.0946333557367,1.21846967915e-07,0.0,0.0,0.0,1.21846967915e-07,0.0,0.0,0.0,1.21846967915e-07,0.2549729,1.28467115,10.01258965,9e-08,0.0,0.0,0.0,9e-08,0.0,0.0,0.0,9e-08
1536693216422185432,1543,1536693216421871096,base_link,-0.14983989238,0.00406399878533,0.0517809418347,-0.987345038286,1.0,0.0,0.0,0.0,1.0,0.0,0.0,0.0,1.0,0.265044957399,0.0900782942772,-0.180345341563,1.21846967915e-07,0.0,0.0,0.0,1.21846967915e-07,0.0,0.0,0.0,1.21846967915e-07,0.196133,0.61781895,9.67916355,9e-08,0.0,0.0,0.0,9e-08,0.0,0.0,0.0,9e-08
1536693216771758616,1544,1536693216771456024,base_link,-0.191986329915,0.0102902845737,0.0774438229693,-0.97828309474,1.0,0.0,0.0,0.0,1.0,0.0,0.0,0.0,1.0,0.0514232814312,-0.090074673295,-0.126317724586,1.21846967915e-07,0.0,0.0,0.0,1.21846967915e-07,0.0,0.0,0.0,1.21846967915e-07,0.1569064,0.63743225,9.36535075,9e-08,0.0,0.0,0.0,9e-08,0.0,0.0,0.0,9e-08
1536693217224208088,1545,1536693217223970808,base_link,-0.206095112773,0.022760326592,0.104682354895,-0.972650182028,1.0,0.0,0.0,0.0,1.0,0.0,0.0,0.0,1.0,0.24746003747,-0.0613736324012,-0.150736823678,1.21846967915e-07,0.0,0.0,0.0,1.21846967915e-07,0.0,0.0,0.0,1.21846967915e-07,0.34323275,0.71588545,10.2577559,9e-08,0.0,0.0,0.0,9e-08,0.0,0.0,0.0,9e-08
1536693217630631896,1546,1536693217629543384,base_link,-0.231875247325,0.0350113573779,0.139330235022,-0.962078562354,1.0,0.0,0.0,0.0,1.0,0.0,0.0,0.0,1.0,0.0541754551232,-0.109031997621,-0.139970034361,1.21846967915e-07,0.0,0.0,0.0,1.21846967915e-07,0.0,0.0,0.0,1.21846967915e-07,0.30400615,0.588399,9.38496405,9e-08,0.0,0.0,0.0,9e-08,0.0,0.0,0.0,9e-08
1536693217987589048,1547,1536693217987287352,base_link,-0.226780675156,0.0417931058882,0.166144873697,-0.958759481111,1.0,0.0,0.0,0.0,1.0,0.0,0.0,0.0,1.0,-0.0220692157745,-0.0313581861556,-0.193302452564,1.21846967915e-07,0.0,0.0,0.0,1.21846967915e-07,0.0,0.0,0.0,1.21846967915e-07,0.3334261,1.06892485,10.1596894,9e-08,0.0,0.0,0.0,9e-08,0.0,0.0,0.0,9e-08
1536693218417892824,1548,1536693218417690680,base_link,-0.207828857129,0.0212259876399,0.228540965736,-0.950855220617,1.0,0.0,0.0,0.0,1.0,0.0,0.0,0.0,1.0,-0.174821197987,-0.0459849052131,-0.364551752806,1.21846967915e-07,0.0,0.0,0.0,1.21846967915e-07,0.0,0.0,0.0,1.21846967915e-07,0.08825985,0.91201845,7.32556755,9e-08,0.0,0.0,0.0,9e-08,0.0,0.0,0.0,9e-08
1536693218829687384,1549,1536693218829423768,base_link,-0.288400275792,0.063440223545,0.295785405258,-0.908466627343,1.0,0.0,0.0,0.0,1.0,0.0,0.0,0.0,1.0,0.443303257227,-0.279973298311,-0.225178986788,1.21846967915e-07,0.0,0.0,0.0,1.21846967915e-07,0.0,0.0,0.0,1.21846967915e-07,0.6472389,0.44129925,11.93469305,9e-08,0.0,0.0,0.0,9e-08,0.0,0.0,0.0,9e-08
1536693219171210552,1550,1536693219170918712,base_link,-0.27310239402,0.109058584968,0.325257505875,-0.898737371148,1.0,0.0,0.0,0.0,1.0,0.0,0.0,0.0,1.0,-0.20995208621,-0.299215376377,-0.0602554753423,1.21846967915e-07,0.0,0.0,0.0,1.21846967915e-07,0.0,0.0,0.0,1.21846967915e-07,0.83356525,0.980665,11.7875933,9e-08,0.0,0.0,0.0,9e-08,0.0,0.0,0.0,9e-08
1536693219574723160,1551,1536693219574015608,base_link,-0.238024518407,0.120709085249,0.367758202863,-0.890801633139,1.0,0.0,0.0,0.0,1.0,0.0,0.0,0.0,1.0,-0.0649624094367,-0.0938194990158,-0.282946795225,1.21846967915e-07,0.0,0.0,0.0,1.21846967915e-07,0.0,0.0,0.0,1.21846967915e-07,0.65704555,1.12776475,10.591182,9e-08,0.0,0.0,0.0,9e-08,0.0,0.0,0.0,9e-08
1536693219870576152,1552,1536693219870326264,base_link,-0.209340585061,0.119205385429,0.414433489704,-0.877616931322,1.0,0.0,0.0,0.0,1.0,0.0,0.0,0.0,1.0,-0.12950129807,-0.106275737286,-0.316154748201,1.21846967915e-07,0.0,0.0,0.0,1.21846967915e-07,0.0,0.0,0.0,1.21846967915e-07,0.73549875,1.26505785,11.5522337,9e-08,0.0,0.0,0.0,9e-08,0.0,0.0,0.0,9e-08
1536693220285873912,1553,1536693220285572344,base_link,-0.20269310641,0.120880646605,0.479368594669,-0.845286415563,1.0,0.0,0.0,0.0,1.0,0.0,0.0,0.0,1.0,-0.0253000129014,-0.128549367189,-0.258611291647,1.21846967915e-07,0.0,0.0,0.0,1.21846967915e-07,0.0,0.0,0.0,1.21846967915e-07,0.61781895,0.7453054,11.91507975,9e-08,0.0,0.0,0.0,9e-08,0.0,0.0,0.0,9e-08
1536693220627754104,1554,1536693220627114264,base_link,-0.178477275028,0.130668254287,0.518412453072,-0.826026753876,1.0,0.0,0.0,0.0,1.0,0.0,0.0,0.0,1.0,-0.13615322113,-0.182994946837,-0.191472113132,1.21846967915e-07,0.0,0.0,0.0,1.21846967915e-07,0.0,0.0,0.0,1.21846967915e-07,0.588399,0.8237586,12.5917386,9e-08,0.0,0.0,0.0,9e-08,0.0,0.0,0.0,9e-08
1536693221136947576,1555,1536693221136116184,base_link,-0.151819571744,0.160436982449,0.563315065645,-0.796170163417,1.0,0.0,0.0,0.0,1.0,0.0,0.0,0.0,1.0,-0.169443994761,-0.115881420672,-0.167501240969,1.21846967915e-07,0.0,0.0,0.0,1.21846967915e-07,0.0,0.0,0.0,1.21846967915e-07,0.93163175,1.0002783,12.32695905,9e-08,0.0,0.0,0.0,9e-08,0.0,0.0,0.0,9e-08
1536693221431695064,1556,1536693221431376024,base_link,-0.143901812439,0.146211911224,0.590988282269,-0.780158442634,1.0,0.0,0.0,0.0,1.0,0.0,0.0,0.0,1.0,-0.153264254332,0.0331506095827,-0.238909855485,1.21846967915e-07,0.0,0.0,0.0,1.21846967915e-07,0.0,0.0,0.0,1.21846967915e-07,0.5295591,1.18660465,9.58109705,9e-08,0.0,0.0,0.0,9e-08,0.0,0.0,0.0,9e-08
1536693221695732088,1557,1536693221695510456,base_link,-0.143237188698,0.126573547756,0.621331746223,-0.75987440141,1.0,0.0,0.0,0.0,1.0,0.0,0.0,0.0,1.0,-0.0435930974782,0.0662730634212,-0.330082148314,1.21846967915e-07,0.0,0.0,0.0,1.21846967915e-07,0.0,0.0,0.0,1.21846967915e-07,0.4118793,0.83356525,8.54159215,9e-08,0.0,0.0,0.0,9e-08,0.0,0.0,0.0,9e-08
1536693222085619352,1558,1536693222085291032,base_link,-0.136469120242,0.103776691423,0.662540049733,-0.729141454066,1.0,0.0,0.0,0.0,1.0,0.0,0.0,0.0,1.0,-0.251288294792,0.0199518222362,-0.252101689577,1.21846967915e-07,0.0,0.0,0.0,1.21846967915e-07,0.0,0.0,0.0,1.21846967915e-07,0.2549729,0.9414384,8.3944924,9e-08,0.0,0.0,0.0,9e-08,0.0,0.0,0.0,9e-08
1536693222565411160,1559,1536693222565187480,base_link,-0.106308474013,0.0727799595066,0.701899648082,-0.70052727989,1.0,0.0,0.0,0.0,1.0,0.0,0.0,0.0,1.0,-0.079263061285,-0.0345631614327,-0.177277132869,1.21846967915e-07,0.0,0.0,0.0,1.21846967915e-07,0.0,0.0,0.0,1.21846967915e-07,0.4118793,0.93163175,10.0616229,9e-08,0.0,0.0,0.0,9e-08,0.0,0.0,0.0,9e-08
1536693222878714936,1560,1536693222878462520,base_link,0.115133318632,-0.0976778887849,-0.718445748558,0.678998568012,1.0,0.0,0.0,0.0,1.0,0.0,0.0,0.0,1.0,0.0819783359766,-0.0783507451415,-0.0934060513973,1.21846967915e-07,0.0,0.0,0.0,1.21846967915e-07,0.0,0.0,0.0,1.21846967915e-07,0.4314926,0.51975245,9.97336305,9e-08,0.0,0.0,0.0,9e-08,0.0,0.0,0.0,9e-08
1536693223317243928,1561,1536693223316998008,base_link,0.0542317097479,-0.0686340369444,-0.731761469276,0.675924139762,1.0,0.0,0.0,0.0,1.0,0.0,0.0,0.0,1.0,-0.376919418573,-0.125011175871,-0.0490577146411,1.21846967915e-07,0.0,0.0,0.0,1.21846967915e-07,0.0,0.0,0.0,1.21846967915e-07,0.588399,0.75511205,12.0229529,9e-08,0.0,0.0,0.0,9e-08,0.0,0.0,0.0,9e-08
1536693223778349240,1562,1536693223777945016,base_link,-0.00822912745062,-0.0281196559807,-0.736418327686,0.675891716962,1.0,0.0,0.0,0.0,1.0,0.0,0.0,0.0,1.0,-0.220409020782,-0.0373713709414,0.0285748932511,1.21846967915e-07,0.0,0.0,0.0,1.21846967915e-07,0.0,0.0,0.0,1.21846967915e-07,0.20593965,0.75511205,9.9243298,9e-08,0.0,0.0,0.0,9e-08,0.0,0.0,0.0,9e-08
1536693224130246552,1563,1536693224129954232,base_link,-0.0413677222915,-0.00752251878889,-0.73218170211,0.679810325281,1.0,0.0,0.0,0.0,1.0,0.0,0.0,0.0,1.0,-0.200814202428,-0.0138193070889,0.0952945798635,1.21846967915e-07,0.0,0.0,0.0,1.21846967915e-07,0.0,0.0,0.0,1.21846967915e-07,0.14709975,0.4511059,10.4342756,9e-08,0.0,0.0,0.0,9e-08,0.0,0.0,0.0,9e-08
1536693224416964728,1564,1536693224416711992,base_link,-0.0471940518992,-0.00704126226395,-0.720857096331,0.691439215521,1.0,0.0,0.0,0.0,1.0,0.0,0.0,0.0,1.0,0.0122602330521,-0.015500866808,0.109584070742,1.21846967915e-07,0.0,0.0,0.0,1.21846967915e-07,0.0,0.0,0.0,1.21846967915e-07,0.22555295,0.53936575,10.2185293,9e-08,0.0,0.0,0.0,9e-08,0.0,0.0,0.0,9e-08
1536693224679207064,1565,1536693224678024984,base_link,-0.0449296869817,-0.00854475347004,-0.709427429398,0.703292992169,1.0,0.0,0.0,0.0,1.0,0.0,0.0,0.0,1.0,0.052867397666,0.0283771362156,0.126474931836,1.21846967915e-07,0.0,0.0,0.0,1.21846967915e-07,0.0,0.0,0.0,1.21846967915e-07,0.2549729,0.6864655,9.63993695,9e-08,0.0,0.0,0.0,9e-08,0.0,0.0,0.0,9e-08
1536693225108229912,1566,1536693225101495736,base_link,0.0357526183816,-0.00390325146405,0.697175637195,-0.715997657684,1.0,0.0,0.0,0.0,1.0,0.0,0.0,0.0,1.0,-0.18161714077,0.140244469047,0.0594632811844,1.21846967915e-07,0.0,0.0,0.0,1.21846967915e-07,0.0,0.0,0.0,1.21846967915e-07,0.30400615,0.63743225,8.12971285,9e-08,0.0,0.0,0.0,9e-08,0.0,0.0,0.0,9e-08
1536693225481268792,1567,1536693225480051000,base_link,0.0080372771184,-0.0165103784278,0.695154723238,-0.718625577294,1.0,0.0,0.0,0.0,1.0,0.0,0.0,0.0,1.0,0.191541403532,0.147198230028,0.0284246951342,1.21846967915e-07,0.0,0.0,0.0,1.21846967915e-07,0.0,0.0,0.0,1.21846967915e-07,0.10787315,0.24516625,7.8845466,9e-08,0.0,0.0,0.0,9e-08,0.0,0.0,0.0,9e-08
1536693225937056728,1568,1536693225936017432,base_link,-0.0251521533213,-0.000677615811475,0.68210204614,-0.73082399295,1.0,0.0,0.0,0.0,1.0,0.0,0.0,0.0,1.0,-0.0280705112964,0.00451411772519,0.112559728324,1.21846967915e-07,0.0,0.0,0.0,1.21846967915e-07,0.0,0.0,0.0,1.21846967915e-07,0.32361945,0.48052585,8.9828914,9e-08,0.0,0.0,0.0,9e-08,0.0,0.0,0.0,9e-08
1536693226274092760,1569,1536693226273836728,base_link,-0.0204072876552,-0.00089124856342,0.669079152472,-0.742910382222,1.0,0.0,0.0,0.0,1.0,0.0,0.0,0.0,1.0,-0.0239794235677,-0.00801550876349,0.0841192305088,1.21846967915e-07,0.0,0.0,0.0,1.21846967915e-07,0.0,0.0,0.0,1.21846967915e-07,0.59820565,0.5687857,11.28745415,9e-08,0.0,0.0,0.0,9e-08,0.0,0.0,0.0,9e-08
1536693226708638872,1570,1536693226708211480,base_link,-0.0286084512126,0.00529482509655,0.655735248756,-0.754430119286,1.0,0.0,0.0,0.0,1.0,0.0,0.0,0.0,1.0,0.0844649523497,-0.0145829813555,0.100370451808,1.21846967915e-07,0.0,0.0,0.0,1.21846967915e-07,0.0,0.0,0.0,1.21846967915e-07,0.34323275,0.61781895,10.30678915,9e-08,0.0,0.0,0.0,9e-08,0.0,0.0,0.0,9e-08
1536693227083862584,1571,1536693227083595128,base_link,-0.037891385175,0.0145915574606,0.644393969335,-0.763614917131,1.0,0.0,0.0,0.0,1.0,0.0,0.0,0.0,1.0,0.0468578971922,-0.0248278677464,0.0474781170487,1.21846967915e-07,0.0,0.0,0.0,1.21846967915e-07,0.0,0.0,0.0,1.21846967915e-07,0.28439285,0.7060788,9.83606995,9e-08,0.0,0.0,0.0,9e-08,0.0,0.0,0.0,9e-08
1536693227398674968,1572,1536693227398173208,base_link,-0.0485193473282,0.0271859571263,0.642918769206,-0.763912464142,1.0,0.0,0.0,0.0,1.0,0.0,0.0,0.0,1.0,0.207205548882,0.0113703617826,-0.0258730407804,1.21846967915e-07,0.0,0.0,0.0,1.21846967915e-07,0.0,0.0,0.0,1.21846967915e-07,0.14709975,0.8825985,9.99297635,9e-08,0.0,0.0,0.0,9e-08,0.0,0.0,0.0,9e-08
1536693227752621112,1573,1536693227752154744,base_link,-0.0741260602892,0.0535534059801,0.648374882144,-0.755809084425,1.0,0.0,0.0,0.0,1.0,0.0,0.0,0.0,1.0,0.129175916314,-0.0193724539131,-0.0671043619514,1.21846967915e-07,0.0,0.0,0.0,1.21846967915e-07,0.0,0.0,0.0,1.21846967915e-07,0.2549729,0.87279185,9.8458766,9e-08,0.0,0.0,0.0,9e-08,0.0,0.0,0.0,9e-08
1536693228189852696,1574,1536693228189612632,base_link,-0.0791680757783,0.0640910450095,0.66122561619,-0.743239825508,1.0,0.0,0.0,0.0,1.0,0.0,0.0,0.0,1.0,-0.10229793936,-0.044272787869,-0.0633580461144,1.21846967915e-07,0.0,0.0,0.0,1.21846967915e-07,0.0,0.0,0.0,1.21846967915e-07,0.3530394,0.71588545,10.3362091,9e-08,0.0,0.0,0.0,9e-08,0.0,0.0,0.0,9e-08
1536693228597080056,1575,1536693228596419032,base_link,-0.0544924241269,0.0452005264358,0.671723777875,-0.73741077722,1.0,0.0,0.0,0.0,1.0,0.0,0.0,0.0,1.0,-0.177275881171,-0.0134608717635,-0.0626056715846,1.21846967915e-07,0.0,0.0,0.0,1.21846967915e-07,0.0,0.0,0.0,1.21846967915e-07,0.12748645,0.8041453,10.40485565,9e-08,0.0,0.0,0.0,9e-08,0.0,0.0,0.0,9e-08
1536693228986006840,1576,1536693228985681752,base_link,-0.0203583930708,0.0303965032224,0.683363663254,-0.729160950797,1.0,0.0,0.0,0.0,1.0,0.0,0.0,0.0,1.0,-0.106592029333,-0.110889822245,-0.0345815382898,1.21846967915e-07,0.0,0.0,0.0,1.21846967915e-07,0.0,0.0,0.0,1.21846967915e-07,0.0392266,0.5491724,11.1011278,9e-08,0.0,0.0,0.0,9e-08,0.0,0.0,0.0,9e-08
1536693229375289784,1577,1536693229374591288,base_link,-0.00680484146242,0.0381397343674,0.684123848247,-0.728336196447,1.0,0.0,0.0,0.0,1.0,0.0,0.0,0.0,1.0,-0.00585914030671,-0.013025123626,0.0248840171844,1.21846967915e-07,0.0,0.0,0.0,1.21846967915e-07,0.0,0.0,0.0,1.21846967915e-07,0.0,0.6080123,10.77750835,9e-08,0.0,0.0,0.0,9e-08,0.0,0.0,0.0,9e-08
1536693229777298200,1578,1536693229777011384,base_link,0.00488147959843,0.0255332132694,0.679550757742,-0.733167780136,1.0,0.0,0.0,0.0,1.0,0.0,0.0,0.0,1.0,-0.0872786790133,-0.0163915157318,0.0409734547138,1.21846967915e-07,0.0,0.0,0.0,1.21846967915e-07,0.0,0.0,0.0,1.21846967915e-07,0.0,0.1569064,10.1008495,9e-08,0.0,0.0,0.0,9e-08,0.0,0.0,0.0,9e-08
1536693230322552088,1579,1536693230322317176,base_link,0.0034510599676,0.0114406011799,0.666550051502,-0.745364495849,1.0,0.0,0.0,0.0,1.0,0.0,0.0,0.0,1.0,0.00280664814636,0.122277334332,0.0719024986029,1.21846967915e-07,0.0,0.0,0.0,1.21846967915e-07,0.0,0.0,0.0,1.21846967915e-07,-0.1569064,0.44129925,8.8848249,9e-08,0.0,0.0,0.0,9e-08,0.0,0.0,0.0,9e-08
1536693230608812792,1580,1536693230608570072,base_link,-0.0110691886616,0.0129264595027,0.662273530596,-0.749068855566,1.0,0.0,0.0,0.0,1.0,0.0,0.0,0.0,1.0,0.0714680701494,0.00660016946495,0.0334254801273,1.21846967915e-07,0.0,0.0,0.0,1.21846967915e-07,0.0,0.0,0.0,1.21846967915e-07,-0.04903325,0.2745862,9.71839015,9e-08,0.0,0.0,0.0,9e-08,0.0,0.0,0.0,9e-08
1536693231019173624,1581,1536693231018820824,base_link,-0.029716758068,0.0375034301272,0.657975710081,-0.751517379681,1.0,0.0,0.0,0.0,1.0,0.0,0.0,0.0,1.0,0.189555063844,0.00571662886068,0.005235879682,1.21846967915e-07,0.0,0.0,0.0,1.21846967915e-07,0.0,0.0,0.0,1.21846967915e-07,0.02941995,0.53936575,9.77723005,9e-08,0.0,0.0,0.0,9e-08,0.0,0.0,0.0,9e-08
1536693231417952504,1582,1536693231417586712,base_link,-0.0560328990514,0.0596334762464,0.656556429927,-0.749825190999,1.0,0.0,0.0,0.0,1.0,0.0,0.0,0.0,1.0,0.139031097293,-0.00250336108729,-0.0133763086051,1.21846967915e-07,0.0,0.0,0.0,1.21846967915e-07,0.0,0.0,0.0,1.21846967915e-07,0.08825985,0.77472535,9.7478101,9e-08,0.0,0.0,0.0,9e-08,0.0,0.0,0.0,9e-08
1536693231868196088,1583,1536693231867712184,base_link,-0.104812389498,0.0981512726312,0.66765809246,-0.730488440882,1.0,0.0,0.0,0.0,1.0,0.0,0.0,0.0,1.0,0.126164853573,-0.0581527501345,-0.161007672548,1.21846967915e-07,0.0,0.0,0.0,1.21846967915e-07,0.0,0.0,0.0,1.21846967915e-07,-0.10787315,1.1179581,8.73772515,9e-08,0.0,0.0,0.0,9e-08,0.0,0.0,0.0,9e-08
1536693232318735160,1584,1536693232318439096,base_link,-0.129220097794,0.136824806879,0.693387937153,-0.695553238192,1.0,0.0,0.0,0.0,1.0,0.0,0.0,0.0,1.0,0.278654545546,-0.0532472729683,-0.189211890101,1.21846967915e-07,0.0,0.0,0.0,1.21846967915e-07,0.0,0.0,0.0,1.21846967915e-07,0.16671305,0.7453054,10.20872265,9e-08,0.0,0.0,0.0,9e-08,0.0,0.0,0.0,9e-08
1536693232577287832,1585,1536693232576992536,base_link,0.146140884862,-0.163190138249,-0.70930418451,0.669999548049,1.0,0.0,0.0,0.0,1.0,0.0,0.0,0.0,1.0,0.178412616253,-0.102512851357,-0.219250321388,1.21846967915e-07,0.0,0.0,0.0,1.21846967915e-07,0.0,0.0,0.0,1.21846967915e-07,0.20593965,1.0198916,10.28717585,9e-08,0.0,0.0,0.0,9e-08,0.0,0.0,0.0,9e-08
1536693233018505528,1586,1536693233018279800,base_link,0.133974078328,-0.180430048647,-0.744540407962,0.628613971204,1.0,0.0,0.0,0.0,1.0,0.0,0.0,0.0,1.0,-0.060979001224,-0.168491646647,-0.234277963638,1.21846967915e-07,0.0,0.0,0.0,1.21846967915e-07,0.0,0.0,0.0,1.21846967915e-07,0.51975245,1.01008495,10.85596155,9e-08,0.0,0.0,0.0,9e-08,0.0,0.0,0.0,9e-08
1536693233367782936,1587,1536693233367479480,base_link,0.134628241259,-0.189896371861,-0.77736685908,0.584393164756,1.0,0.0,0.0,0.0,1.0,0.0,0.0,0.0,1.0,0.09664529562,-0.0777638107538,-0.357526600361,1.21846967915e-07,0.0,0.0,0.0,1.21846967915e-07,0.0,0.0,0.0,1.21846967915e-07,0.2941995,1.16699135,9.9243298,9e-08,0.0,0.0,0.0,9e-08,0.0,0.0,0.0,9e-08
1536693233665561688,1588,1536693233665058968,base_link,0.137320242677,-0.199148423267,-0.807561251417,0.537892072512,1.0,0.0,0.0,0.0,1.0,0.0,0.0,0.0,1.0,0.0623405463994,-0.136777669191,-0.382287621498,1.21846967915e-07,0.0,0.0,0.0,1.21846967915e-07,0.0,0.0,0.0,1.21846967915e-07,0.26477955,0.75511205,10.58137535,9e-08,0.0,0.0,0.0,9e-08,0.0,0.0,0.0,9e-08
1536693234017274232,1589,1536693234015975544,base_link,0.134090326179,-0.227864991067,-0.84275661944,0.468890830217,1.0,0.0,0.0,0.0,1.0,0.0,0.0,0.0,1.0,0.196828857064,-0.271285027266,-0.358312904835,1.21846967915e-07,0.0,0.0,0.0,1.21846967915e-07,0.0,0.0,0.0,1.21846967915e-07,0.36284605,0.7453054,11.0226746,9e-08,0.0,0.0,0.0,9e-08,0.0,0.0,0.0,9e-08
1536693234416589240,1590,1536693234415752952,base_link,0.0959439293769,-0.269267559029,-0.87395883734,0.393046682603,1.0,0.0,0.0,0.0,1.0,0.0,0.0,0.0,1.0,0.0031019707676,-0.356337398291,-0.297540307045,1.21846967915e-07,0.0,0.0,0.0,1.21846967915e-07,0.0,0.0,0.0,1.21846967915e-07,0.61781895,1.0198916,12.2190859,9e-08,0.0,0.0,0.0,9e-08,0.0,0.0,0.0,9e-08
1536693234980155832,1591,1536693234978737144,base_link,0.0433106407036,-0.269018004566,-0.916952454045,0.291464746826,1.0,0.0,0.0,0.0,1.0,0.0,0.0,0.0,1.0,-0.174672320485,-0.176872640848,-0.309121489525,1.21846967915e-07,0.0,0.0,0.0,1.21846967915e-07,0.0,0.0,0.0,1.21846967915e-07,0.6472389,0.8825985,11.48358715,9e-08,0.0,0.0,0.0,9e-08,0.0,0.0,0.0,9e-08
1536693235339108440,1592,1536693235338844568,base_link,0.0168157471947,-0.25176699514,-0.938790134545,0.234528663676,1.0,0.0,0.0,0.0,1.0,0.0,0.0,0.0,1.0,-0.130027905107,-0.178085327148,-0.269479691982,1.21846967915e-07,0.0,0.0,0.0,1.21846967915e-07,0.0,0.0,0.0,1.21846967915e-07,0.53936575,0.65704555,11.11093445,9e-08,0.0,0.0,0.0,9e-08,0.0,0.0,0.0,9e-08
1536693235733092312,1593,1536693235732611128,base_link,-0.00990868262329,-0.219117242757,-0.959414252568,0.177239227892,1.0,0.0,0.0,0.0,1.0,0.0,0.0,0.0,1.0,-0.260692209005,-0.111563369632,-0.303947418928,1.21846967915e-07,0.0,0.0,0.0,1.21846967915e-07,0.0,0.0,0.0,1.21846967915e-07,0.5491724,0.9022118,10.2773692,9e-08,0.0,0.0,0.0,9e-08,0.0,0.0,0.0,9e-08
1536693236102397816,1594,1536693236100233624,base_link,-0.0185796977088,-0.189894138415,-0.975781230686,0.106985984449,1.0,0.0,0.0,0.0,1.0,0.0,0.0,0.0,1.0,-0.185649812222,-0.0646439269185,-0.368168234825,1.21846967915e-07,0.0,0.0,0.0,1.21846967915e-07,0.0,0.0,0.0,1.21846967915e-07,0.53936575,0.97085835,9.414384,9e-08,0.0,0.0,0.0,9e-08,0.0,0.0,0.0,9e-08
1536693236525317624,1595,1536693236525083640,base_link,-0.017008293992,-0.163724679848,-0.985947182772,0.0285149071288,1.0,0.0,0.0,0.0,1.0,0.0,0.0,0.0,1.0,-0.0878766179085,-0.0581165328622,-0.338675826788,1.21846967915e-07,0.0,0.0,0.0,1.21846967915e-07,0.0,0.0,0.0,1.21846967915e-07,0.48052585,0.24516625,8.95347145,9e-08,0.0,0.0,0.0,9e-08,0.0,0.0,0.0,9e-08
1536693236802598072,1596,1536693236802346488,base_link,-0.0148023719978,-0.15364012998,-0.987890346077,-0.0157564072927,1.0,0.0,0.0,0.0,1.0,0.0,0.0,0.0,1.0,-0.117053955793,0.0103842541575,-0.309029430151,1.21846967915e-07,0.0,0.0,0.0,1.21846967915e-07,0.0,0.0,0.0,1.21846967915e-07,0.50013915,0.44129925,8.93385815,9e-08,0.0,0.0,0.0,9e-08,0.0,0.0,0.0,9e-08
1536693237192733400,1597,1536693237192271192,base_link,-0.00942213821941,-0.140218604331,-0.988088107508,-0.0627045302288,1.0,0.0,0.0,0.0,1.0,0.0,0.0,0.0,1.0,-0.0346342772245,0.0100585604087,-0.219293370843,1.21846967915e-07,0.0,0.0,0.0,1.21846967915e-07,0.0,0.0,0.0,1.21846967915e-07,0.75511205,0.4707192,9.99297635,9e-08,0.0,0.0,0.0,9e-08,0.0,0.0,0.0,9e-08
1536693237492137368,1598,1536693237491828440,base_link,0.00245788768372,-0.111243521495,-0.989977208064,-0.0869710597076,1.0,0.0,0.0,0.0,1.0,0.0,0.0,0.0,1.0,-0.224327147007,0.187292993069,-0.138021066785,1.21846967915e-07,0.0,0.0,0.0,1.21846967915e-07,0.0,0.0,0.0,1.21846967915e-07,0.61781895,-0.0980665,9.4536106,9e-08,0.0,0.0,0.0,9e-08,0.0,0.0,0.0,9e-08
1536693237878474840,1599,1536693237878214360,base_link,0.0457460949132,-0.0933987831379,-0.988654227144,-0.108382568984,1.0,0.0,0.0,0.0,1.0,0.0,0.0,0.0,1.0,0.031470131129,0.0581515952945,-0.076315484941,1.21846967915e-07,0.0,0.0,0.0,1.21846967915e-07,0.0,0.0,0.0,1.21846967915e-07,0.3334261,0.30400615,8.26700595,9e-08,0.0,0.0,0.0,9e-08,0.0,0.0,0.0,9e-08
1536693238284568312,1600,1536693238284202968,base_link,0.000990570687436,-0.0899395946605,-0.989454752363,-0.113530529415,1.0,0.0,0.0,0.0,1.0,0.0,0.0,0.0,1.0,-0.140715137124,-0.419195562601,0.0306743867695,1.21846967915e-07,0.0,0.0,0.0,1.21846967915e-07,0.0,0.0,0.0,1.21846967915e-07,0.7060788,0.4314926,11.1207411,9e-08,0.0,0.0,0.0,9e-08,0.0,0.0,0.0,9e-08
1536693238766087224,1601,1536693238765609720,base_link,-0.0342859380244,-0.0190167797573,-0.992250294438,-0.117907547381,1.0,0.0,0.0,0.0,1.0,0.0,0.0,0.0,1.0,-0.101119607687,0.0732384175062,-0.046199452132,1.21846967915e-07,0.0,0.0,0.0,1.21846967915e-07,0.0,0.0,0.0,1.21846967915e-07,0.8041453,0.34323275,10.81673495,9e-08,0.0,0.0,0.0,9e-08,0.0,0.0,0.0,9e-08
1536693239105160440,1602,1536693239104816088,base_link,-0.00710034164046,-0.024040315271,-0.991826944041,-0.125103802759,1.0,0.0,0.0,0.0,1.0,0.0,0.0,0.0,1.0,-0.0820329934359,0.221486732364,-0.0030858668033,1.21846967915e-07,0.0,0.0,0.0,1.21846967915e-07,0.0,0.0,0.0,1.21846967915e-07,0.91201845,0.63743225,11.24822755,9e-08,0.0,0.0,0.0,9e-08,0.0,0.0,0.0,9e-08
1536693239483557464,1603,1536693239483321592,base_link,0.00907379429789,0.000462845626418,-0.992538340326,-0.121593976062,1.0,0.0,0.0,0.0,1.0,0.0,0.0,0.0,1.0,-0.0185290370136,-0.179139748216,0.0357829965651,1.21846967915e-07,0.0,0.0,0.0,1.21846967915e-07,0.0,0.0,0.0,1.21846967915e-07,0.7256921,0.5687857,11.3953273,9e-08,0.0,0.0,0.0,9e-08,0.0,0.0,0.0,9e-08
1536693239954003288,1604,1536693239953619608,base_link,-0.0384162095037,0.0231386582364,-0.992861932291,-0.110516879931,1.0,0.0,0.0,0.0,1.0,0.0,0.0,0.0,1.0,-0.0432882681489,-0.0191541481763,-0.0142590738833,1.21846967915e-07,0.0,0.0,0.0,1.21846967915e-07,0.0,0.0,0.0,1.21846967915e-07,0.65704555,0.0588399,10.7677017,9e-08,0.0,0.0,0.0,9e-08,0.0,0.0,0.0,9e-08
1536693240281276824,1605,1536693240280995192,base_link,-0.0258330042884,-0.00342331987411,-0.994353211785,-0.102871895988,1.0,0.0,0.0,0.0,1.0,0.0,0.0,0.0,1.0,0.113127171993,0.0653789192438,0.0916466191411,1.21846967915e-07,0.0,0.0,0.0,1.21846967915e-07,0.0,0.0,0.0,1.21846967915e-07,0.57859235,0.4118793,9.30651085,9e-08,0.0,0.0,0.0,9e-08,0.0,0.0,0.0,9e-08
1536693240626147928,1606,1536693240625904152,base_link,-0.0390323256232,0.0016253227892,-0.995643520107,-0.0846629597368,1.0,0.0,0.0,0.0,1.0,0.0,0.0,0.0,1.0,-0.117533691227,-0.165429741144,0.122662313282,1.21846967915e-07,0.0,0.0,0.0,1.21846967915e-07,0.0,0.0,0.0,1.21846967915e-07,0.8041453,0.4903325,10.14988275,9e-08,0.0,0.0,0.0,9e-08,0.0,0.0,0.0,9e-08
1536693241025757304,1607,1536693241025424120,base_link,-0.0220361467024,0.0319440915555,-0.996627513036,-0.0723020298041,1.0,0.0,0.0,0.0,1.0,0.0,0.0,0.0,1.0,-0.0187845844775,0.341912358999,-0.0101180709898,1.21846967915e-07,0.0,0.0,0.0,1.21846967915e-07,0.0,0.0,0.0,1.21846967915e-07,0.588399,0.12748645,8.69849855,9e-08,0.0,0.0,0.0,9e-08,0.0,0.0,0.0,9e-08
1536693241452575128,1608,1536693241451745496,base_link,0.0120047296289,-0.00560088506473,-0.997686016701,-0.0666867950379,1.0,0.0,0.0,0.0,1.0,0.0,0.0,0.0,1.0,0.242378592491,0.00469070533291,0.0755152180791,1.21846967915e-07,0.0,0.0,0.0,1.21846967915e-07,0.0,0.0,0.0,1.21846967915e-07,0.5099458,0.08825985,9.14960445,9e-08,0.0,0.0,0.0,9e-08,0.0,0.0,0.0,9e-08
1536693241811782136,1609,1536693241811338424,base_link,-0.0113335638013,-0.025672851742,-0.99864873386,-0.0437397002038,1.0,0.0,0.0,0.0,1.0,0.0,0.0,0.0,1.0,-0.073029704392,-0.125436872244,0.116568185389,1.21846967915e-07,0.0,0.0,0.0,1.21846967915e-07,0.0,0.0,0.0,1.21846967915e-07,0.7453054,0.4118793,10.787315,9e-08,0.0,0.0,0.0,9e-08,0.0,0.0,0.0,9e-08
1536693242138760344,1610,1536693242138270680,base_link,-0.0100680229212,-0.0152624086674,-0.999385793456,-0.0298953112289,1.0,0.0,0.0,0.0,1.0,0.0,0.0,0.0,1.0,-0.0298545658588,0.0204244963825,0.0976890772581,1.21846967915e-07,0.0,0.0,0.0,1.21846967915e-07,0.0,0.0,0.0,1.21846967915e-07,0.55897905,0.2549729,10.2969825,9e-08,0.0,0.0,0.0,9e-08,0.0,0.0,0.0,9e-08
1536693242493091992,1611,1536693242492814232,base_link,-0.0246591049553,0.0185268157609,-0.999485368291,-0.0088138648086,1.0,0.0,0.0,0.0,1.0,0.0,0.0,0.0,1.0,-0.195238903165,-0.311325132847,0.0595165938139,1.21846967915e-07,0.0,0.0,0.0,1.21846967915e-07,0.0,0.0,0.0,1.21846967915e-07,0.4903325,1.1571847,10.95402805,9e-08,0.0,0.0,0.0,9e-08,0.0,0.0,0.0,9e-08
1536693242873168536,1612,1536693242872754200,base_link,-0.103603794898,0.00731496307979,-0.994533426032,-0.0107707707422,1.0,0.0,0.0,0.0,1.0,0.0,0.0,0.0,1.0,0.0560409352183,-0.345521360636,-0.107351012528,1.21846967915e-07,0.0,0.0,0.0,1.21846967915e-07,0.0,0.0,0.0,1.21846967915e-07,1.01008495,0.36284605,13.2193642,9e-08,0.0,0.0,0.0,9e-08,0.0,0.0,0.0,9e-08
1536693243347652600,1613,1536693243347212504,base_link,-0.0395663965289,-0.054121706065,-0.997557755758,-0.0195924762341,1.0,0.0,0.0,0.0,1.0,0.0,0.0,0.0,1.0,0.388508439064,0.356950640678,0.010198738426,1.21846967915e-07,0.0,0.0,0.0,1.21846967915e-07,0.0,0.0,0.0,1.21846967915e-07,0.50013915,0.8237586,7.89435325,9e-08,0.0,0.0,0.0,9e-08,0.0,0.0,0.0,9e-08
1536693243750875768,1614,1536693243750621208,base_link,-0.0445352413117,-0.127982614838,-0.990605423477,-0.0183836220239,1.0,0.0,0.0,0.0,1.0,0.0,0.0,0.0,1.0,0.159796744585,-0.257015585899,-0.0374406464398,1.21846967915e-07,0.0,0.0,0.0,1.21846967915e-07,0.0,0.0,0.0,1.21846967915e-07,0.6668522,0.87279185,9.75761675,9e-08,0.0,0.0,0.0,9e-08,0.0,0.0,0.0,9e-08
1536693244178969496,1615,1536693244178623704,base_link,-0.0415529228643,-0.0649931280828,-0.995155711741,-0.0609455272566,1.0,0.0,0.0,0.0,1.0,0.0,0.0,0.0,1.0,-0.391452640295,0.422043949366,-0.316676229239,1.21846967915e-07,0.0,0.0,0.0,1.21846967915e-07,0.0,0.0,0.0,1.21846967915e-07,0.51975245,0.7060788,7.8845466,9e-08,0.0,0.0,0.0,9e-08,0.0,0.0,0.0,9e-08
