%time,field.header.seq,field.header.stamp,field.header.frame_id,field.orientation.x,field.orientation.y,field.orientation.z,field.orientation.w,field.orientation_covariance0,field.orientation_covariance1,field.orientation_covariance2,field.orientation_covariance3,field.orientation_covariance4,field.orientation_covariance5,field.orientation_covariance6,field.orientation_covariance7,field.orientation_covariance8,field.angular_velocity.x,field.angular_velocity.y,field.angular_velocity.z,field.angular_velocity_covariance0,field.angular_velocity_covariance1,field.angular_velocity_covariance2,field.angular_velocity_covariance3,field.angular_velocity_covariance4,field.angular_velocity_covariance5,field.angular_velocity_covariance6,field.angular_velocity_covariance7,field.angular_velocity_covariance8,field.linear_acceleration.x,field.linear_acceleration.y,field.linear_acceleration.z,field.linear_acceleration_covariance0,field.linear_acceleration_covariance1,field.linear_acceleration_covariance2,field.linear_acceleration_covariance3,field.linear_acceleration_covariance4,field.linear_acceleration_covariance5,field.linear_acceleration_covariance6,field.linear_acceleration_covariance7,field.linear_acceleration_covariance8
1539875887021428744,8549,1539875887020570024,base_link,0.0,0.0,0.0,0.0,-1.0,0.0,0.0,0.0,0.0,0.0,0.0,0.0,0.0,0.707,-0.187,-0.23,1.21846967915e-07,0.0,0.0,0.0,1.21846967915e-07,0.0,0.0,0.0,1.21846967915e-07,-0.6276256,1.0198916,14.68055505,9e-08,0.0,0.0,0.0,9e-08,0.0,0.0,0.0,9e-08
1539875887094076712,8550,1539875887086201736,base_link,0.0,0.0,0.0,0.0,-1.0,0.0,0.0,0.0,0.0,0.0,0.0,0.0,0.0,0.824,-0.193,-0.239,1.21846967915e-07,0.0,0.0,0.0,1.21846967915e-07,0.0,0.0,0.0,1.21846967915e-07,-0.77472535,0.8433719,13.1997509,9e-08,0.0,0.0,0.0,9e-08,0.0,0.0,0.0,9e-08
1539875887225830408,8551,1539875887225123592,base_link,0.0,0.0,0.0,0.0,-1.0,0.0,0.0,0.0,0.0,0.0,0.0,0.0,0.0,0.718,-0.255,-0.208,1.21846967915e-07,0.0,0.0,0.0,1.21846967915e-07,0.0,0.0,0.0,1.21846967915e-07,-0.588399,0.63743225,14.11176935,9e-08,0.0,0.0,0.0,9e-08,0.0,0.0,0.0,9e-08
1539875887302961992,8552,1539875887295219816,base_link,0.0,0.0,0.0,0.0,-1.0,0.0,0.0,0.0,0.0,0.0,0.0,0.0,0.0,0.802,-0.219,-0.209,1.21846967915e-07,0.0,0.0,0.0,1.21846967915e-07,0.0,0.0,0.0,1.21846967915e-07,-0.1765197,0.588399,14.6315218,9e-08,0.0,0.0,0.0,9e-08,0.0,0.0,0.0,9e-08
1539875887393085128,8553,1539875887391966504,base_link,0.0,0.0,0.0,0.0,-1.0,0.0,0.0,0.0,0.0,0.0,0.0,0.0,0.0,1.0,-0.184,-0.219,1.21846967915e-07,0.0,0.0,0.0,1.21846967915e-07,0.0,0.0,0.0,1.21846967915e-07,-0.0784532,0.2745862,13.85679645,9e-08,0.0,0.0,0.0,9e-08,0.0,0.0,0.0,9e-08
1539875887502205416,8554,1539875887500541032,base_link,0.0,0.0,0.0,0.0,-1.0,0.0,0.0,0.0,0.0,0.0,0.0,0.0,0.0,0.625,-0.239,-0.112,1.21846967915e-07,0.0,0.0,0.0,1.21846967915e-07,0.0,0.0,0.0,1.21846967915e-07,-0.12748645,0.2157463,15.494507,9e-08,0.0,0.0,0.0,9e-08,0.0,0.0,0.0,9e-08
1539875887599134984,8555,1539875887598547240,base_link,0.0,0.0,0.0,0.0,-1.0,0.0,0.0,0.0,0.0,0.0,0.0,0.0,0.0,0.363,-0.184,-0.057,1.21846967915e-07,0.0,0.0,0.0,1.21846967915e-07,0.0,0.0,0.0,1.21846967915e-07,-0.0980665,0.0980665,14.2196425,9e-08,0.0,0.0,0.0,9e-08,0.0,0.0,0.0,9e-08
1539875887696344296,8556,1539875887695629032,base_link,0.0,0.0,0.0,0.0,-1.0,0.0,0.0,0.0,0.0,0.0,0.0,0.0,0.0,0.309,-0.117,-0.026,1.21846967915e-07,0.0,0.0,0.0,1.21846967915e-07,0.0,0.0,0.0,1.21846967915e-07,-0.59820565,0.3138128,10.50292215,9e-08,0.0,0.0,0.0,9e-08,0.0,0.0,0.0,9e-08
1539875887797941000,8557,1539875887791121928,base_link,0.0,0.0,0.0,0.0,-1.0,0.0,0.0,0.0,0.0,0.0,0.0,0.0,0.0,0.438,-0.048,-0.115,1.21846967915e-07,0.0,0.0,0.0,1.21846967915e-07,0.0,0.0,0.0,1.21846967915e-07,-0.5295591,0.6080123,5.88399,9e-08,0.0,0.0,0.0,9e-08,0.0,0.0,0.0,9e-08
1539875887916730280,8558,1539875887916236328,base_link,0.0,0.0,0.0,0.0,-1.0,0.0,0.0,0.0,0.0,0.0,0.0,0.0,0.0,-0.078,-0.084,-0.207,1.21846967915e-07,0.0,0.0,0.0,1.21846967915e-07,0.0,0.0,0.0,1.21846967915e-07,-0.8041453,1.04931155,8.5710121,9e-08,0.0,0.0,0.0,9e-08,0.0,0.0,0.0,9e-08
1539875887999323880,8559,1539875887998730824,base_link,0.0,0.0,0.0,0.0,-1.0,0.0,0.0,0.0,0.0,0.0,0.0,0.0,0.0,0.028,-0.021,-0.271,1.21846967915e-07,0.0,0.0,0.0,1.21846967915e-07,0.0,0.0,0.0,1.21846967915e-07,-0.75511205,0.46091255,8.6690786,9e-08,0.0,0.0,0.0,9e-08,0.0,0.0,0.0,9e-08
1539875888106597480,8560,1539875888105787816,base_link,0.0,0.0,0.0,0.0,-1.0,0.0,0.0,0.0,0.0,0.0,0.0,0.0,0.0,0.342,-0.045,-0.266,1.21846967915e-07,0.0,0.0,0.0,1.21846967915e-07,0.0,0.0,0.0,1.21846967915e-07,-0.81395195,0.48052585,9.4339973,9e-08,0.0,0.0,0.0,9e-08,0.0,0.0,0.0,9e-08
1539875888215831848,8561,1539875888214800360,base_link,0.0,0.0,0.0,0.0,-1.0,0.0,0.0,0.0,0.0,0.0,0.0,0.0,0.0,0.219,-0.036,-0.228,1.21846967915e-07,0.0,0.0,0.0,1.21846967915e-07,0.0,0.0,0.0,1.21846967915e-07,-1.0787315,0.38245935,8.87501825,9e-08,0.0,0.0,0.0,9e-08,0.0,0.0,0.0,9e-08
1539875888316901736,8562,1539875888303338504,base_link,0.0,0.0,0.0,0.0,-1.0,0.0,0.0,0.0,0.0,0.0,0.0,0.0,0.0,0.07,-0.041,-0.233,1.21846967915e-07,0.0,0.0,0.0,1.21846967915e-07,0.0,0.0,0.0,1.21846967915e-07,-1.0198916,0.50013915,10.77750835,9e-08,0.0,0.0,0.0,9e-08,0.0,0.0,0.0,9e-08
1539875888400119080,8563,1539875888399523112,base_link,0.0,0.0,0.0,0.0,-1.0,0.0,0.0,0.0,0.0,0.0,0.0,0.0,0.0,-0.116,-0.034,-0.205,1.21846967915e-07,0.0,0.0,0.0,1.21846967915e-07,0.0,0.0,0.0,1.21846967915e-07,-1.01008495,0.46091255,12.748645,9e-08,0.0,0.0,0.0,9e-08,0.0,0.0,0.0,9e-08
1539875888510851496,8564,1539875888502774056,base_link,0.0,0.0,0.0,0.0,-1.0,0.0,0.0,0.0,0.0,0.0,0.0,0.0,0.0,-0.228,0.017,-0.199,1.21846967915e-07,0.0,0.0,0.0,1.21846967915e-07,0.0,0.0,0.0,1.21846967915e-07,-1.22583125,0.65704555,10.4931155,9e-08,0.0,0.0,0.0,9e-08,0.0,0.0,0.0,9e-08
1539875888620357800,8565,1539875888619274440,base_link,0.0,0.0,0.0,0.0,-1.0,0.0,0.0,0.0,0.0,0.0,0.0,0.0,0.0,-0.382,0.059,-0.251,1.21846967915e-07,0.0,0.0,0.0,1.21846967915e-07,0.0,0.0,0.0,1.21846967915e-07,-1.2552512,0.57859235,9.95374975,9e-08,0.0,0.0,0.0,9e-08,0.0,0.0,0.0,9e-08
1539875888714564872,8566,1539875888712677992,base_link,0.0,0.0,0.0,0.0,-1.0,0.0,0.0,0.0,0.0,0.0,0.0,0.0,0.0,-0.436,0.059,-0.262,1.21846967915e-07,0.0,0.0,0.0,1.21846967915e-07,0.0,0.0,0.0,1.21846967915e-07,-1.4317709,0.5099458,9.44380395,9e-08,0.0,0.0,0.0,9e-08,0.0,0.0,0.0,9e-08
1539875888802175080,8567,1539875888801167656,base_link,0.0,0.0,0.0,0.0,-1.0,0.0,0.0,0.0,0.0,0.0,0.0,0.0,0.0,-0.554,0.081,-0.273,1.21846967915e-07,0.0,0.0,0.0,1.21846967915e-07,0.0,0.0,0.0,1.21846967915e-07,-1.38273765,1.0198916,9.22805765,9e-08,0.0,0.0,0.0,9e-08,0.0,0.0,0.0,9e-08
1539875888895405128,8568,1539875888891630824,base_link,0.0,0.0,0.0,0.0,-1.0,0.0,0.0,0.0,0.0,0.0,0.0,0.0,0.0,-0.636,0.103,-0.257,1.21846967915e-07,0.0,0.0,0.0,1.21846967915e-07,0.0,0.0,0.0,1.21846967915e-07,-1.50041745,0.95124505,7.79628675,9e-08,0.0,0.0,0.0,9e-08,0.0,0.0,0.0,9e-08
1539875888986969000,8569,1539875888986355336,base_link,0.0,0.0,0.0,0.0,-1.0,0.0,0.0,0.0,0.0,0.0,0.0,0.0,0.0,-0.544,0.121,-0.226,1.21846967915e-07,0.0,0.0,0.0,1.21846967915e-07,0.0,0.0,0.0,1.21846967915e-07,-1.6475172,0.63743225,5.9428299,9e-08,0.0,0.0,0.0,9e-08,0.0,0.0,0.0,9e-08
1539875889120979880,8570,1539875889119679592,base_link,0.0,0.0,0.0,0.0,-1.0,0.0,0.0,0.0,0.0,0.0,0.0,0.0,0.0,-0.484,0.121,-0.194,1.21846967915e-07,0.0,0.0,0.0,1.21846967915e-07,0.0,0.0,0.0,1.21846967915e-07,-1.9221034,-0.10787315,6.4920023,9e-08,0.0,0.0,0.0,9e-08,0.0,0.0,0.0,9e-08
1539875889194910248,8571,1539875889194207880,base_link,0.0,0.0,0.0,0.0,-1.0,0.0,0.0,0.0,0.0,0.0,0.0,0.0,0.0,-0.464,0.097,-0.19,1.21846967915e-07,0.0,0.0,0.0,1.21846967915e-07,0.0,0.0,0.0,1.21846967915e-07,-1.6671305,0.8825985,6.34490255,9e-08,0.0,0.0,0.0,9e-08,0.0,0.0,0.0,9e-08
1539875889362531432,8572,1539875889361784040,base_link,0.0,0.0,0.0,0.0,-1.0,0.0,0.0,0.0,0.0,0.0,0.0,0.0,0.0,-0.442,0.152,-0.187,1.21846967915e-07,0.0,0.0,0.0,1.21846967915e-07,0.0,0.0,0.0,1.21846967915e-07,-1.65732385,0.83356525,6.080123,9e-08,0.0,0.0,0.0,9e-08,0.0,0.0,0.0,9e-08
1539875889401925000,8573,1539875889401099464,base_link,0.0,0.0,0.0,0.0,-1.0,0.0,0.0,0.0,0.0,0.0,0.0,0.0,0.0,-0.458,0.128,-0.18,1.21846967915e-07,0.0,0.0,0.0,1.21846967915e-07,0.0,0.0,0.0,1.21846967915e-07,-1.8240369,0.44129925,6.5116156,9e-08,0.0,0.0,0.0,9e-08,0.0,0.0,0.0,9e-08
1539875889501342568,8574,1539875889500634152,base_link,0.0,0.0,0.0,0.0,-1.0,0.0,0.0,0.0,0.0,0.0,0.0,0.0,0.0,-0.406,0.13,-0.17,1.21846967915e-07,0.0,0.0,0.0,1.21846967915e-07,0.0,0.0,0.0,1.21846967915e-07,-1.7848103,0.4314926,6.4135491,9e-08,0.0,0.0,0.0,9e-08,0.0,0.0,0.0,9e-08
1539875889599484840,8575,1539875889599111496,base_link,0.0,0.0,0.0,0.0,-1.0,0.0,0.0,0.0,0.0,0.0,0.0,0.0,0.0,-0.392,0.137,-0.155,1.21846967915e-07,0.0,0.0,0.0,1.21846967915e-07,0.0,0.0,0.0,1.21846967915e-07,-1.81423025,0.50013915,6.12915625,9e-08,0.0,0.0,0.0,9e-08,0.0,0.0,0.0,9e-08
1539875889723846536,8576,1539875889723424872,base_link,0.0,0.0,0.0,0.0,-1.0,0.0,0.0,0.0,0.0,0.0,0.0,0.0,0.0,-0.364,0.121,-0.138,1.21846967915e-07,0.0,0.0,0.0,1.21846967915e-07,0.0,0.0,0.0,1.21846967915e-07,-1.83384355,0.26477955,5.71727695,9e-08,0.0,0.0,0.0,9e-08,0.0,0.0,0.0,9e-08
1539875889812412968,8577,1539875889811600264,base_link,0.0,0.0,0.0,0.0,-1.0,0.0,0.0,0.0,0.0,0.0,0.0,0.0,0.0,-0.301,0.167,-0.124,1.21846967915e-07,0.0,0.0,0.0,1.21846967915e-07,0.0,0.0,0.0,1.21846967915e-07,-1.97113665,0.1176798,5.0210048,9e-08,0.0,0.0,0.0,9e-08,0.0,0.0,0.0,9e-08
1539875889898078504,8578,1539875889897118440,base_link,0.0,0.0,0.0,0.0,-1.0,0.0,0.0,0.0,0.0,0.0,0.0,0.0,0.0,-0.103,0.111,-0.047,1.21846967915e-07,0.0,0.0,0.0,1.21846967915e-07,0.0,0.0,0.0,1.21846967915e-07,-1.8632635,0.22555295,6.2174161,9e-08,0.0,0.0,0.0,9e-08,0.0,0.0,0.0,9e-08
1539875889994325192,8579,1539875889988419944,base_link,0.0,0.0,0.0,0.0,-1.0,0.0,0.0,0.0,0.0,0.0,0.0,0.0,0.0,0.007,0.111,-0.005,1.21846967915e-07,0.0,0.0,0.0,1.21846967915e-07,0.0,0.0,0.0,1.21846967915e-07,-1.95152335,0.0588399,7.95319315,9e-08,0.0,0.0,0.0,9e-08,0.0,0.0,0.0,9e-08
1539875890124187496,8580,1539875890123495368,base_link,0.0,0.0,0.0,0.0,-1.0,0.0,0.0,0.0,0.0,0.0,0.0,0.0,0.0,0.098,0.106,-0.005,1.21846967915e-07,0.0,0.0,0.0,1.21846967915e-07,0.0,0.0,0.0,1.21846967915e-07,-1.8632635,0.6080123,7.3746008,9e-08,0.0,0.0,0.0,9e-08,0.0,0.0,0.0,9e-08
1539875890206992232,8581,1539875890206089512,base_link,0.0,0.0,0.0,0.0,-1.0,0.0,0.0,0.0,0.0,0.0,0.0,0.0,0.0,0.043,0.111,-0.011,1.21846967915e-07,0.0,0.0,0.0,1.21846967915e-07,0.0,0.0,0.0,1.21846967915e-07,-1.97113665,0.6668522,7.60015375,9e-08,0.0,0.0,0.0,9e-08,0.0,0.0,0.0,9e-08
1539875890288854280,8582,1539875890284224232,base_link,0.0,0.0,0.0,0.0,-1.0,0.0,0.0,0.0,0.0,0.0,0.0,0.0,0.0,-0.265,0.066,-0.006,1.21846967915e-07,0.0,0.0,0.0,1.21846967915e-07,0.0,0.0,0.0,1.21846967915e-07,-2.0790098,0.4314926,9.14960445,9e-08,0.0,0.0,0.0,9e-08,0.0,0.0,0.0,9e-08
1539875890398635816,8583,1539875890397826184,base_link,0.0,0.0,0.0,0.0,-1.0,0.0,0.0,0.0,0.0,0.0,0.0,0.0,0.0,-0.248,0.098,-0.025,1.21846967915e-07,0.0,0.0,0.0,1.21846967915e-07,0.0,0.0,0.0,1.21846967915e-07,-2.0397832,0.79433865,8.60043205,9e-08,0.0,0.0,0.0,9e-08,0.0,0.0,0.0,9e-08
1539875890514312360,8584,1539875890513717736,base_link,0.0,0.0,0.0,0.0,-1.0,0.0,0.0,0.0,0.0,0.0,0.0,0.0,0.0,-0.269,0.108,-0.075,1.21846967915e-07,0.0,0.0,0.0,1.21846967915e-07,0.0,0.0,0.0,1.21846967915e-07,-2.0790098,0.57859235,6.97252815,9e-08,0.0,0.0,0.0,9e-08,0.0,0.0,0.0,9e-08
1539875890602652680,8585,1539875890599881512,base_link,0.0,0.0,0.0,0.0,-1.0,0.0,0.0,0.0,0.0,0.0,0.0,0.0,0.0,-0.234,0.055,-0.065,1.21846967915e-07,0.0,0.0,0.0,1.21846967915e-07,0.0,0.0,0.0,1.21846967915e-07,-2.32417605,0.0196133,8.54159215,9e-08,0.0,0.0,0.0,9e-08,0.0,0.0,0.0,9e-08
1539875890691707368,8586,1539875890691154024,base_link,0.0,0.0,0.0,0.0,-1.0,0.0,0.0,0.0,0.0,0.0,0.0,0.0,0.0,-0.126,0.022,-0.067,1.21846967915e-07,0.0,0.0,0.0,1.21846967915e-07,0.0,0.0,0.0,1.21846967915e-07,-2.2947561,-0.1765197,8.1787461,9e-08,0.0,0.0,0.0,9e-08,0.0,0.0,0.0,9e-08
1539875890804148168,8587,1539875890797322248,base_link,0.0,0.0,0.0,0.0,-1.0,0.0,0.0,0.0,0.0,0.0,0.0,0.0,0.0,0.013,0.011,-0.036,1.21846967915e-07,0.0,0.0,0.0,1.21846967915e-07,0.0,0.0,0.0,1.21846967915e-07,-2.40262925,-0.34323275,8.2964259,9e-08,0.0,0.0,0.0,9e-08,0.0,0.0,0.0,9e-08
1539875890924190568,8588,1539875890914576424,base_link,0.0,0.0,0.0,0.0,-1.0,0.0,0.0,0.0,0.0,0.0,0.0,0.0,0.0,0.041,-0.005,0.045,1.21846967915e-07,0.0,0.0,0.0,1.21846967915e-07,0.0,0.0,0.0,1.21846967915e-07,-2.3732093,0.00980665,8.4141057,9e-08,0.0,0.0,0.0,9e-08,0.0,0.0,0.0,9e-08
1539875891004201672,8589,1539875890998767912,base_link,0.0,0.0,0.0,0.0,-1.0,0.0,0.0,0.0,0.0,0.0,0.0,0.0,0.0,-0.085,-0.029,0.065,1.21846967915e-07,0.0,0.0,0.0,1.21846967915e-07,0.0,0.0,0.0,1.21846967915e-07,-2.28494945,0.38245935,8.7671451,9e-08,0.0,0.0,0.0,9e-08,0.0,0.0,0.0,9e-08
1539875891095480552,8590,1539875891094760936,base_link,0.0,0.0,0.0,0.0,-1.0,0.0,0.0,0.0,0.0,0.0,0.0,0.0,0.0,-0.146,-0.059,0.087,1.21846967915e-07,0.0,0.0,0.0,1.21846967915e-07,0.0,0.0,0.0,1.21846967915e-07,-2.46146915,0.2157463,10.4931155,9e-08,0.0,0.0,0.0,9e-08,0.0,0.0,0.0,9e-08
1539875891199490920,8591,1539875891198714504,base_link,0.0,0.0,0.0,0.0,-1.0,0.0,0.0,0.0,0.0,0.0,0.0,0.0,0.0,0.017,-0.1,0.086,1.21846967915e-07,0.0,0.0,0.0,1.21846967915e-07,0.0,0.0,0.0,1.21846967915e-07,-2.55953565,-0.04903325,10.22833595,9e-08,0.0,0.0,0.0,9e-08,0.0,0.0,0.0,9e-08
1539875891318331656,8592,1539875891317801512,base_link,0.0,0.0,0.0,0.0,-1.0,0.0,0.0,0.0,0.0,0.0,0.0,0.0,0.0,-0.029,-0.142,0.063,1.21846967915e-07,0.0,0.0,0.0,1.21846967915e-07,0.0,0.0,0.0,1.21846967915e-07,-2.3928226,1.04931155,8.42391235,9e-08,0.0,0.0,0.0,9e-08,0.0,0.0,0.0,9e-08
1539875891396874824,8593,1539875891396311848,base_link,0.0,0.0,0.0,0.0,-1.0,0.0,0.0,0.0,0.0,0.0,0.0,0.0,0.0,-0.117,-0.17,0.018,1.21846967915e-07,0.0,0.0,0.0,1.21846967915e-07,0.0,0.0,0.0,1.21846967915e-07,-2.48108245,0.1765197,9.28689755,9e-08,0.0,0.0,0.0,9e-08,0.0,0.0,0.0,9e-08
1539875891494174056,8594,1539875891493584520,base_link,0.0,0.0,0.0,0.0,-1.0,0.0,0.0,0.0,0.0,0.0,0.0,0.0,0.0,-0.293,-0.203,-0.1,1.21846967915e-07,0.0,0.0,0.0,1.21846967915e-07,0.0,0.0,0.0,1.21846967915e-07,-2.3143694,-0.0392266,11.81701325,9e-08,0.0,0.0,0.0,9e-08,0.0,0.0,0.0,9e-08
1539875891599436296,8595,1539875891598927976,base_link,0.0,0.0,0.0,0.0,-1.0,0.0,0.0,0.0,0.0,0.0,0.0,0.0,0.0,0.0,-0.265,-0.098,1.21846967915e-07,0.0,0.0,0.0,1.21846967915e-07,0.0,0.0,0.0,1.21846967915e-07,-1.9809433,0.06864655,13.2978174,9e-08,0.0,0.0,0.0,9e-08,0.0,0.0,0.0,9e-08
1539875891718137864,8596,1539875891710574440,base_link,0.0,0.0,0.0,0.0,-1.0,0.0,0.0,0.0,0.0,0.0,0.0,0.0,0.0,-0.085,-0.262,-0.075,1.21846967915e-07,0.0,0.0,0.0,1.21846967915e-07,0.0,0.0,0.0,1.21846967915e-07,-1.7063571,-0.46091255,14.44519545,9e-08,0.0,0.0,0.0,9e-08,0.0,0.0,0.0,9e-08
1539875891810363400,8597,1539875891802771112,base_link,0.0,0.0,0.0,0.0,-1.0,0.0,0.0,0.0,0.0,0.0,0.0,0.0,0.0,0.173,-0.323,-0.023,1.21846967915e-07,0.0,0.0,0.0,1.21846967915e-07,0.0,0.0,0.0,1.21846967915e-07,-1.4906108,1.97679374491e-15,16.1417459,9e-08,0.0,0.0,0.0,9e-08,0.0,0.0,0.0,9e-08
1539875891917814280,8598,1539875891917082056,base_link,0.0,0.0,0.0,0.0,-1.0,0.0,0.0,0.0,0.0,0.0,0.0,0.0,0.0,0.193,-0.33,0.047,1.21846967915e-07,0.0,0.0,0.0,1.21846967915e-07,0.0,0.0,0.0,1.21846967915e-07,-1.2748645,-0.04903325,15.2199208,9e-08,0.0,0.0,0.0,9e-08,0.0,0.0,0.0,9e-08
1539875891985712264,8599,1539875891985153608,base_link,0.0,0.0,0.0,0.0,-1.0,0.0,0.0,0.0,0.0,0.0,0.0,0.0,0.0,0.064,-0.337,0.078,1.21846967915e-07,0.0,0.0,0.0,1.21846967915e-07,0.0,0.0,0.0,1.21846967915e-07,-1.0002783,0.02941995,16.7889848,9e-08,0.0,0.0,0.0,9e-08,0.0,0.0,0.0,9e-08
1539875892094165160,8600,1539875892093648104,base_link,0.0,0.0,0.0,0.0,-1.0,0.0,0.0,0.0,0.0,0.0,0.0,0.0,0.0,0.138,-0.335,0.103,1.21846967915e-07,0.0,0.0,0.0,1.21846967915e-07,0.0,0.0,0.0,1.21846967915e-07,-0.5295591,0.22555295,17.19105745,9e-08,0.0,0.0,0.0,9e-08,0.0,0.0,0.0,9e-08
1539875892230628584,8601,1539875892228766472,base_link,0.0,0.0,0.0,0.0,-1.0,0.0,0.0,0.0,0.0,0.0,0.0,0.0,0.0,-0.025,-0.415,0.095,1.21846967915e-07,0.0,0.0,0.0,1.21846967915e-07,0.0,0.0,0.0,1.21846967915e-07,-0.392266,0.3726527,19.8486596,9e-08,0.0,0.0,0.0,9e-08,0.0,0.0,0.0,9e-08
1539875892322583304,8602,1539875892322127144,base_link,0.0,0.0,0.0,0.0,-1.0,0.0,0.0,0.0,0.0,0.0,0.0,0.0,0.0,-0.087,-0.342,0.085,1.21846967915e-07,0.0,0.0,0.0,1.21846967915e-07,0.0,0.0,0.0,1.21846967915e-07,-0.08825985,0.5687857,18.1619158,9e-08,0.0,0.0,0.0,9e-08,0.0,0.0,0.0,9e-08
1539875892424099080,8603,1539875892423504936,base_link,0.0,0.0,0.0,0.0,-1.0,0.0,0.0,0.0,0.0,0.0,0.0,0.0,0.0,-0.042,-0.345,0.063,1.21846967915e-07,0.0,0.0,0.0,1.21846967915e-07,0.0,0.0,0.0,1.21846967915e-07,0.0588399,0.51975245,18.2599823,9e-08,0.0,0.0,0.0,9e-08,0.0,0.0,0.0,9e-08
1539875892500609224,8604,1539875892500146280,base_link,0.0,0.0,0.0,0.0,-1.0,0.0,0.0,0.0,0.0,0.0,0.0,0.0,0.0,-0.12,-0.313,0.042,1.21846967915e-07,0.0,0.0,0.0,1.21846967915e-07,0.0,0.0,0.0,1.21846967915e-07,0.2353596,0.6668522,17.68138995,9e-08,0.0,0.0,0.0,9e-08,0.0,0.0,0.0,9e-08
1539875892598098952,8605,1539875892591849320,base_link,0.0,0.0,0.0,0.0,-1.0,0.0,0.0,0.0,0.0,0.0,0.0,0.0,0.0,-0.119,-0.284,0.03,1.21846967915e-07,0.0,0.0,0.0,1.21846967915e-07,0.0,0.0,0.0,1.21846967915e-07,0.0196133,0.53936575,17.259704,9e-08,0.0,0.0,0.0,9e-08,0.0,0.0,0.0,9e-08
1539875892726686472,8606,1539875892726276072,base_link,0.0,0.0,0.0,0.0,-1.0,0.0,0.0,0.0,0.0,0.0,0.0,0.0,0.0,-0.092,-0.188,-0.036,1.21846967915e-07,0.0,0.0,0.0,1.21846967915e-07,0.0,0.0,0.0,1.21846967915e-07,-0.16671305,0.93163175,11.64049355,9e-08,0.0,0.0,0.0,9e-08,0.0,0.0,0.0,9e-08
1539875892797552712,8607,1539875892796856360,base_link,0.0,0.0,0.0,0.0,-1.0,0.0,0.0,0.0,0.0,0.0,0.0,0.0,0.0,-0.103,-0.173,-0.108,1.21846967915e-07,0.0,0.0,0.0,1.21846967915e-07,0.0,0.0,0.0,1.21846967915e-07,-0.04903325,0.4707192,10.1204628,9e-08,0.0,0.0,0.0,9e-08,0.0,0.0,0.0,9e-08
1539875892898014280,8608,1539875892897577896,base_link,0.0,0.0,0.0,0.0,-1.0,0.0,0.0,0.0,0.0,0.0,0.0,0.0,0.0,0.182,-0.235,-0.121,1.21846967915e-07,0.0,0.0,0.0,1.21846967915e-07,0.0,0.0,0.0,1.21846967915e-07,0.0980665,0.5099458,14.2588691,9e-08,0.0,0.0,0.0,9e-08,0.0,0.0,0.0,9e-08
1539875893039016904,8609,1539875893038657928,base_link,0.0,0.0,0.0,0.0,-1.0,0.0,0.0,0.0,0.0,0.0,0.0,0.0,0.0,0.083,-0.197,-0.086,1.21846967915e-07,0.0,0.0,0.0,1.21846967915e-07,0.0,0.0,0.0,1.21846967915e-07,-0.0588399,0.588399,13.56259695,9e-08,0.0,0.0,0.0,9e-08,0.0,0.0,0.0,9e-08
1539875893111119848,8610,1539875893110588776,base_link,0.0,0.0,0.0,0.0,-1.0,0.0,0.0,0.0,0.0,0.0,0.0,0.0,0.0,0.206,-0.205,-0.119,1.21846967915e-07,0.0,0.0,0.0,1.21846967915e-07,0.0,0.0,0.0,1.21846967915e-07,-0.04903325,0.32361945,15.1218543,9e-08,0.0,0.0,0.0,9e-08,0.0,0.0,0.0,9e-08
1539875893200599656,8611,1539875893200172616,base_link,0.0,0.0,0.0,0.0,-1.0,0.0,0.0,0.0,0.0,0.0,0.0,0.0,0.0,0.204,-0.124,-0.102,1.21846967915e-07,0.0,0.0,0.0,1.21846967915e-07,0.0,0.0,0.0,1.21846967915e-07,-0.1176798,-0.4314926,10.3362091,9e-08,0.0,0.0,0.0,9e-08,0.0,0.0,0.0,9e-08
1539875893303253256,8612,1539875893301013736,base_link,0.0,0.0,0.0,0.0,-1.0,0.0,0.0,0.0,0.0,0.0,0.0,0.0,0.0,0.227,-0.164,0.002,1.21846967915e-07,0.0,0.0,0.0,1.21846967915e-07,0.0,0.0,0.0,1.21846967915e-07,0.20593965,0.32361945,13.6900834,9e-08,0.0,0.0,0.0,9e-08,0.0,0.0,0.0,9e-08
1539875893408283016,8613,1539875893406611208,base_link,0.0,0.0,0.0,0.0,-1.0,0.0,0.0,0.0,0.0,0.0,0.0,0.0,0.0,-0.129,-0.186,0.064,1.21846967915e-07,0.0,0.0,0.0,1.21846967915e-07,0.0,0.0,0.0,1.21846967915e-07,0.26477955,0.50013915,14.93552795,9e-08,0.0,0.0,0.0,9e-08,0.0,0.0,0.0,9e-08
1539875893494457480,8614,1539875893493855208,base_link,0.0,0.0,0.0,0.0,-1.0,0.0,0.0,0.0,0.0,0.0,0.0,0.0,0.0,-0.173,-0.179,0.052,1.21846967915e-07,0.0,0.0,0.0,1.21846967915e-07,0.0,0.0,0.0,1.21846967915e-07,0.18632635,0.7453054,15.48470035,9e-08,0.0,0.0,0.0,9e-08,0.0,0.0,0.0,9e-08
1539875893617815400,8615,1539875893616886344,base_link,0.0,0.0,0.0,0.0,-1.0,0.0,0.0,0.0,0.0,0.0,0.0,0.0,0.0,0.181,-0.123,0.018,1.21846967915e-07,0.0,0.0,0.0,1.21846967915e-07,0.0,0.0,0.0,1.21846967915e-07,0.22555295,0.32361945,15.3572139,9e-08,0.0,0.0,0.0,9e-08,0.0,0.0,0.0,9e-08
1539875893746010312,8616,1539875893744861992,base_link,0.0,0.0,0.0,0.0,-1.0,0.0,0.0,0.0,0.0,0.0,0.0,0.0,0.0,0.018,-0.065,0.021,1.21846967915e-07,0.0,0.0,0.0,1.21846967915e-07,0.0,0.0,0.0,1.21846967915e-07,0.20593965,0.3530394,11.97391965,9e-08,0.0,0.0,0.0,9e-08,0.0,0.0,0.0,9e-08
1539875893802999336,8617,1539875893799436936,base_link,0.0,0.0,0.0,0.0,-1.0,0.0,0.0,0.0,0.0,0.0,0.0,0.0,0.0,-0.074,-0.041,0.025,1.21846967915e-07,0.0,0.0,0.0,1.21846967915e-07,0.0,0.0,0.0,1.21846967915e-07,0.10787315,0.3726527,10.6107953,9e-08,0.0,0.0,0.0,9e-08,0.0,0.0,0.0,9e-08
1539875893885335496,8618,1539875893883578824,base_link,0.0,0.0,0.0,0.0,-1.0,0.0,0.0,0.0,0.0,0.0,0.0,0.0,0.0,-0.183,-0.022,0.024,1.21846967915e-07,0.0,0.0,0.0,1.21846967915e-07,0.0,0.0,0.0,1.21846967915e-07,0.12748645,0.4314926,9.99297635,9e-08,0.0,0.0,0.0,9e-08,0.0,0.0,0.0,9e-08
1539875893999901512,8619,1539875893999469512,base_link,0.0,0.0,0.0,0.0,-1.0,0.0,0.0,0.0,0.0,0.0,0.0,0.0,0.0,-0.148,0.029,-0.019,1.21846967915e-07,0.0,0.0,0.0,1.21846967915e-07,0.0,0.0,0.0,1.21846967915e-07,0.1569064,0.40207265,8.6886919,9e-08,0.0,0.0,0.0,9e-08,0.0,0.0,0.0,9e-08
1539875894098442952,8620,1539875894097942952,base_link,0.0,0.0,0.0,0.0,-1.0,0.0,0.0,0.0,0.0,0.0,0.0,0.0,0.0,-0.081,0.034,-0.034,1.21846967915e-07,0.0,0.0,0.0,1.21846967915e-07,0.0,0.0,0.0,1.21846967915e-07,0.0392266,0.1765197,8.12971285,9e-08,0.0,0.0,0.0,9e-08,0.0,0.0,0.0,9e-08
1539875894192999048,8621,1539875894192392808,base_link,0.0,0.0,0.0,0.0,-1.0,0.0,0.0,0.0,0.0,0.0,0.0,0.0,0.0,-0.073,0.041,-0.04,1.21846967915e-07,0.0,0.0,0.0,1.21846967915e-07,0.0,0.0,0.0,1.21846967915e-07,-0.02941995,0.3530394,8.63965865,9e-08,0.0,0.0,0.0,9e-08,0.0,0.0,0.0,9e-08
1539875894314281736,8622,1539875894313973864,base_link,0.0,0.0,0.0,0.0,-1.0,0.0,0.0,0.0,0.0,0.0,0.0,0.0,0.0,-0.131,0.019,-0.032,1.21846967915e-07,0.0,0.0,0.0,1.21846967915e-07,0.0,0.0,0.0,1.21846967915e-07,-0.02941995,0.24516625,9.8262633,9e-08,0.0,0.0,0.0,9e-08,0.0,0.0,0.0,9e-08
1539875894392491336,8623,1539875894392065832,base_link,0.0,0.0,0.0,0.0,-1.0,0.0,0.0,0.0,0.0,0.0,0.0,0.0,0.0,-0.133,0.03,-0.01,1.21846967915e-07,0.0,0.0,0.0,1.21846967915e-07,0.0,0.0,0.0,1.21846967915e-07,0.22555295,0.3726527,9.77723005,9e-08,0.0,0.0,0.0,9e-08,0.0,0.0,0.0,9e-08
1539875894495078792,8624,1539875894494513320,base_link,0.0,0.0,0.0,0.0,-1.0,0.0,0.0,0.0,0.0,0.0,0.0,0.0,0.0,-0.109,0.036,-0.01,1.21846967915e-07,0.0,0.0,0.0,1.21846967915e-07,0.0,0.0,0.0,1.21846967915e-07,0.04903325,0.34323275,9.05153795,9e-08,0.0,0.0,0.0,9e-08,0.0,0.0,0.0,9e-08
1539875894574671304,8625,1539875894573366600,base_link,0.0,0.0,0.0,0.0,-1.0,0.0,0.0,0.0,0.0,0.0,0.0,0.0,0.0,-0.11,0.057,-0.036,1.21846967915e-07,0.0,0.0,0.0,1.21846967915e-07,0.0,0.0,0.0,1.21846967915e-07,-0.0392266,0.4511059,8.4925589,9e-08,0.0,0.0,0.0,9e-08,0.0,0.0,0.0,9e-08
1539875894724048168,8626,1539875894723638632,base_link,0.0,0.0,0.0,0.0,-1.0,0.0,0.0,0.0,0.0,0.0,0.0,0.0,0.0,0.016,0.091,-0.031,1.21846967915e-07,0.0,0.0,0.0,1.21846967915e-07,0.0,0.0,0.0,1.21846967915e-07,0.0392266,0.3530394,9.28689755,9e-08,0.0,0.0,0.0,9e-08,0.0,0.0,0.0,9e-08
1539875894792852648,8627,1539875894792252520,base_link,0.0,0.0,0.0,0.0,-1.0,0.0,0.0,0.0,0.0,0.0,0.0,0.0,0.0,0.036,0.034,-0.006,1.21846967915e-07,0.0,0.0,0.0,1.21846967915e-07,0.0,0.0,0.0,1.21846967915e-07,0.12748645,0.10787315,11.18938765,9e-08,0.0,0.0,0.0,9e-08,0.0,0.0,0.0,9e-08
1539875894879110504,8628,1539875894878656104,base_link,0.0,0.0,0.0,0.0,-1.0,0.0,0.0,0.0,0.0,0.0,0.0,0.0,0.0,-0.194,0.077,0.03,1.21846967915e-07,0.0,0.0,0.0,1.21846967915e-07,0.0,0.0,0.0,1.21846967915e-07,-0.22555295,0.06864655,9.48303055,9e-08,0.0,0.0,0.0,9e-08,0.0,0.0,0.0,9e-08
1539875894995426472,8629,1539875894994903976,base_link,0.0,0.0,0.0,0.0,-1.0,0.0,0.0,0.0,0.0,0.0,0.0,0.0,0.0,0.057,0.088,0.065,1.21846967915e-07,0.0,0.0,0.0,1.21846967915e-07,0.0,0.0,0.0,1.21846967915e-07,-0.0784532,0.18632635,8.52197885,9e-08,0.0,0.0,0.0,9e-08,0.0,0.0,0.0,9e-08
1539875895084945736,8630,1539875895084465832,base_link,0.0,0.0,0.0,0.0,-1.0,0.0,0.0,0.0,0.0,0.0,0.0,0.0,0.0,0.086,0.074,0.09,1.21846967915e-07,0.0,0.0,0.0,1.21846967915e-07,0.0,0.0,0.0,1.21846967915e-07,-0.16671305,0.61781895,8.44352565,9e-08,0.0,0.0,0.0,9e-08,0.0,0.0,0.0,9e-08
1539875895192191304,8631,1539875895191780776,base_link,0.0,0.0,0.0,0.0,-1.0,0.0,0.0,0.0,0.0,0.0,0.0,0.0,0.0,-0.173,0.091,0.047,1.21846967915e-07,0.0,0.0,0.0,1.21846967915e-07,0.0,0.0,0.0,1.21846967915e-07,-0.18632635,0.8237586,7.6099604,9e-08,0.0,0.0,0.0,9e-08,0.0,0.0,0.0,9e-08
1539875895332540424,8632,1539875895331786760,base_link,0.0,0.0,0.0,0.0,-1.0,0.0,0.0,0.0,0.0,0.0,0.0,0.0,0.0,-0.1,0.102,-0.039,1.21846967915e-07,0.0,0.0,0.0,1.21846967915e-07,0.0,0.0,0.0,1.21846967915e-07,-0.30400615,0.5491724,5.63882375,9e-08,0.0,0.0,0.0,9e-08,0.0,0.0,0.0,9e-08
1539875895408611912,8633,1539875895408223880,base_link,0.0,0.0,0.0,0.0,-1.0,0.0,0.0,0.0,0.0,0.0,0.0,0.0,0.0,0.137,0.095,-0.088,1.21846967915e-07,0.0,0.0,0.0,1.21846967915e-07,0.0,0.0,0.0,1.21846967915e-07,-0.1765197,0.51975245,7.26672765,9e-08,0.0,0.0,0.0,9e-08,0.0,0.0,0.0,9e-08
1539875895494657672,8634,1539875895494255720,base_link,0.0,0.0,0.0,0.0,-1.0,0.0,0.0,0.0,0.0,0.0,0.0,0.0,0.0,-0.025,0.089,-0.114,1.21846967915e-07,0.0,0.0,0.0,1.21846967915e-07,0.0,0.0,0.0,1.21846967915e-07,-0.3530394,0.3334261,7.649187,9e-08,0.0,0.0,0.0,9e-08,0.0,0.0,0.0,9e-08
1539875895593403304,8635,1539875895592938600,base_link,0.0,0.0,0.0,0.0,-1.0,0.0,0.0,0.0,0.0,0.0,0.0,0.0,0.0,0.055,0.093,-0.085,1.21846967915e-07,0.0,0.0,0.0,1.21846967915e-07,0.0,0.0,0.0,1.21846967915e-07,-0.10787315,-0.02941995,6.91368825,9e-08,0.0,0.0,0.0,9e-08,0.0,0.0,0.0,9e-08
1539875895695326952,8636,1539875895694867752,base_link,0.0,0.0,0.0,0.0,-1.0,0.0,0.0,0.0,0.0,0.0,0.0,0.0,0.0,0.184,0.052,-0.03,1.21846967915e-07,0.0,0.0,0.0,1.21846967915e-07,0.0,0.0,0.0,1.21846967915e-07,-0.0392266,0.00980665,8.46313895,9e-08,0.0,0.0,0.0,9e-08,0.0,0.0,0.0,9e-08
1539875895847983944,8637,1539875895842865320,base_link,0.0,0.0,0.0,0.0,-1.0,0.0,0.0,0.0,0.0,0.0,0.0,0.0,0.0,0.101,0.054,0.028,1.21846967915e-07,0.0,0.0,0.0,1.21846967915e-07,0.0,0.0,0.0,1.21846967915e-07,-0.10787315,-0.20593965,7.5903471,9e-08,0.0,0.0,0.0,9e-08,0.0,0.0,0.0,9e-08
1539875895891698504,8638,1539875895890796488,base_link,0.0,0.0,0.0,0.0,-1.0,0.0,0.0,0.0,0.0,0.0,0.0,0.0,0.0,0.06,0.037,0.05,1.21846967915e-07,0.0,0.0,0.0,1.21846967915e-07,0.0,0.0,0.0,1.21846967915e-07,-0.08825985,9.64377507389e-16,7.87473995,9e-08,0.0,0.0,0.0,9e-08,0.0,0.0,0.0,9e-08
1539875895993295464,8639,1539875895992553064,base_link,0.0,0.0,0.0,0.0,-1.0,0.0,0.0,0.0,0.0,0.0,0.0,0.0,0.0,-0.044,0.014,0.091,1.21846967915e-07,0.0,0.0,0.0,1.21846967915e-07,0.0,0.0,0.0,1.21846967915e-07,0.0588399,-0.08825985,11.7875933,9e-08,0.0,0.0,0.0,9e-08,0.0,0.0,0.0,9e-08
1539875896164787912,8640,1539875896164267208,base_link,0.0,0.0,0.0,0.0,-1.0,0.0,0.0,0.0,0.0,0.0,0.0,0.0,0.0,0.041,0.011,0.176,1.21846967915e-07,0.0,0.0,0.0,1.21846967915e-07,0.0,0.0,0.0,1.21846967915e-07,0.196133,0.20593965,12.17005265,9e-08,0.0,0.0,0.0,9e-08,0.0,0.0,0.0,9e-08
1539875896209854088,8641,1539875896209272264,base_link,0.0,0.0,0.0,0.0,-1.0,0.0,0.0,0.0,0.0,0.0,0.0,0.0,0.0,0.055,0.039,0.178,1.21846967915e-07,0.0,0.0,0.0,1.21846967915e-07,0.0,0.0,0.0,1.21846967915e-07,0.196133,0.3530394,11.24822755,9e-08,0.0,0.0,0.0,9e-08,0.0,0.0,0.0,9e-08
1539875896303484904,8642,1539875896302797288,base_link,0.0,0.0,0.0,0.0,-1.0,0.0,0.0,0.0,0.0,0.0,0.0,0.0,0.0,-0.036,-0.024,0.198,1.21846967915e-07,0.0,0.0,0.0,1.21846967915e-07,0.0,0.0,0.0,1.21846967915e-07,0.1765197,0.95124505,13.3566573,9e-08,0.0,0.0,0.0,9e-08,0.0,0.0,0.0,9e-08
1539875896434505544,8643,1539875896433327496,base_link,0.0,0.0,0.0,0.0,-1.0,0.0,0.0,0.0,0.0,0.0,0.0,0.0,0.0,-0.147,0.057,0.086,1.21846967915e-07,0.0,0.0,0.0,1.21846967915e-07,0.0,0.0,0.0,1.21846967915e-07,0.20593965,0.89240515,11.7091401,9e-08,0.0,0.0,0.0,9e-08,0.0,0.0,0.0,9e-08
1539875896495005288,8644,1539875896494373256,base_link,0.0,0.0,0.0,0.0,-1.0,0.0,0.0,0.0,0.0,0.0,0.0,0.0,0.0,0.067,0.102,0.021,1.21846967915e-07,0.0,0.0,0.0,1.21846967915e-07,0.0,0.0,0.0,1.21846967915e-07,0.10787315,0.93163175,10.2185293,9e-08,0.0,0.0,0.0,9e-08,0.0,0.0,0.0,9e-08
1539875896620515016,8645,1539875896618802856,base_link,0.0,0.0,0.0,0.0,-1.0,0.0,0.0,0.0,0.0,0.0,0.0,0.0,0.0,0.0,0.124,-0.053,1.21846967915e-07,0.0,0.0,0.0,1.21846967915e-07,0.0,0.0,0.0,1.21846967915e-07,-0.0392266,0.7256921,7.060788,9e-08,0.0,0.0,0.0,9e-08,0.0,0.0,0.0,9e-08
1539875896712797800,8646,1539875896711760712,base_link,0.0,0.0,0.0,0.0,-1.0,0.0,0.0,0.0,0.0,0.0,0.0,0.0,0.0,0.106,0.137,-0.114,1.21846967915e-07,0.0,0.0,0.0,1.21846967915e-07,0.0,0.0,0.0,1.21846967915e-07,0.08825985,0.55897905,5.9036033,9e-08,0.0,0.0,0.0,9e-08,0.0,0.0,0.0,9e-08
1539875896797281672,8647,1539875896796838856,base_link,0.0,0.0,0.0,0.0,-1.0,0.0,0.0,0.0,0.0,0.0,0.0,0.0,0.0,0.25,0.101,-0.136,1.21846967915e-07,0.0,0.0,0.0,1.21846967915e-07,0.0,0.0,0.0,1.21846967915e-07,0.00980665,0.53936575,8.1591328,9e-08,0.0,0.0,0.0,9e-08,0.0,0.0,0.0,9e-08
1539875896909242504,8648,1539875896908602184,base_link,0.0,0.0,0.0,0.0,-1.0,0.0,0.0,0.0,0.0,0.0,0.0,0.0,0.0,0.206,0.07,-0.154,1.21846967915e-07,0.0,0.0,0.0,1.21846967915e-07,0.0,0.0,0.0,1.21846967915e-07,-0.1176798,0.02941995,9.1594111,9e-08,0.0,0.0,0.0,9e-08,0.0,0.0,0.0,9e-08
1539875897002318536,8649,1539875897001848008,base_link,0.0,0.0,0.0,0.0,-1.0,0.0,0.0,0.0,0.0,0.0,0.0,0.0,0.0,0.23,0.05,-0.072,1.21846967915e-07,0.0,0.0,0.0,1.21846967915e-07,0.0,0.0,0.0,1.21846967915e-07,-0.0784532,0.00980665,10.46369555,9e-08,0.0,0.0,0.0,9e-08,0.0,0.0,0.0,9e-08
1539875897094301000,8650,1539875897093031432,base_link,0.0,0.0,0.0,0.0,-1.0,0.0,0.0,0.0,0.0,0.0,0.0,0.0,0.0,0.144,0.051,0.023,1.21846967915e-07,0.0,0.0,0.0,1.21846967915e-07,0.0,0.0,0.0,1.21846967915e-07,0.02941995,0.32361945,10.8265416,9e-08,0.0,0.0,0.0,9e-08,0.0,0.0,0.0,9e-08
1539875897228965352,8651,1539875897228309224,base_link,0.0,0.0,0.0,0.0,-1.0,0.0,0.0,0.0,0.0,0.0,0.0,0.0,0.0,-0.18,0.028,0.069,1.21846967915e-07,0.0,0.0,0.0,1.21846967915e-07,0.0,0.0,0.0,1.21846967915e-07,0.0196133,0.77472535,9.83606995,9e-08,0.0,0.0,0.0,9e-08,0.0,0.0,0.0,9e-08
1539875897291887048,8652,1539875897291095048,base_link,0.0,0.0,0.0,0.0,-1.0,0.0,0.0,0.0,0.0,0.0,0.0,0.0,0.0,-0.506,0.045,0.075,1.21846967915e-07,0.0,0.0,0.0,1.21846967915e-07,0.0,0.0,0.0,1.21846967915e-07,0.0980665,1.12776475,9.9831697,9e-08,0.0,0.0,0.0,9e-08,0.0,0.0,0.0,9e-08
1539875897407093608,8653,1539875897405845960,base_link,0.0,0.0,0.0,0.0,-1.0,0.0,0.0,0.0,0.0,0.0,0.0,0.0,0.0,-0.179,0.159,-0.027,1.21846967915e-07,0.0,0.0,0.0,1.21846967915e-07,0.0,0.0,0.0,1.21846967915e-07,-0.18632635,1.42196425,8.89463155,9e-08,0.0,0.0,0.0,9e-08,0.0,0.0,0.0,9e-08
1539875897508880296,8654,1539875897508441032,base_link,0.0,0.0,0.0,0.0,-1.0,0.0,0.0,0.0,0.0,0.0,0.0,0.0,0.0,0.161,0.156,-0.218,1.21846967915e-07,0.0,0.0,0.0,1.21846967915e-07,0.0,0.0,0.0,1.21846967915e-07,-0.12748645,0.89240515,7.61976705,9e-08,0.0,0.0,0.0,9e-08,0.0,0.0,0.0,9e-08
1539875897597751112,8655,1539875897597299080,base_link,0.0,0.0,0.0,0.0,-1.0,0.0,0.0,0.0,0.0,0.0,0.0,0.0,0.0,0.144,0.111,-0.252,1.21846967915e-07,0.0,0.0,0.0,1.21846967915e-07,0.0,0.0,0.0,1.21846967915e-07,-0.3138128,0.8825985,7.1784678,9e-08,0.0,0.0,0.0,9e-08,0.0,0.0,0.0,9e-08
1539875897701027656,8656,1539875897700551688,base_link,0.0,0.0,0.0,0.0,-1.0,0.0,0.0,0.0,0.0,0.0,0.0,0.0,0.0,0.111,0.077,-0.288,1.21846967915e-07,0.0,0.0,0.0,1.21846967915e-07,0.0,0.0,0.0,1.21846967915e-07,-0.4314926,0.6864655,6.2958693,9e-08,0.0,0.0,0.0,9e-08,0.0,0.0,0.0,9e-08
1539875897782214344,8657,1539875897780907016,base_link,0.0,0.0,0.0,0.0,-1.0,0.0,0.0,0.0,0.0,0.0,0.0,0.0,0.0,0.041,0.033,-0.304,1.21846967915e-07,0.0,0.0,0.0,1.21846967915e-07,0.0,0.0,0.0,1.21846967915e-07,-0.26477955,0.4707192,7.34518085,9e-08,0.0,0.0,0.0,9e-08,0.0,0.0,0.0,9e-08
1539875897919344392,8658,1539875897918198440,base_link,0.0,0.0,0.0,0.0,-1.0,0.0,0.0,0.0,0.0,0.0,0.0,0.0,0.0,0.3,-0.022,-0.279,1.21846967915e-07,0.0,0.0,0.0,1.21846967915e-07,0.0,0.0,0.0,1.21846967915e-07,-0.2353596,0.18632635,8.433719,9e-08,0.0,0.0,0.0,9e-08,0.0,0.0,0.0,9e-08
1539875897997911112,8659,1539875897997228520,base_link,0.0,0.0,0.0,0.0,-1.0,0.0,0.0,0.0,0.0,0.0,0.0,0.0,0.0,0.367,-0.018,-0.214,1.21846967915e-07,0.0,0.0,0.0,1.21846967915e-07,0.0,0.0,0.0,1.21846967915e-07,-0.2549729,0.1765197,9.62032365,9e-08,0.0,0.0,0.0,9e-08,0.0,0.0,0.0,9e-08
1539875898096676744,8660,1539875898096198408,base_link,0.0,0.0,0.0,0.0,-1.0,0.0,0.0,0.0,0.0,0.0,0.0,0.0,0.0,0.462,-0.029,-0.158,1.21846967915e-07,0.0,0.0,0.0,1.21846967915e-07,0.0,0.0,0.0,1.21846967915e-07,-0.28439285,1.13731693586e-15,9.28689755,9e-08,0.0,0.0,0.0,9e-08,0.0,0.0,0.0,9e-08
1539875898185258088,8661,1539875898183580328,base_link,0.0,0.0,0.0,0.0,-1.0,0.0,0.0,0.0,0.0,0.0,0.0,0.0,0.0,0.438,-0.075,-0.092,1.21846967915e-07,0.0,0.0,0.0,1.21846967915e-07,0.0,0.0,0.0,1.21846967915e-07,-0.26477955,0.1569064,10.44408225,9e-08,0.0,0.0,0.0,9e-08,0.0,0.0,0.0,9e-08
1539875898332089960,8662,1539875898323500072,base_link,0.0,0.0,0.0,0.0,-1.0,0.0,0.0,0.0,0.0,0.0,0.0,0.0,0.0,0.335,-0.117,-0.023,1.21846967915e-07,0.0,0.0,0.0,1.21846967915e-07,0.0,0.0,0.0,1.21846967915e-07,-0.06864655,0.4314926,11.73856005,9e-08,0.0,0.0,0.0,9e-08,0.0,0.0,0.0,9e-08
1539875898375414632,8663,1539875898374729544,base_link,0.0,0.0,0.0,0.0,-1.0,0.0,0.0,0.0,0.0,0.0,0.0,0.0,0.0,0.235,-0.136,-0.031,1.21846967915e-07,0.0,0.0,0.0,1.21846967915e-07,0.0,0.0,0.0,1.21846967915e-07,0.0196133,0.38245935,12.64077185,9e-08,0.0,0.0,0.0,9e-08,0.0,0.0,0.0,9e-08
1539875898484272872,8664,1539875898483788104,base_link,0.0,0.0,0.0,0.0,-1.0,0.0,0.0,0.0,0.0,0.0,0.0,0.0,0.0,0.064,-0.107,-0.026,1.21846967915e-07,0.0,0.0,0.0,1.21846967915e-07,0.0,0.0,0.0,1.21846967915e-07,0.1765197,0.196133,10.95402805,9e-08,0.0,0.0,0.0,9e-08,0.0,0.0,0.0,9e-08
1539875898588474408,8665,1539875898586540232,base_link,0.0,0.0,0.0,0.0,-1.0,0.0,0.0,0.0,0.0,0.0,0.0,0.0,0.0,0.3,-0.116,0.038,1.21846967915e-07,0.0,0.0,0.0,1.21846967915e-07,0.0,0.0,0.0,1.21846967915e-07,-0.0588399,0.36284605,10.44408225,9e-08,0.0,0.0,0.0,9e-08,0.0,0.0,0.0,9e-08
1539875898717620104,8666,1539875898716819368,base_link,0.0,0.0,0.0,0.0,-1.0,0.0,0.0,0.0,0.0,0.0,0.0,0.0,0.0,0.479,-0.148,-0.022,1.21846967915e-07,0.0,0.0,0.0,1.21846967915e-07,0.0,0.0,0.0,1.21846967915e-07,-0.1176798,0.5687857,11.81701325,9e-08,0.0,0.0,0.0,9e-08,0.0,0.0,0.0,9e-08
1539875898793624264,8667,1539875898793043144,base_link,0.0,0.0,0.0,0.0,-1.0,0.0,0.0,0.0,0.0,0.0,0.0,0.0,0.0,0.321,-0.145,-0.015,1.21846967915e-07,0.0,0.0,0.0,1.21846967915e-07,0.0,0.0,0.0,1.21846967915e-07,0.0588399,0.7060788,12.36618565,9e-08,0.0,0.0,0.0,9e-08,0.0,0.0,0.0,9e-08
1539875898893169864,8668,1539875898892572360,base_link,0.0,0.0,0.0,0.0,-1.0,0.0,0.0,0.0,0.0,0.0,0.0,0.0,0.0,0.287,-0.086,-0.04,1.21846967915e-07,0.0,0.0,0.0,1.21846967915e-07,0.0,0.0,0.0,1.21846967915e-07,0.14709975,1.2944778,11.5130071,9e-08,0.0,0.0,0.0,9e-08,0.0,0.0,0.0,9e-08
1539875899002004936,8669,1539875899000670440,base_link,0.0,0.0,0.0,0.0,-1.0,0.0,0.0,0.0,0.0,0.0,0.0,0.0,0.0,0.214,-0.086,-0.16,1.21846967915e-07,0.0,0.0,0.0,1.21846967915e-07,0.0,0.0,0.0,1.21846967915e-07,-0.02941995,1.569064,10.93441475,9e-08,0.0,0.0,0.0,9e-08,0.0,0.0,0.0,9e-08
1539875899100596328,8670,1539875899100166760,base_link,0.0,0.0,0.0,0.0,-1.0,0.0,0.0,0.0,0.0,0.0,0.0,0.0,0.0,0.307,-0.077,-0.34,1.21846967915e-07,0.0,0.0,0.0,1.21846967915e-07,0.0,0.0,0.0,1.21846967915e-07,0.1372931,1.1571847,9.73800345,9e-08,0.0,0.0,0.0,9e-08,0.0,0.0,0.0,9e-08
1539875899197380360,8671,1539875899196728040,base_link,0.0,0.0,0.0,0.0,-1.0,0.0,0.0,0.0,0.0,0.0,0.0,0.0,0.0,0.312,-0.058,-0.402,1.21846967915e-07,0.0,0.0,0.0,1.21846967915e-07,0.0,0.0,0.0,1.21846967915e-07,-0.14709975,0.89240515,8.5317855,9e-08,0.0,0.0,0.0,9e-08,0.0,0.0,0.0,9e-08
1539875899363898888,8672,1539875899363299496,base_link,0.0,0.0,0.0,0.0,-1.0,0.0,0.0,0.0,0.0,0.0,0.0,0.0,0.0,0.518,-0.188,-0.416,1.21846967915e-07,0.0,0.0,0.0,1.21846967915e-07,0.0,0.0,0.0,1.21846967915e-07,0.1176798,0.28439285,10.13026945,9e-08,0.0,0.0,0.0,9e-08,0.0,0.0,0.0,9e-08
1539875899447404904,8673,1539875899446723752,base_link,0.0,0.0,0.0,0.0,-1.0,0.0,0.0,0.0,0.0,0.0,0.0,0.0,0.0,0.482,-0.215,-0.351,1.21846967915e-07,0.0,0.0,0.0,1.21846967915e-07,0.0,0.0,0.0,1.21846967915e-07,0.1765197,0.4118793,10.1400761,9e-08,0.0,0.0,0.0,9e-08,0.0,0.0,0.0,9e-08
1539875899543437672,8674,1539875899542484040,base_link,0.0,0.0,0.0,0.0,-1.0,0.0,0.0,0.0,0.0,0.0,0.0,0.0,0.0,0.347,-0.299,-0.302,1.21846967915e-07,0.0,0.0,0.0,1.21846967915e-07,0.0,0.0,0.0,1.21846967915e-07,0.16671305,0.40207265,11.24822755,9e-08,0.0,0.0,0.0,9e-08,0.0,0.0,0.0,9e-08
1539875899584033992,8675,1539875899583306248,base_link,0.0,0.0,0.0,0.0,-1.0,0.0,0.0,0.0,0.0,0.0,0.0,0.0,0.0,0.297,-0.295,-0.272,1.21846967915e-07,0.0,0.0,0.0,1.21846967915e-07,0.0,0.0,0.0,1.21846967915e-07,0.4903325,0.38245935,11.30706745,9e-08,0.0,0.0,0.0,9e-08,0.0,0.0,0.0,9e-08
1539875899685374248,8676,1539875899684766824,base_link,0.0,0.0,0.0,0.0,-1.0,0.0,0.0,0.0,0.0,0.0,0.0,0.0,0.0,0.265,-0.344,-0.236,1.21846967915e-07,0.0,0.0,0.0,1.21846967915e-07,0.0,0.0,0.0,1.21846967915e-07,0.44129925,0.6472389,13.32723735,9e-08,0.0,0.0,0.0,9e-08,0.0,0.0,0.0,9e-08
1539875899819788488,8677,1539875899819280936,base_link,0.0,0.0,0.0,0.0,-1.0,0.0,0.0,0.0,0.0,0.0,0.0,0.0,0.0,0.039,-0.363,-0.213,1.21846967915e-07,0.0,0.0,0.0,1.21846967915e-07,0.0,0.0,0.0,1.21846967915e-07,0.87279185,1.12776475,14.709975,9e-08,0.0,0.0,0.0,9e-08,0.0,0.0,0.0,9e-08
1539875899905874792,8678,1539875899905183592,base_link,0.0,0.0,0.0,0.0,-1.0,0.0,0.0,0.0,0.0,0.0,0.0,0.0,0.0,-0.116,-0.343,-0.244,1.21846967915e-07,0.0,0.0,0.0,1.21846967915e-07,0.0,0.0,0.0,1.21846967915e-07,0.71588545,1.1571847,13.91563635,9e-08,0.0,0.0,0.0,9e-08,0.0,0.0,0.0,9e-08
1539875899995085672,8679,1539875899994685480,base_link,0.0,0.0,0.0,0.0,-1.0,0.0,0.0,0.0,0.0,0.0,0.0,0.0,0.0,-0.058,-0.347,-0.285,1.21846967915e-07,0.0,0.0,0.0,1.21846967915e-07,0.0,0.0,0.0,1.21846967915e-07,0.79433865,0.980665,13.15071765,9e-08,0.0,0.0,0.0,9e-08,0.0,0.0,0.0,9e-08
1539875900113935464,8680,1539875900112646696,base_link,0.0,0.0,0.0,0.0,-1.0,0.0,0.0,0.0,0.0,0.0,0.0,0.0,0.0,0.105,-0.324,-0.333,1.21846967915e-07,0.0,0.0,0.0,1.21846967915e-07,0.0,0.0,0.0,1.21846967915e-07,0.77472535,1.06892485,13.18994425,9e-08,0.0,0.0,0.0,9e-08,0.0,0.0,0.0,9e-08
1539875900179261768,8681,1539875900178672200,base_link,0.0,0.0,0.0,0.0,-1.0,0.0,0.0,0.0,0.0,0.0,0.0,0.0,0.0,0.154,-0.346,-0.351,1.21846967915e-07,0.0,0.0,0.0,1.21846967915e-07,0.0,0.0,0.0,1.21846967915e-07,0.75511205,1.0983448,13.69989005,9e-08,0.0,0.0,0.0,9e-08,0.0,0.0,0.0,9e-08
1539875900300326408,8682,1539875900299935240,base_link,0.0,0.0,0.0,0.0,-1.0,0.0,0.0,0.0,0.0,0.0,0.0,0.0,0.0,0.102,-0.391,-0.371,1.21846967915e-07,0.0,0.0,0.0,1.21846967915e-07,0.0,0.0,0.0,1.21846967915e-07,0.79433865,0.7453054,14.85707475,9e-08,0.0,0.0,0.0,9e-08,0.0,0.0,0.0,9e-08
1539875900402360744,8683,1539875900402024456,base_link,0.0,0.0,0.0,0.0,-1.0,0.0,0.0,0.0,0.0,0.0,0.0,0.0,0.0,-0.035,-0.375,-0.355,1.21846967915e-07,0.0,0.0,0.0,1.21846967915e-07,0.0,0.0,0.0,1.21846967915e-07,0.69627215,0.77472535,14.13138265,9e-08,0.0,0.0,0.0,9e-08,0.0,0.0,0.0,9e-08
1539875900505351272,8684,1539875900504699784,base_link,0.0,0.0,0.0,0.0,-1.0,0.0,0.0,0.0,0.0,0.0,0.0,0.0,0.0,-0.003,-0.438,-0.327,1.21846967915e-07,0.0,0.0,0.0,1.21846967915e-07,0.0,0.0,0.0,1.21846967915e-07,1.10815145,0.36284605,16.34768555,9e-08,0.0,0.0,0.0,9e-08,0.0,0.0,0.0,9e-08
1539875900626012232,8685,1539875900623242632,base_link,0.0,0.0,0.0,0.0,-1.0,0.0,0.0,0.0,0.0,0.0,0.0,0.0,0.0,-0.067,-0.428,-0.263,1.21846967915e-07,0.0,0.0,0.0,1.21846967915e-07,0.0,0.0,0.0,1.21846967915e-07,1.0395049,0.6080123,15.36702055,9e-08,0.0,0.0,0.0,9e-08,0.0,0.0,0.0,9e-08
1539875900701345768,8686,1539875900700973896,base_link,0.0,0.0,0.0,0.0,-1.0,0.0,0.0,0.0,0.0,0.0,0.0,0.0,0.0,-0.128,-0.428,-0.231,1.21846967915e-07,0.0,0.0,0.0,1.21846967915e-07,0.0,0.0,0.0,1.21846967915e-07,1.0198916,0.8433719,15.09243435,9e-08,0.0,0.0,0.0,9e-08,0.0,0.0,0.0,9e-08
1539875900796681928,8687,1539875900795502056,base_link,0.0,0.0,0.0,0.0,-1.0,0.0,0.0,0.0,0.0,0.0,0.0,0.0,0.0,-0.412,-0.442,-0.213,1.21846967915e-07,0.0,0.0,0.0,1.21846967915e-07,0.0,0.0,0.0,1.21846967915e-07,1.0395049,1.0002783,15.34740725,9e-08,0.0,0.0,0.0,9e-08,0.0,0.0,0.0,9e-08
1539875900899990664,8688,1539875900898789192,base_link,0.0,0.0,0.0,0.0,-1.0,0.0,0.0,0.0,0.0,0.0,0.0,0.0,0.0,-0.418,-0.376,-0.252,1.21846967915e-07,0.0,0.0,0.0,1.21846967915e-07,0.0,0.0,0.0,1.21846967915e-07,0.980665,0.99047165,15.50431365,9e-08,0.0,0.0,0.0,9e-08,0.0,0.0,0.0,9e-08
1539875901023309960,8689,1539875901022721960,base_link,0.0,0.0,0.0,0.0,-1.0,0.0,0.0,0.0,0.0,0.0,0.0,0.0,0.0,-0.199,-0.334,-0.288,1.21846967915e-07,0.0,0.0,0.0,1.21846967915e-07,0.0,0.0,0.0,1.21846967915e-07,0.75511205,1.2944778,16.0044528,9e-08,0.0,0.0,0.0,9e-08,0.0,0.0,0.0,9e-08
1539875901086276040,8690,1539875901085619208,base_link,0.0,0.0,0.0,0.0,-1.0,0.0,0.0,0.0,0.0,0.0,0.0,0.0,0.0,-0.032,-0.338,-0.306,1.21846967915e-07,0.0,0.0,0.0,1.21846967915e-07,0.0,0.0,0.0,1.21846967915e-07,0.6864655,1.1571847,15.8475464,9e-08,0.0,0.0,0.0,9e-08,0.0,0.0,0.0,9e-08
1539875901219059720,8691,1539875901218364552,base_link,0.0,0.0,0.0,0.0,-1.0,0.0,0.0,0.0,0.0,0.0,0.0,0.0,0.0,0.098,-0.289,-0.366,1.21846967915e-07,0.0,0.0,0.0,1.21846967915e-07,0.0,0.0,0.0,1.21846967915e-07,0.6080123,1.01008495,15.05320775,9e-08,0.0,0.0,0.0,9e-08,0.0,0.0,0.0,9e-08
1539875901299466952,8692,1539875901298811560,base_link,0.0,0.0,0.0,0.0,-1.0,0.0,0.0,0.0,0.0,0.0,0.0,0.0,0.0,0.097,-0.299,-0.356,1.21846967915e-07,0.0,0.0,0.0,1.21846967915e-07,0.0,0.0,0.0,1.21846967915e-07,0.3138128,1.0395049,14.2392558,9e-08,0.0,0.0,0.0,9e-08,0.0,0.0,0.0,9e-08
1539875901393087592,8693,1539875901392481896,base_link,0.0,0.0,0.0,0.0,-1.0,0.0,0.0,0.0,0.0,0.0,0.0,0.0,0.0,0.141,-0.268,-0.348,1.21846967915e-07,0.0,0.0,0.0,1.21846967915e-07,0.0,0.0,0.0,1.21846967915e-07,0.0588399,0.38245935,12.6309652,9e-08,0.0,0.0,0.0,9e-08,0.0,0.0,0.0,9e-08
1539875901559487976,8694,1539875901558607240,base_link,0.0,0.0,0.0,0.0,-1.0,0.0,0.0,0.0,0.0,0.0,0.0,0.0,0.0,0.317,-0.296,-0.34,1.21846967915e-07,0.0,0.0,0.0,1.21846967915e-07,0.0,0.0,0.0,1.21846967915e-07,0.26477955,0.18632635,12.8663248,9e-08,0.0,0.0,0.0,9e-08,0.0,0.0,0.0,9e-08
1539875901594096808,8695,1539875901593076488,base_link,0.0,0.0,0.0,0.0,-1.0,0.0,0.0,0.0,0.0,0.0,0.0,0.0,0.0,0.344,-0.319,-0.297,1.21846967915e-07,0.0,0.0,0.0,1.21846967915e-07,0.0,0.0,0.0,1.21846967915e-07,0.2745862,0.588399,13.62143685,9e-08,0.0,0.0,0.0,9e-08,0.0,0.0,0.0,9e-08
1539875901686180936,8696,1539875901684766920,base_link,0.0,0.0,0.0,0.0,-1.0,0.0,0.0,0.0,0.0,0.0,0.0,0.0,0.0,0.376,-0.332,-0.231,1.21846967915e-07,0.0,0.0,0.0,1.21846967915e-07,0.0,0.0,0.0,1.21846967915e-07,0.28439285,0.57859235,14.8276548,9e-08,0.0,0.0,0.0,9e-08,0.0,0.0,0.0,9e-08
1539875901837346056,8697,1539875901836921960,base_link,0.0,0.0,0.0,0.0,-1.0,0.0,0.0,0.0,0.0,0.0,0.0,0.0,0.0,0.1,-0.33,-0.218,1.21846967915e-07,0.0,0.0,0.0,1.21846967915e-07,0.0,0.0,0.0,1.21846967915e-07,0.196133,0.71588545,14.5530686,9e-08,0.0,0.0,0.0,9e-08,0.0,0.0,0.0,9e-08
1539875901893360872,8698,1539875901892695944,base_link,0.0,0.0,0.0,0.0,-1.0,0.0,0.0,0.0,0.0,0.0,0.0,0.0,0.0,-0.041,-0.319,-0.215,1.21846967915e-07,0.0,0.0,0.0,1.21846967915e-07,0.0,0.0,0.0,1.21846967915e-07,0.22555295,0.79433865,14.09215605,9e-08,0.0,0.0,0.0,9e-08,0.0,0.0,0.0,9e-08
1539875902012678888,8699,1539875902011870952,base_link,0.0,0.0,0.0,0.0,-1.0,0.0,0.0,0.0,0.0,0.0,0.0,0.0,0.0,-0.043,-0.334,-0.258,1.21846967915e-07,0.0,0.0,0.0,1.21846967915e-07,0.0,0.0,0.0,1.21846967915e-07,0.4118793,1.1375714,13.9842829,9e-08,0.0,0.0,0.0,9e-08,0.0,0.0,0.0,9e-08
1539875902087593992,8700,1539875902085614056,base_link,0.0,0.0,0.0,0.0,-1.0,0.0,0.0,0.0,0.0,0.0,0.0,0.0,0.0,0.019,-0.311,-0.288,1.21846967915e-07,0.0,0.0,0.0,1.21846967915e-07,0.0,0.0,0.0,1.21846967915e-07,0.46091255,0.91201845,14.11176935,9e-08,0.0,0.0,0.0,9e-08,0.0,0.0,0.0,9e-08
1539875902195662344,8701,1539875902194799624,base_link,0.0,0.0,0.0,0.0,-1.0,0.0,0.0,0.0,0.0,0.0,0.0,0.0,0.0,-0.075,-0.314,-0.306,1.21846967915e-07,0.0,0.0,0.0,1.21846967915e-07,0.0,0.0,0.0,1.21846967915e-07,0.1765197,0.9022118,13.62143685,9e-08,0.0,0.0,0.0,9e-08,0.0,0.0,0.0,9e-08
1539875902325373320,8702,1539875902324352264,base_link,0.0,0.0,0.0,0.0,-1.0,0.0,0.0,0.0,0.0,0.0,0.0,0.0,0.0,-0.063,-0.32,-0.288,1.21846967915e-07,0.0,0.0,0.0,1.21846967915e-07,0.0,0.0,0.0,1.21846967915e-07,0.14709975,1.0002783,14.73939495,9e-08,0.0,0.0,0.0,9e-08,0.0,0.0,0.0,9e-08
1539875902392746888,8703,1539875902392038728,base_link,0.0,0.0,0.0,0.0,-1.0,0.0,0.0,0.0,0.0,0.0,0.0,0.0,0.0,-0.018,-0.303,-0.286,1.21846967915e-07,0.0,0.0,0.0,1.21846967915e-07,0.0,0.0,0.0,1.21846967915e-07,0.196133,0.7256921,14.8864947,9e-08,0.0,0.0,0.0,9e-08,0.0,0.0,0.0,9e-08
1539875902495043176,8704,1539875902493435560,base_link,0.0,0.0,0.0,0.0,-1.0,0.0,0.0,0.0,0.0,0.0,0.0,0.0,0.0,-0.031,-0.297,-0.28,1.21846967915e-07,0.0,0.0,0.0,1.21846967915e-07,0.0,0.0,0.0,1.21846967915e-07,0.1176798,0.8433719,14.03331615,9e-08,0.0,0.0,0.0,9e-08,0.0,0.0,0.0,9e-08
1539875902647416104,8705,1539875902646519784,base_link,0.0,0.0,0.0,0.0,-1.0,0.0,0.0,0.0,0.0,0.0,0.0,0.0,0.0,-0.086,-0.251,-0.302,1.21846967915e-07,0.0,0.0,0.0,1.21846967915e-07,0.0,0.0,0.0,1.21846967915e-07,-0.16671305,1.14737805,12.552512,9e-08,0.0,0.0,0.0,9e-08,0.0,0.0,0.0,9e-08
1539875902702351432,8706,1539875902701868680,base_link,0.0,0.0,0.0,0.0,-1.0,0.0,0.0,0.0,0.0,0.0,0.0,0.0,0.0,-0.055,-0.251,-0.31,1.21846967915e-07,0.0,0.0,0.0,1.21846967915e-07,0.0,0.0,0.0,1.21846967915e-07,-0.2353596,0.8825985,12.1994726,9e-08,0.0,0.0,0.0,9e-08,0.0,0.0,0.0,9e-08
1539875902785419624,8707,1539875902785133192,base_link,0.0,0.0,0.0,0.0,-1.0,0.0,0.0,0.0,0.0,0.0,0.0,0.0,0.0,-0.037,-0.238,-0.336,1.21846967915e-07,0.0,0.0,0.0,1.21846967915e-07,0.0,0.0,0.0,1.21846967915e-07,-0.30400615,0.89240515,11.62088025,9e-08,0.0,0.0,0.0,9e-08,0.0,0.0,0.0,9e-08
1539875902896264232,8708,1539875902893865320,base_link,0.0,0.0,0.0,0.0,-1.0,0.0,0.0,0.0,0.0,0.0,0.0,0.0,0.0,-0.116,-0.21,-0.339,1.21846967915e-07,0.0,0.0,0.0,1.21846967915e-07,0.0,0.0,0.0,1.21846967915e-07,-0.2157463,1.01008495,10.05181625,9e-08,0.0,0.0,0.0,9e-08,0.0,0.0,0.0,9e-08
1539875902982317384,8709,1539875902981970760,base_link,0.0,0.0,0.0,0.0,-1.0,0.0,0.0,0.0,0.0,0.0,0.0,0.0,0.0,0.143,-0.232,-0.365,1.21846967915e-07,0.0,0.0,0.0,1.21846967915e-07,0.0,0.0,0.0,1.21846967915e-07,-0.3530394,0.81395195,11.76798,9e-08,0.0,0.0,0.0,9e-08,0.0,0.0,0.0,9e-08
1539875903119323560,8710,1539875903118648552,base_link,0.0,0.0,0.0,0.0,-1.0,0.0,0.0,0.0,0.0,0.0,0.0,0.0,0.0,0.084,-0.214,-0.35,1.21846967915e-07,0.0,0.0,0.0,1.21846967915e-07,0.0,0.0,0.0,1.21846967915e-07,-0.3726527,0.93163175,11.22861425,9e-08,0.0,0.0,0.0,9e-08,0.0,0.0,0.0,9e-08
1539875903198151688,8711,1539875903196919880,base_link,0.0,0.0,0.0,0.0,-1.0,0.0,0.0,0.0,0.0,0.0,0.0,0.0,0.0,0.111,-0.212,-0.356,1.21846967915e-07,0.0,0.0,0.0,1.21846967915e-07,0.0,0.0,0.0,1.21846967915e-07,-0.3530394,0.89240515,11.60126695,9e-08,0.0,0.0,0.0,9e-08,0.0,0.0,0.0,9e-08
1539875903306199976,8712,1539875903305147208,base_link,0.0,0.0,0.0,0.0,-1.0,0.0,0.0,0.0,0.0,0.0,0.0,0.0,0.0,-0.04,-0.216,-0.348,1.21846967915e-07,0.0,0.0,0.0,1.21846967915e-07,0.0,0.0,0.0,1.21846967915e-07,-0.4511059,1.0591182,10.65982855,9e-08,0.0,0.0,0.0,9e-08,0.0,0.0,0.0,9e-08
1539875903400881736,8713,1539875903400155016,base_link,0.0,0.0,0.0,0.0,-1.0,0.0,0.0,0.0,0.0,0.0,0.0,0.0,0.0,-0.118,-0.216,-0.345,1.21846967915e-07,0.0,0.0,0.0,1.21846967915e-07,0.0,0.0,0.0,1.21846967915e-07,-0.4314926,1.0002783,11.1991943,9e-08,0.0,0.0,0.0,9e-08,0.0,0.0,0.0,9e-08
1539875903515819528,8714,1539875903515244808,base_link,0.0,0.0,0.0,0.0,-1.0,0.0,0.0,0.0,0.0,0.0,0.0,0.0,0.0,-0.047,-0.234,-0.391,1.21846967915e-07,0.0,0.0,0.0,1.21846967915e-07,0.0,0.0,0.0,1.21846967915e-07,-0.3726527,1.0002783,10.9638347,9e-08,0.0,0.0,0.0,9e-08,0.0,0.0,0.0,9e-08
1539875903618268616,8715,1539875903617793352,base_link,0.0,0.0,0.0,0.0,-1.0,0.0,0.0,0.0,0.0,0.0,0.0,0.0,0.0,-0.156,-0.243,-0.404,1.21846967915e-07,0.0,0.0,0.0,1.21846967915e-07,0.0,0.0,0.0,1.21846967915e-07,-0.5295591,0.75511205,10.87557485,9e-08,0.0,0.0,0.0,9e-08,0.0,0.0,0.0,9e-08
1539875903709095112,8716,1539875903702621928,base_link,0.0,0.0,0.0,0.0,-1.0,0.0,0.0,0.0,0.0,0.0,0.0,0.0,0.0,-0.059,-0.237,-0.403,1.21846967915e-07,0.0,0.0,0.0,1.21846967915e-07,0.0,0.0,0.0,1.21846967915e-07,-0.6080123,0.75511205,10.05181625,9e-08,0.0,0.0,0.0,9e-08,0.0,0.0,0.0,9e-08
1539875903809794984,8717,1539875903808304360,base_link,0.0,0.0,0.0,0.0,-1.0,0.0,0.0,0.0,0.0,0.0,0.0,0.0,0.0,-0.144,-0.231,-0.372,1.21846967915e-07,0.0,0.0,0.0,1.21846967915e-07,0.0,0.0,0.0,1.21846967915e-07,-0.55897905,0.34323275,10.77750835,9e-08,0.0,0.0,0.0,9e-08,0.0,0.0,0.0,9e-08
1539875903900599080,8718,1539875903898449896,base_link,0.0,0.0,0.0,0.0,-1.0,0.0,0.0,0.0,0.0,0.0,0.0,0.0,0.0,-0.05,-0.278,-0.322,1.21846967915e-07,0.0,0.0,0.0,1.21846967915e-07,0.0,0.0,0.0,1.21846967915e-07,-0.65704555,0.44129925,11.79739995,9e-08,0.0,0.0,0.0,9e-08,0.0,0.0,0.0,9e-08
1539875904015661000,8719,1539875904015077448,base_link,0.0,0.0,0.0,0.0,-1.0,0.0,0.0,0.0,0.0,0.0,0.0,0.0,0.0,0.034,-0.277,-0.275,1.21846967915e-07,0.0,0.0,0.0,1.21846967915e-07,0.0,0.0,0.0,1.21846967915e-07,-0.4118793,0.46091255,12.69961175,9e-08,0.0,0.0,0.0,9e-08,0.0,0.0,0.0,9e-08
1539875904127764456,8720,1539875904127118440,base_link,0.0,0.0,0.0,0.0,-1.0,0.0,0.0,0.0,0.0,0.0,0.0,0.0,0.0,-0.067,-0.266,-0.221,1.21846967915e-07,0.0,0.0,0.0,1.21846967915e-07,0.0,0.0,0.0,1.21846967915e-07,-0.6276256,0.588399,11.60126695,9e-08,0.0,0.0,0.0,9e-08,0.0,0.0,0.0,9e-08
1539875904190899464,8721,1539875904190128168,base_link,0.0,0.0,0.0,0.0,-1.0,0.0,0.0,0.0,0.0,0.0,0.0,0.0,0.0,-0.163,-0.254,-0.217,1.21846967915e-07,0.0,0.0,0.0,1.21846967915e-07,0.0,0.0,0.0,1.21846967915e-07,-0.3334261,0.6276256,11.4933938,9e-08,0.0,0.0,0.0,9e-08,0.0,0.0,0.0,9e-08
1539875904370596264,8722,1539875904370025640,base_link,0.0,0.0,0.0,0.0,-1.0,0.0,0.0,0.0,0.0,0.0,0.0,0.0,0.0,-0.411,-0.217,-0.246,1.21846967915e-07,0.0,0.0,0.0,1.21846967915e-07,0.0,0.0,0.0,1.21846967915e-07,-0.3726527,0.8433719,11.32668075,9e-08,0.0,0.0,0.0,9e-08,0.0,0.0,0.0,9e-08
1539875904405308456,8723,1539875904404724840,base_link,0.0,0.0,0.0,0.0,-1.0,0.0,0.0,0.0,0.0,0.0,0.0,0.0,0.0,-0.387,-0.204,-0.247,1.21846967915e-07,0.0,0.0,0.0,1.21846967915e-07,0.0,0.0,0.0,1.21846967915e-07,-0.5491724,0.8433719,11.7875933,9e-08,0.0,0.0,0.0,9e-08,0.0,0.0,0.0,9e-08
1539875904498031944,8724,1539875904497154440,base_link,0.0,0.0,0.0,0.0,-1.0,0.0,0.0,0.0,0.0,0.0,0.0,0.0,0.0,-0.386,-0.211,-0.258,1.21846967915e-07,0.0,0.0,0.0,1.21846967915e-07,0.0,0.0,0.0,1.21846967915e-07,-0.6276256,1.18660465,11.93469305,9e-08,0.0,0.0,0.0,9e-08,0.0,0.0,0.0,9e-08
1539875904607382376,8725,1539875904605742536,base_link,0.0,0.0,0.0,0.0,-1.0,0.0,0.0,0.0,0.0,0.0,0.0,0.0,0.0,-0.583,-0.181,-0.293,1.21846967915e-07,0.0,0.0,0.0,1.21846967915e-07,0.0,0.0,0.0,1.21846967915e-07,-0.61781895,1.0198916,12.3759923,9e-08,0.0,0.0,0.0,9e-08,0.0,0.0,0.0,9e-08
1539875904690177704,8726,1539875904689582984,base_link,0.0,0.0,0.0,0.0,-1.0,0.0,0.0,0.0,0.0,0.0,0.0,0.0,0.0,-0.586,-0.164,-0.286,1.21846967915e-07,0.0,0.0,0.0,1.21846967915e-07,0.0,0.0,0.0,1.21846967915e-07,-0.65704555,0.980665,12.3759923,9e-08,0.0,0.0,0.0,9e-08,0.0,0.0,0.0,9e-08
1539875904781007816,8727,1539875904779825032,base_link,0.0,0.0,0.0,0.0,-1.0,0.0,0.0,0.0,0.0,0.0,0.0,0.0,0.0,-0.612,-0.118,-0.289,1.21846967915e-07,0.0,0.0,0.0,1.21846967915e-07,0.0,0.0,0.0,1.21846967915e-07,-0.6864655,0.75511205,11.60126695,9e-08,0.0,0.0,0.0,9e-08,0.0,0.0,0.0,9e-08
1539875904879876264,8728,1539875904878124392,base_link,0.0,0.0,0.0,0.0,-1.0,0.0,0.0,0.0,0.0,0.0,0.0,0.0,0.0,-0.535,-0.081,-0.277,1.21846967915e-07,0.0,0.0,0.0,1.21846967915e-07,0.0,0.0,0.0,1.21846967915e-07,-0.980665,0.6276256,10.9246081,9e-08,0.0,0.0,0.0,9e-08,0.0,0.0,0.0,9e-08
1539875905010593096,8729,1539875905009101800,base_link,0.0,0.0,0.0,0.0,-1.0,0.0,0.0,0.0,0.0,0.0,0.0,0.0,0.0,-0.506,-0.047,-0.242,1.21846967915e-07,0.0,0.0,0.0,1.21846967915e-07,0.0,0.0,0.0,1.21846967915e-07,-1.0591182,0.57859235,8.7867584,9e-08,0.0,0.0,0.0,9e-08,0.0,0.0,0.0,9e-08
1539875905136965576,8730,1539875905136536936,base_link,0.0,0.0,0.0,0.0,-1.0,0.0,0.0,0.0,0.0,0.0,0.0,0.0,0.0,-0.514,-0.084,-0.221,1.21846967915e-07,0.0,0.0,0.0,1.21846967915e-07,0.0,0.0,0.0,1.21846967915e-07,-1.1375714,0.9218251,10.1793027,9e-08,0.0,0.0,0.0,9e-08,0.0,0.0,0.0,9e-08
1539875905196055464,8731,1539875905195368200,base_link,0.0,0.0,0.0,0.0,-1.0,0.0,0.0,0.0,0.0,0.0,0.0,0.0,0.0,-0.436,-0.059,-0.242,1.21846967915e-07,0.0,0.0,0.0,1.21846967915e-07,0.0,0.0,0.0,1.21846967915e-07,-1.0787315,0.34323275,10.2381426,9e-08,0.0,0.0,0.0,9e-08,0.0,0.0,0.0,9e-08
1539875905301824200,8732,1539875905300181448,base_link,0.0,0.0,0.0,0.0,-1.0,0.0,0.0,0.0,0.0,0.0,0.0,0.0,0.0,-0.321,-0.051,-0.221,1.21846967915e-07,0.0,0.0,0.0,1.21846967915e-07,0.0,0.0,0.0,1.21846967915e-07,-0.9610517,0.1765197,10.5519554,9e-08,0.0,0.0,0.0,9e-08,0.0,0.0,0.0,9e-08
1539875905392004264,8733,1539875905391445096,base_link,0.0,0.0,0.0,0.0,-1.0,0.0,0.0,0.0,0.0,0.0,0.0,0.0,0.0,-0.186,-0.051,-0.175,1.21846967915e-07,0.0,0.0,0.0,1.21846967915e-07,0.0,0.0,0.0,1.21846967915e-07,-0.9414384,0.1176798,10.46369555,9e-08,0.0,0.0,0.0,9e-08,0.0,0.0,0.0,9e-08
1539875905521865320,8734,1539875905521174504,base_link,0.0,0.0,0.0,0.0,-1.0,0.0,0.0,0.0,0.0,0.0,0.0,0.0,0.0,-0.153,-0.06,-0.088,1.21846967915e-07,0.0,0.0,0.0,1.21846967915e-07,0.0,0.0,0.0,1.21846967915e-07,-1.0591182,-0.00980665,11.0226746,9e-08,0.0,0.0,0.0,9e-08,0.0,0.0,0.0,9e-08
1539875905631849480,8735,1539875905630581448,base_link,0.0,0.0,0.0,0.0,-1.0,0.0,0.0,0.0,0.0,0.0,0.0,0.0,0.0,-0.222,-0.049,-0.04,1.21846967915e-07,0.0,0.0,0.0,1.21846967915e-07,0.0,0.0,0.0,1.21846967915e-07,-1.0591182,0.4511059,10.38524235,9e-08,0.0,0.0,0.0,9e-08,0.0,0.0,0.0,9e-08
1539875905694012520,8736,1539875905693090888,base_link,0.0,0.0,0.0,0.0,-1.0,0.0,0.0,0.0,0.0,0.0,0.0,0.0,0.0,-0.156,-0.032,-0.054,1.21846967915e-07,0.0,0.0,0.0,1.21846967915e-07,0.0,0.0,0.0,1.21846967915e-07,-1.0787315,0.20593965,9.42419065,9e-08,0.0,0.0,0.0,9e-08,0.0,0.0,0.0,9e-08
1539875905799883656,8737,1539875905799389864,base_link,0.0,0.0,0.0,0.0,-1.0,0.0,0.0,0.0,0.0,0.0,0.0,0.0,0.0,0.028,-0.052,-0.062,1.21846967915e-07,0.0,0.0,0.0,1.21846967915e-07,0.0,0.0,0.0,1.21846967915e-07,-1.06892485,0.26477955,9.62032365,9e-08,0.0,0.0,0.0,9e-08,0.0,0.0,0.0,9e-08
1539875905892137832,8738,1539875905890628456,base_link,0.0,0.0,0.0,0.0,-1.0,0.0,0.0,0.0,0.0,0.0,0.0,0.0,0.0,0.006,-0.049,-0.052,1.21846967915e-07,0.0,0.0,0.0,1.21846967915e-07,0.0,0.0,0.0,1.21846967915e-07,-1.06892485,0.32361945,8.46313895,9e-08,0.0,0.0,0.0,9e-08,0.0,0.0,0.0,9e-08
1539875905997660616,8739,1539875905997075944,base_link,0.0,0.0,0.0,0.0,-1.0,0.0,0.0,0.0,0.0,0.0,0.0,0.0,0.0,0.116,-0.067,-0.075,1.21846967915e-07,0.0,0.0,0.0,1.21846967915e-07,0.0,0.0,0.0,1.21846967915e-07,-0.95124505,1.0395049,9.8851032,9e-08,0.0,0.0,0.0,9e-08,0.0,0.0,0.0,9e-08
1539875906095094792,8740,1539875906092957512,base_link,0.0,0.0,0.0,0.0,-1.0,0.0,0.0,0.0,0.0,0.0,0.0,0.0,0.0,0.108,-0.057,-0.143,1.21846967915e-07,0.0,0.0,0.0,1.21846967915e-07,0.0,0.0,0.0,1.21846967915e-07,-0.75511205,1.0198916,11.38552065,9e-08,0.0,0.0,0.0,9e-08,0.0,0.0,0.0,9e-08
1539875906227245288,8741,1539875906226498184,base_link,0.0,0.0,0.0,0.0,-1.0,0.0,0.0,0.0,0.0,0.0,0.0,0.0,0.0,0.127,-2.59625121419e-17,-0.212,1.21846967915e-07,0.0,0.0,0.0,1.21846967915e-07,0.0,0.0,0.0,1.21846967915e-07,-0.85317855,1.02969825,9.9243298,9e-08,0.0,0.0,0.0,9e-08,0.0,0.0,0.0,9e-08
1539875906280103080,8742,1539875906279417672,base_link,0.0,0.0,0.0,0.0,-1.0,0.0,0.0,0.0,0.0,0.0,0.0,0.0,0.0,0.039,0.005,-0.254,1.21846967915e-07,0.0,0.0,0.0,1.21846967915e-07,0.0,0.0,0.0,1.21846967915e-07,-0.9218251,0.73549875,8.34545915,9e-08,0.0,0.0,0.0,9e-08,0.0,0.0,0.0,9e-08
1539875906371807432,8743,1539875906371277608,base_link,0.0,0.0,0.0,0.0,-1.0,0.0,0.0,0.0,0.0,0.0,0.0,0.0,0.0,0.022,-0.011,-0.272,1.21846967915e-07,0.0,0.0,0.0,1.21846967915e-07,0.0,0.0,0.0,1.21846967915e-07,-0.99047165,0.53936575,8.63965865,9e-08,0.0,0.0,0.0,9e-08,0.0,0.0,0.0,9e-08
1539875906495793384,8744,1539875906495363080,base_link,0.0,0.0,0.0,0.0,-1.0,0.0,0.0,0.0,0.0,0.0,0.0,0.0,0.0,0.2,-0.021,-0.281,1.21846967915e-07,0.0,0.0,0.0,1.21846967915e-07,0.0,0.0,0.0,1.21846967915e-07,-1.02969825,0.28439285,10.05181625,9e-08,0.0,0.0,0.0,9e-08,0.0,0.0,0.0,9e-08
1539875906606951272,8745,1539875906606015208,base_link,0.0,0.0,0.0,0.0,-1.0,0.0,0.0,0.0,0.0,0.0,0.0,0.0,0.0,0.504,-0.041,-0.248,1.21846967915e-07,0.0,0.0,0.0,1.21846967915e-07,0.0,0.0,0.0,1.21846967915e-07,-1.10815145,0.1372931,11.11093445,9e-08,0.0,0.0,0.0,9e-08,0.0,0.0,0.0,9e-08
1539875906743062792,8746,1539875906718810184,base_link,0.0,0.0,0.0,0.0,-1.0,0.0,0.0,0.0,0.0,0.0,0.0,0.0,0.0,0.432,-0.054,-0.161,1.21846967915e-07,0.0,0.0,0.0,1.21846967915e-07,0.0,0.0,0.0,1.21846967915e-07,-1.1179581,-0.0980665,10.7284751,9e-08,0.0,0.0,0.0,9e-08,0.0,0.0,0.0,9e-08
1539875906792494376,8747,1539875906791530024,base_link,0.0,0.0,0.0,0.0,-1.0,0.0,0.0,0.0,0.0,0.0,0.0,0.0,0.0,0.404,-0.101,-0.104,1.21846967915e-07,0.0,0.0,0.0,1.21846967915e-07,0.0,0.0,0.0,1.21846967915e-07,-1.0395049,0.12748645,11.79739995,9e-08,0.0,0.0,0.0,9e-08,0.0,0.0,0.0,9e-08
1539875906896890504,8748,1539875906895659976,base_link,0.0,0.0,0.0,0.0,-1.0,0.0,0.0,0.0,0.0,0.0,0.0,0.0,0.0,0.328,-0.092,-0.067,1.21846967915e-07,0.0,0.0,0.0,1.21846967915e-07,0.0,0.0,0.0,1.21846967915e-07,-1.18660465,0.00980665,11.09132115,9e-08,0.0,0.0,0.0,9e-08,0.0,0.0,0.0,9e-08
1539875907011774696,8749,1539875907011338952,base_link,0.0,0.0,0.0,0.0,-1.0,0.0,0.0,0.0,0.0,0.0,0.0,0.0,0.0,0.395,-0.107,-0.039,1.21846967915e-07,0.0,0.0,0.0,1.21846967915e-07,0.0,0.0,0.0,1.21846967915e-07,-1.0787315,0.26477955,12.01314625,9e-08,0.0,0.0,0.0,9e-08,0.0,0.0,0.0,9e-08
1539875907091653768,8750,1539875907091067304,base_link,0.0,0.0,0.0,0.0,-1.0,0.0,0.0,0.0,0.0,0.0,0.0,0.0,0.0,-0.018,-0.089,-0.032,1.21846967915e-07,0.0,0.0,0.0,1.21846967915e-07,0.0,0.0,0.0,1.21846967915e-07,-0.99047165,0.26477955,7.69822025,9e-08,0.0,0.0,0.0,9e-08,0.0,0.0,0.0,9e-08
1539875907210497544,8751,1539875907209294824,base_link,0.0,0.0,0.0,0.0,-1.0,0.0,0.0,0.0,0.0,0.0,0.0,0.0,0.0,-0.131,-0.155,-0.069,1.21846967915e-07,0.0,0.0,0.0,1.21846967915e-07,0.0,0.0,0.0,1.21846967915e-07,-1.10815145,1.12776475,10.89518815,9e-08,0.0,0.0,0.0,9e-08,0.0,0.0,0.0,9e-08
1539875907299158440,8752,1539875907298422984,base_link,0.0,0.0,0.0,0.0,-1.0,0.0,0.0,0.0,0.0,0.0,0.0,0.0,0.0,-0.121,-0.124,-0.178,1.21846967915e-07,0.0,0.0,0.0,1.21846967915e-07,0.0,0.0,0.0,1.21846967915e-07,-0.9022118,1.02969825,11.38552065,9e-08,0.0,0.0,0.0,9e-08,0.0,0.0,0.0,9e-08
1539875907422446632,8753,1539875907420931368,base_link,0.0,0.0,0.0,0.0,-1.0,0.0,0.0,0.0,0.0,0.0,0.0,0.0,0.0,-0.108,-0.069,-0.282,1.21846967915e-07,0.0,0.0,0.0,1.21846967915e-07,0.0,0.0,0.0,1.21846967915e-07,-0.97085835,0.87279185,8.34545915,9e-08,0.0,0.0,0.0,9e-08,0.0,0.0,0.0,9e-08
1539875907492721928,8754,1539875907492117256,base_link,0.0,0.0,0.0,0.0,-1.0,0.0,0.0,0.0,0.0,0.0,0.0,0.0,0.0,-0.26,-0.065,-0.319,1.21846967915e-07,0.0,0.0,0.0,1.21846967915e-07,0.0,0.0,0.0,1.21846967915e-07,-0.65704555,0.7256921,8.81617835,9e-08,0.0,0.0,0.0,9e-08,0.0,0.0,0.0,9e-08
1539875907596197448,8755,1539875907595675528,base_link,0.0,0.0,0.0,0.0,-1.0,0.0,0.0,0.0,0.0,0.0,0.0,0.0,0.0,-0.285,-0.094,-0.348,1.21846967915e-07,0.0,0.0,0.0,1.21846967915e-07,0.0,0.0,0.0,1.21846967915e-07,-0.8237586,0.2353596,10.3754357,9e-08,0.0,0.0,0.0,9e-08,0.0,0.0,0.0,9e-08
1539875907712705896,8756,1539875907712008008,base_link,0.0,0.0,0.0,0.0,-1.0,0.0,0.0,0.0,0.0,0.0,0.0,0.0,0.0,0.364,-0.12,-0.335,1.21846967915e-07,0.0,0.0,0.0,1.21846967915e-07,0.0,0.0,0.0,1.21846967915e-07,-0.5295591,-0.57859235,12.6113519,9e-08,0.0,0.0,0.0,9e-08,0.0,0.0,0.0,9e-08
1539875907788977480,8757,1539875907787022440,base_link,0.0,0.0,0.0,0.0,-1.0,0.0,0.0,0.0,0.0,0.0,0.0,0.0,0.0,0.521,-0.16,-0.241,1.21846967915e-07,0.0,0.0,0.0,1.21846967915e-07,0.0,0.0,0.0,1.21846967915e-07,-0.3334261,-0.08825985,13.8273765,9e-08,0.0,0.0,0.0,9e-08,0.0,0.0,0.0,9e-08
1539875907890938632,8758,1539875907889714984,base_link,0.0,0.0,0.0,0.0,-1.0,0.0,0.0,0.0,0.0,0.0,0.0,0.0,0.0,0.504,-0.192,-0.103,1.21846967915e-07,0.0,0.0,0.0,1.21846967915e-07,0.0,0.0,0.0,1.21846967915e-07,-0.0588399,0.02941995,15.62199345,9e-08,0.0,0.0,0.0,9e-08,0.0,0.0,0.0,9e-08
1539875908003113032,8759,1539875908002799688,base_link,0.0,0.0,0.0,0.0,-1.0,0.0,0.0,0.0,0.0,0.0,0.0,0.0,0.0,0.215,-0.165,-0.018,1.21846967915e-07,0.0,0.0,0.0,1.21846967915e-07,0.0,0.0,0.0,1.21846967915e-07,-0.3138128,0.6080123,12.38579895,9e-08,0.0,0.0,0.0,9e-08,0.0,0.0,0.0,9e-08
1539875908094284712,8760,1539875908093714696,base_link,0.0,0.0,0.0,0.0,-1.0,0.0,0.0,0.0,0.0,0.0,0.0,0.0,0.0,0.168,-0.196,-0.025,1.21846967915e-07,0.0,0.0,0.0,1.21846967915e-07,0.0,0.0,0.0,1.21846967915e-07,-0.1569064,1.0591182,12.93497135,9e-08,0.0,0.0,0.0,9e-08,0.0,0.0,0.0,9e-08
1539875908255007144,8761,1539875908254136648,base_link,0.0,0.0,0.0,0.0,-1.0,0.0,0.0,0.0,0.0,0.0,0.0,0.0,0.0,0.198,-0.1,-0.251,1.21846967915e-07,0.0,0.0,0.0,1.21846967915e-07,0.0,0.0,0.0,1.21846967915e-07,-0.3530394,1.4906108,9.2967042,9e-08,0.0,0.0,0.0,9e-08,0.0,0.0,0.0,9e-08
1539875908333721096,8762,1539875908331178664,base_link,0.0,0.0,0.0,0.0,-1.0,0.0,0.0,0.0,0.0,0.0,0.0,0.0,0.0,0.421,-0.122,-0.366,1.21846967915e-07,0.0,0.0,0.0,1.21846967915e-07,0.0,0.0,0.0,1.21846967915e-07,-0.392266,1.1571847,7.85512665,9e-08,0.0,0.0,0.0,9e-08,0.0,0.0,0.0,9e-08
1539875908410809448,8763,1539875908410379656,base_link,0.0,0.0,0.0,0.0,-1.0,0.0,0.0,0.0,0.0,0.0,0.0,0.0,0.0,0.451,-0.165,-0.463,1.21846967915e-07,0.0,0.0,0.0,1.21846967915e-07,0.0,0.0,0.0,1.21846967915e-07,-0.28439285,0.9610517,7.7864801,9e-08,0.0,0.0,0.0,9e-08,0.0,0.0,0.0,9e-08
1539875908502488392,8764,1539875908501818088,base_link,0.0,0.0,0.0,0.0,-1.0,0.0,0.0,0.0,0.0,0.0,0.0,0.0,0.0,0.338,-0.241,-0.448,1.21846967915e-07,0.0,0.0,0.0,1.21846967915e-07,0.0,0.0,0.0,1.21846967915e-07,-0.1569064,0.57859235,8.9828914,9e-08,0.0,0.0,0.0,9e-08,0.0,0.0,0.0,9e-08
1539875908647722376,8765,1539875908647258440,base_link,0.0,0.0,0.0,0.0,-1.0,0.0,0.0,0.0,0.0,0.0,0.0,0.0,0.0,0.265,-0.337,-0.392,1.21846967915e-07,0.0,0.0,0.0,1.21846967915e-07,0.0,0.0,0.0,1.21846967915e-07,0.20593965,0.24516625,13.3566573,9e-08,0.0,0.0,0.0,9e-08,0.0,0.0,0.0,9e-08
1539875908739492968,8766,1539875908736930088,base_link,0.0,0.0,0.0,0.0,-1.0,0.0,0.0,0.0,0.0,0.0,0.0,0.0,0.0,0.203,-0.385,-0.318,1.21846967915e-07,0.0,0.0,0.0,1.21846967915e-07,0.0,0.0,0.0,1.21846967915e-07,0.38245935,0.588399,14.709975,9e-08,0.0,0.0,0.0,9e-08,0.0,0.0,0.0,9e-08
1539875908837493544,8767,1539875908836834312,base_link,0.0,0.0,0.0,0.0,-1.0,0.0,0.0,0.0,0.0,0.0,0.0,0.0,0.0,-0.104,-0.438,-0.205,1.21846967915e-07,0.0,0.0,0.0,1.21846967915e-07,0.0,0.0,0.0,1.21846967915e-07,0.40207265,0.53936575,15.07282105,9e-08,0.0,0.0,0.0,9e-08,0.0,0.0,0.0,9e-08
1539875908885581864,8768,1539875908883328712,base_link,0.0,0.0,0.0,0.0,-1.0,0.0,0.0,0.0,0.0,0.0,0.0,0.0,0.0,-0.182,-0.384,-0.229,1.21846967915e-07,0.0,0.0,0.0,1.21846967915e-07,0.0,0.0,0.0,1.21846967915e-07,0.3138128,0.75511205,12.7682583,9e-08,0.0,0.0,0.0,9e-08,0.0,0.0,0.0,9e-08
1539875908997181960,8769,1539875908996645000,base_link,0.0,0.0,0.0,0.0,-1.0,0.0,0.0,0.0,0.0,0.0,0.0,0.0,0.0,-0.048,-0.417,-0.226,1.21846967915e-07,0.0,0.0,0.0,1.21846967915e-07,0.0,0.0,0.0,1.21846967915e-07,0.5491724,0.6276256,14.121576,9e-08,0.0,0.0,0.0,9e-08,0.0,0.0,0.0,9e-08
1539875909094603400,8770,1539875909093220872,base_link,0.0,0.0,0.0,0.0,-1.0,0.0,0.0,0.0,0.0,0.0,0.0,0.0,0.0,0.072,-0.407,-0.231,1.21846967915e-07,0.0,0.0,0.0,1.21846967915e-07,0.0,0.0,0.0,1.21846967915e-07,0.53936575,0.9022118,13.89602305,9e-08,0.0,0.0,0.0,9e-08,0.0,0.0,0.0,9e-08
1539875909191675656,8771,1539875909190700872,base_link,0.0,0.0,0.0,0.0,-1.0,0.0,0.0,0.0,0.0,0.0,0.0,0.0,0.0,-0.096,-0.419,-0.267,1.21846967915e-07,0.0,0.0,0.0,1.21846967915e-07,0.0,0.0,0.0,1.21846967915e-07,0.67665885,0.89240515,15.42586045,9e-08,0.0,0.0,0.0,9e-08,0.0,0.0,0.0,9e-08
1539875909293998728,8772,1539875909293286344,base_link,0.0,0.0,0.0,0.0,-1.0,0.0,0.0,0.0,0.0,0.0,0.0,0.0,0.0,-0.083,-0.422,-0.249,1.21846967915e-07,0.0,0.0,0.0,1.21846967915e-07,0.0,0.0,0.0,1.21846967915e-07,0.7256921,0.87279185,16.23000575,9e-08,0.0,0.0,0.0,9e-08,0.0,0.0,0.0,9e-08
1539875909405320648,8773,1539875909403407400,base_link,0.0,0.0,0.0,0.0,-1.0,0.0,0.0,0.0,0.0,0.0,0.0,0.0,0.0,-0.108,-0.466,-0.261,1.21846967915e-07,0.0,0.0,0.0,1.21846967915e-07,0.0,0.0,0.0,1.21846967915e-07,0.980665,0.85317855,17.3773838,9e-08,0.0,0.0,0.0,9e-08,0.0,0.0,0.0,9e-08
1539875909499133256,8774,1539875909498427688,base_link,0.0,0.0,0.0,0.0,-1.0,0.0,0.0,0.0,0.0,0.0,0.0,0.0,0.0,-0.037,-0.395,-0.219,1.21846967915e-07,0.0,0.0,0.0,1.21846967915e-07,0.0,0.0,0.0,1.21846967915e-07,0.7649187,1.0002783,15.46508705,9e-08,0.0,0.0,0.0,9e-08,0.0,0.0,0.0,9e-08
1539875909603986312,8775,1539875909603272168,base_link,0.0,0.0,0.0,0.0,-1.0,0.0,0.0,0.0,0.0,0.0,0.0,0.0,0.0,-0.092,-0.385,-0.23,1.21846967915e-07,0.0,0.0,0.0,1.21846967915e-07,0.0,0.0,0.0,1.21846967915e-07,1.08853815,0.79433865,15.6514134,9e-08,0.0,0.0,0.0,9e-08,0.0,0.0,0.0,9e-08
1539875909691969768,8776,1539875909691310056,base_link,0.0,0.0,0.0,0.0,-1.0,0.0,0.0,0.0,0.0,0.0,0.0,0.0,0.0,-0.209,-0.378,-0.223,1.21846967915e-07,0.0,0.0,0.0,1.21846967915e-07,0.0,0.0,0.0,1.21846967915e-07,1.0395049,0.97085835,15.69064,9e-08,0.0,0.0,0.0,9e-08,0.0,0.0,0.0,9e-08
1539875909804498824,8777,1539875909801505384,base_link,0.0,0.0,0.0,0.0,-1.0,0.0,0.0,0.0,0.0,0.0,0.0,0.0,0.0,-0.285,-0.353,-0.228,1.21846967915e-07,0.0,0.0,0.0,1.21846967915e-07,0.0,0.0,0.0,1.21846967915e-07,0.8629852,1.24544455,15.2395341,9e-08,0.0,0.0,0.0,9e-08,0.0,0.0,0.0,9e-08
1539875909899548328,8778,1539875909898430632,base_link,0.0,0.0,0.0,0.0,-1.0,0.0,0.0,0.0,0.0,0.0,0.0,0.0,0.0,-0.286,-0.337,-0.274,1.21846967915e-07,0.0,0.0,0.0,1.21846967915e-07,0.0,0.0,0.0,1.21846967915e-07,0.87279185,1.1375714,15.38663385,9e-08,0.0,0.0,0.0,9e-08,0.0,0.0,0.0,9e-08
1539875909993087880,8779,1539875909992598472,base_link,0.0,0.0,0.0,0.0,-1.0,0.0,0.0,0.0,0.0,0.0,0.0,0.0,0.0,-0.333,-0.329,-0.278,1.21846967915e-07,0.0,0.0,0.0,1.21846967915e-07,0.0,0.0,0.0,1.21846967915e-07,0.97085835,0.77472535,15.1218543,9e-08,0.0,0.0,0.0,9e-08,0.0,0.0,0.0,9e-08
1539875910099345576,8780,1539875910098825992,base_link,0.0,0.0,0.0,0.0,-1.0,0.0,0.0,0.0,0.0,0.0,0.0,0.0,0.0,-0.34,-0.275,-0.275,1.21846967915e-07,0.0,0.0,0.0,1.21846967915e-07,0.0,0.0,0.0,1.21846967915e-07,0.6864655,0.91201845,15.19050085,9e-08,0.0,0.0,0.0,9e-08,0.0,0.0,0.0,9e-08
1539875910192377416,8781,1539875910191785352,base_link,0.0,0.0,0.0,0.0,-1.0,0.0,0.0,0.0,0.0,0.0,0.0,0.0,0.0,-0.35,-0.244,-0.277,1.21846967915e-07,0.0,0.0,0.0,1.21846967915e-07,0.0,0.0,0.0,1.21846967915e-07,0.5491724,0.81395195,14.1804159,9e-08,0.0,0.0,0.0,9e-08,0.0,0.0,0.0,9e-08
1539875910294200360,8782,1539875910293609032,base_link,0.0,0.0,0.0,0.0,-1.0,0.0,0.0,0.0,0.0,0.0,0.0,0.0,0.0,-0.371,-0.217,-0.257,1.21846967915e-07,0.0,0.0,0.0,1.21846967915e-07,0.0,0.0,0.0,1.21846967915e-07,0.42168595,0.8825985,13.69989005,9e-08,0.0,0.0,0.0,9e-08,0.0,0.0,0.0,9e-08
1539875910417631272,8783,1539875910417085224,base_link,0.0,0.0,0.0,0.0,-1.0,0.0,0.0,0.0,0.0,0.0,0.0,0.0,0.0,-0.423,-0.177,-0.251,1.21846967915e-07,0.0,0.0,0.0,1.21846967915e-07,0.0,0.0,0.0,1.21846967915e-07,0.392266,1.26505785,12.52309205,9e-08,0.0,0.0,0.0,9e-08,0.0,0.0,0.0,9e-08
1539875910470773096,8784,1539875910469922120,base_link,0.0,0.0,0.0,0.0,-1.0,0.0,0.0,0.0,0.0,0.0,0.0,0.0,0.0,-0.541,-0.168,-0.277,1.21846967915e-07,0.0,0.0,0.0,1.21846967915e-07,0.0,0.0,0.0,1.21846967915e-07,0.36284605,0.93163175,12.67999845,9e-08,0.0,0.0,0.0,9e-08,0.0,0.0,0.0,9e-08
1539875910588746600,8785,1539875910588333544,base_link,0.0,0.0,0.0,0.0,-1.0,0.0,0.0,0.0,0.0,0.0,0.0,0.0,0.0,-0.495,-0.143,-0.266,1.21846967915e-07,0.0,0.0,0.0,1.21846967915e-07,0.0,0.0,0.0,1.21846967915e-07,0.16671305,1.0198916,12.0425662,9e-08,0.0,0.0,0.0,9e-08,0.0,0.0,0.0,9e-08
1539875910711746184,8786,1539875910710827592,base_link,0.0,0.0,0.0,0.0,-1.0,0.0,0.0,0.0,0.0,0.0,0.0,0.0,0.0,-0.457,-0.133,-0.269,1.21846967915e-07,0.0,0.0,0.0,1.21846967915e-07,0.0,0.0,0.0,1.21846967915e-07,0.0196133,0.588399,12.4544455,9e-08,0.0,0.0,0.0,9e-08,0.0,0.0,0.0,9e-08
1539875910795930856,8787,1539875910795099016,base_link,0.0,0.0,0.0,0.0,-1.0,0.0,0.0,0.0,0.0,0.0,0.0,0.0,0.0,-0.474,-0.128,-0.215,1.21846967915e-07,0.0,0.0,0.0,1.21846967915e-07,0.0,0.0,0.0,1.21846967915e-07,0.08825985,0.2549729,10.8461549,9e-08,0.0,0.0,0.0,9e-08,0.0,0.0,0.0,9e-08
1539875910903871528,8788,1539875910902858408,base_link,0.0,0.0,0.0,0.0,-1.0,0.0,0.0,0.0,0.0,0.0,0.0,0.0,0.0,-0.468,-0.089,-0.159,1.21846967915e-07,0.0,0.0,0.0,1.21846967915e-07,0.0,0.0,0.0,1.21846967915e-07,0.0588399,0.5295591,8.81617835,9e-08,0.0,0.0,0.0,9e-08,0.0,0.0,0.0,9e-08
1539875910991916712,8789,1539875910991411720,base_link,0.0,0.0,0.0,0.0,-1.0,0.0,0.0,0.0,0.0,0.0,0.0,0.0,0.0,-0.528,-0.105,-0.142,1.21846967915e-07,0.0,0.0,0.0,1.21846967915e-07,0.0,0.0,0.0,1.21846967915e-07,-0.1372931,0.392266,9.414384,9e-08,0.0,0.0,0.0,9e-08,0.0,0.0,0.0,9e-08
1539875911107813864,8790,1539875911107212840,base_link,0.0,0.0,0.0,0.0,-1.0,0.0,0.0,0.0,0.0,0.0,0.0,0.0,0.0,-0.299,-0.14,-0.109,1.21846967915e-07,0.0,0.0,0.0,1.21846967915e-07,0.0,0.0,0.0,1.21846967915e-07,-0.2157463,0.36284605,13.46453045,9e-08,0.0,0.0,0.0,9e-08,0.0,0.0,0.0,9e-08
1539875911187274120,8791,1539875911186770376,base_link,0.0,0.0,0.0,0.0,-1.0,0.0,0.0,0.0,0.0,0.0,0.0,0.0,0.0,-0.354,-0.113,-0.091,1.21846967915e-07,0.0,0.0,0.0,1.21846967915e-07,0.0,0.0,0.0,1.21846967915e-07,-0.2157463,-0.0392266,14.7688149,9e-08,0.0,0.0,0.0,9e-08,0.0,0.0,0.0,9e-08
1539875911307665672,8792,1539875911302621608,base_link,0.0,0.0,0.0,0.0,-1.0,0.0,0.0,0.0,0.0,0.0,0.0,0.0,0.0,-0.652,-0.058,-0.013,1.21846967915e-07,0.0,0.0,0.0,1.21846967915e-07,0.0,0.0,0.0,1.21846967915e-07,-0.10787315,0.10787315,12.1210194,9e-08,0.0,0.0,0.0,9e-08,0.0,0.0,0.0,9e-08
1539875911400193800,8793,1539875911399336808,base_link,0.0,0.0,0.0,0.0,-1.0,0.0,0.0,0.0,0.0,0.0,0.0,0.0,0.0,-0.463,-0.009,0.062,1.21846967915e-07,0.0,0.0,0.0,1.21846967915e-07,0.0,0.0,0.0,1.21846967915e-07,-0.5099458,0.6276256,11.40513395,9e-08,0.0,0.0,0.0,9e-08,0.0,0.0,0.0,9e-08
1539875911505229160,8794,1539875911504502824,base_link,0.0,0.0,0.0,0.0,-1.0,0.0,0.0,0.0,0.0,0.0,0.0,0.0,0.0,-0.338,0.033,0.021,1.21846967915e-07,0.0,0.0,0.0,1.21846967915e-07,0.0,0.0,0.0,1.21846967915e-07,-0.4903325,0.5295591,9.5124505,9e-08,0.0,0.0,0.0,9e-08,0.0,0.0,0.0,9e-08
1539875911591844936,8795,1539875911591404040,base_link,0.0,0.0,0.0,0.0,-1.0,0.0,0.0,0.0,0.0,0.0,0.0,0.0,0.0,-0.374,0.089,-0.001,1.21846967915e-07,0.0,0.0,0.0,1.21846967915e-07,0.0,0.0,0.0,1.21846967915e-07,-0.46091255,0.8041453,7.42363405,9e-08,0.0,0.0,0.0,9e-08,0.0,0.0,0.0,9e-08
1539875911737516264,8796,1539875911736646152,base_link,0.0,0.0,0.0,0.0,-1.0,0.0,0.0,0.0,0.0,0.0,0.0,0.0,0.0,-0.326,0.059,-0.076,1.21846967915e-07,0.0,0.0,0.0,1.21846967915e-07,0.0,0.0,0.0,1.21846967915e-07,-0.8041453,0.73549875,6.59987545,9e-08,0.0,0.0,0.0,9e-08,0.0,0.0,0.0,9e-08
1539875911816794280,8797,1539875911816244392,base_link,0.0,0.0,0.0,0.0,-1.0,0.0,0.0,0.0,0.0,0.0,0.0,0.0,0.0,-0.16,0.061,-0.099,1.21846967915e-07,0.0,0.0,0.0,1.21846967915e-07,0.0,0.0,0.0,1.21846967915e-07,-0.7256921,0.28439285,7.50208725,9e-08,0.0,0.0,0.0,9e-08,0.0,0.0,0.0,9e-08
1539875911932295432,8798,1539875911931876968,base_link,0.0,0.0,0.0,0.0,-1.0,0.0,0.0,0.0,0.0,0.0,0.0,0.0,0.0,0.046,0.052,-0.053,1.21846967915e-07,0.0,0.0,0.0,1.21846967915e-07,0.0,0.0,0.0,1.21846967915e-07,-0.65704555,0.1569064,8.9828914,9e-08,0.0,0.0,0.0,9e-08,0.0,0.0,0.0,9e-08
1539875911998714216,8799,1539875911998020072,base_link,0.0,0.0,0.0,0.0,-1.0,0.0,0.0,0.0,0.0,0.0,0.0,0.0,0.0,0.167,0.041,-0.038,1.21846967915e-07,0.0,0.0,0.0,1.21846967915e-07,0.0,0.0,0.0,1.21846967915e-07,-0.67665885,0.1372931,8.99269805,9e-08,0.0,0.0,0.0,9e-08,0.0,0.0,0.0,9e-08
1539875912111212712,8800,1539875912110736424,base_link,0.0,0.0,0.0,0.0,-1.0,0.0,0.0,0.0,0.0,0.0,0.0,0.0,0.0,-0.27,0.006,0.017,1.21846967915e-07,0.0,0.0,0.0,1.21846967915e-07,0.0,0.0,0.0,1.21846967915e-07,-0.34323275,0.20593965,9.80665,9e-08,0.0,0.0,0.0,9e-08,0.0,0.0,0.0,9e-08
1539875912203611144,8801,1539875912201942376,base_link,0.0,0.0,0.0,0.0,-1.0,0.0,0.0,0.0,0.0,0.0,0.0,0.0,0.0,-0.184,0.073,0.05,1.21846967915e-07,0.0,0.0,0.0,1.21846967915e-07,0.0,0.0,0.0,1.21846967915e-07,-0.65704555,0.1765197,8.5906254,9e-08,0.0,0.0,0.0,9e-08,0.0,0.0,0.0,9e-08
1539875912359968584,8802,1539875912359380712,base_link,0.0,0.0,0.0,0.0,-1.0,0.0,0.0,0.0,0.0,0.0,0.0,0.0,0.0,-0.163,0.125,0.054,1.21846967915e-07,0.0,0.0,0.0,1.21846967915e-07,0.0,0.0,0.0,1.21846967915e-07,-0.61781895,0.2157463,7.3353742,9e-08,0.0,0.0,0.0,9e-08,0.0,0.0,0.0,9e-08
1539875912409842696,8803,1539875912409503944,base_link,0.0,0.0,0.0,0.0,-1.0,0.0,0.0,0.0,0.0,0.0,0.0,0.0,0.0,-0.119,0.102,0.047,1.21846967915e-07,0.0,0.0,0.0,1.21846967915e-07,0.0,0.0,0.0,1.21846967915e-07,-0.48052585,0.1176798,7.97280645,9e-08,0.0,0.0,0.0,9e-08,0.0,0.0,0.0,9e-08
1539875912511092840,8804,1539875912510545800,base_link,0.0,0.0,0.0,0.0,-1.0,0.0,0.0,0.0,0.0,0.0,0.0,0.0,0.0,0.008,0.05,0.078,1.21846967915e-07,0.0,0.0,0.0,1.21846967915e-07,0.0,0.0,0.0,1.21846967915e-07,-0.51975245,0.16671305,10.787315,9e-08,0.0,0.0,0.0,9e-08,0.0,0.0,0.0,9e-08
1539875912600125928,8805,1539875912599643720,base_link,0.0,0.0,0.0,0.0,-1.0,0.0,0.0,0.0,0.0,0.0,0.0,0.0,0.0,-0.043,0.067,0.089,1.21846967915e-07,0.0,0.0,0.0,1.21846967915e-07,0.0,0.0,0.0,1.21846967915e-07,-0.50013915,0.57859235,12.0229529,9e-08,0.0,0.0,0.0,9e-08,0.0,0.0,0.0,9e-08
1539875912707001448,8806,1539875912705938088,base_link,0.0,0.0,0.0,0.0,-1.0,0.0,0.0,0.0,0.0,0.0,0.0,0.0,0.0,0.0,0.063,0.094,1.21846967915e-07,0.0,0.0,0.0,1.21846967915e-07,0.0,0.0,0.0,1.21846967915e-07,-0.38245935,0.7453054,12.34657235,9e-08,0.0,0.0,0.0,9e-08,0.0,0.0,0.0,9e-08
1539875912800251688,8807,1539875912799422408,base_link,0.0,0.0,0.0,0.0,-1.0,0.0,0.0,0.0,0.0,0.0,0.0,0.0,0.0,-0.156,0.084,0.082,1.21846967915e-07,0.0,0.0,0.0,1.21846967915e-07,0.0,0.0,0.0,1.21846967915e-07,-0.5295591,0.71588545,9.9439431,9e-08,0.0,0.0,0.0,9e-08,0.0,0.0,0.0,9e-08
1539875912888645928,8808,1539875912887687912,base_link,0.0,0.0,0.0,0.0,-1.0,0.0,0.0,0.0,0.0,0.0,0.0,0.0,0.0,-0.152,0.141,0.044,1.21846967915e-07,0.0,0.0,0.0,1.21846967915e-07,0.0,0.0,0.0,1.21846967915e-07,-0.6276256,0.42168595,7.6295737,9e-08,0.0,0.0,0.0,9e-08,0.0,0.0,0.0,9e-08
1539875913005633768,8809,1539875913005277704,base_link,0.0,0.0,0.0,0.0,-1.0,0.0,0.0,0.0,0.0,0.0,0.0,0.0,0.0,0.226,0.112,-0.004,1.21846967915e-07,0.0,0.0,0.0,1.21846967915e-07,0.0,0.0,0.0,1.21846967915e-07,-0.63743225,0.34323275,8.1002929,9e-08,0.0,0.0,0.0,9e-08,0.0,0.0,0.0,9e-08
1539875913120926152,8810,1539875913120282440,base_link,0.0,0.0,0.0,0.0,-1.0,0.0,0.0,0.0,0.0,0.0,0.0,0.0,0.0,0.206,0.105,0.006,1.21846967915e-07,0.0,0.0,0.0,1.21846967915e-07,0.0,0.0,0.0,1.21846967915e-07,-0.5491724,0.0980665,7.5315072,9e-08,0.0,0.0,0.0,9e-08,0.0,0.0,0.0,9e-08
1539875913186044840,8811,1539875913184994280,base_link,0.0,0.0,0.0,0.0,-1.0,0.0,0.0,0.0,0.0,0.0,0.0,0.0,0.0,0.198,0.116,0.029,1.21846967915e-07,0.0,0.0,0.0,1.21846967915e-07,0.0,0.0,0.0,1.21846967915e-07,-0.4707192,0.5099458,7.0411747,9e-08,0.0,0.0,0.0,9e-08,0.0,0.0,0.0,9e-08
1539875913305263592,8812,1539875913298753832,base_link,0.0,0.0,0.0,0.0,-1.0,0.0,0.0,0.0,0.0,0.0,0.0,0.0,0.0,-0.045,0.138,0.05,1.21846967915e-07,0.0,0.0,0.0,1.21846967915e-07,0.0,0.0,0.0,1.21846967915e-07,-0.53936575,0.51975245,7.2176944,9e-08,0.0,0.0,0.0,9e-08,0.0,0.0,0.0,9e-08
1539875913395175080,8813,1539875913394504520,base_link,0.0,0.0,0.0,0.0,-1.0,0.0,0.0,0.0,0.0,0.0,0.0,0.0,0.0,-0.184,0.132,0.028,1.21846967915e-07,0.0,0.0,0.0,1.21846967915e-07,0.0,0.0,0.0,1.21846967915e-07,-0.6080123,0.26477955,7.22750105,9e-08,0.0,0.0,0.0,9e-08,0.0,0.0,0.0,9e-08
1539875913489165704,8814,1539875913488636680,base_link,0.0,0.0,0.0,0.0,-1.0,0.0,0.0,0.0,0.0,0.0,0.0,0.0,0.0,-0.08,0.114,-0.005,1.21846967915e-07,0.0,0.0,0.0,1.21846967915e-07,0.0,0.0,0.0,1.21846967915e-07,-0.5687857,0.6080123,8.2179727,9e-08,0.0,0.0,0.0,9e-08,0.0,0.0,0.0,9e-08
1539875913633196840,8815,1539875913632790792,base_link,0.0,0.0,0.0,0.0,-1.0,0.0,0.0,0.0,0.0,0.0,0.0,0.0,0.0,-0.022,0.104,-0.005,1.21846967915e-07,0.0,0.0,0.0,1.21846967915e-07,0.0,0.0,0.0,1.21846967915e-07,-0.6080123,0.3726527,7.7864801,9e-08,0.0,0.0,0.0,9e-08,0.0,0.0,0.0,9e-08
1539875913685078248,8816,1539875913683869928,base_link,0.0,0.0,0.0,0.0,-1.0,0.0,0.0,0.0,0.0,0.0,0.0,0.0,0.0,-0.07,0.094,0.005,1.21846967915e-07,0.0,0.0,0.0,1.21846967915e-07,0.0,0.0,0.0,1.21846967915e-07,-0.6080123,0.24516625,7.56092715,9e-08,0.0,0.0,0.0,9e-08,0.0,0.0,0.0,9e-08
1539875913794100616,8817,1539875913793559336,base_link,0.0,0.0,0.0,0.0,-1.0,0.0,0.0,0.0,0.0,0.0,0.0,0.0,0.0,0.144,0.082,0.03,1.21846967915e-07,0.0,0.0,0.0,1.21846967915e-07,0.0,0.0,0.0,1.21846967915e-07,-0.7060788,-0.04903325,7.6295737,9e-08,0.0,0.0,0.0,9e-08,0.0,0.0,0.0,9e-08
1539875913909774824,8818,1539875913904525544,base_link,0.0,0.0,0.0,0.0,-1.0,0.0,0.0,0.0,0.0,0.0,0.0,0.0,0.0,0.128,0.048,0.074,1.21846967915e-07,0.0,0.0,0.0,1.21846967915e-07,0.0,0.0,0.0,1.21846967915e-07,-0.7256921,9.60774602629e-16,7.84532,9e-08,0.0,0.0,0.0,9e-08,0.0,0.0,0.0,9e-08
1539875913998902536,8819,1539875913998441864,base_link,0.0,0.0,0.0,0.0,-1.0,0.0,0.0,0.0,0.0,0.0,0.0,0.0,0.0,0.049,0.05,0.104,1.21846967915e-07,0.0,0.0,0.0,1.21846967915e-07,0.0,0.0,0.0,1.21846967915e-07,-0.71588545,0.1372931,7.7276402,9e-08,0.0,0.0,0.0,9e-08,0.0,0.0,0.0,9e-08
1539875914095594056,8820,1539875914093925512,base_link,0.0,0.0,0.0,0.0,-1.0,0.0,0.0,0.0,0.0,0.0,0.0,0.0,0.0,-0.078,0.027,0.105,1.21846967915e-07,0.0,0.0,0.0,1.21846967915e-07,0.0,0.0,0.0,1.21846967915e-07,-0.67665885,0.10787315,8.40429905,9e-08,0.0,0.0,0.0,9e-08,0.0,0.0,0.0,9e-08
1539875914200553160,8821,1539875914199923208,base_link,0.0,0.0,0.0,0.0,-1.0,0.0,0.0,0.0,0.0,0.0,0.0,0.0,0.0,-0.013,0.008,0.088,1.21846967915e-07,0.0,0.0,0.0,1.21846967915e-07,0.0,0.0,0.0,1.21846967915e-07,-0.51975245,0.20593965,8.5710121,9e-08,0.0,0.0,0.0,9e-08,0.0,0.0,0.0,9e-08
1539875914299695848,8822,1539875914295737096,base_link,0.0,0.0,0.0,0.0,-1.0,0.0,0.0,0.0,0.0,0.0,0.0,0.0,0.0,-0.006,0.009,0.069,1.21846967915e-07,0.0,0.0,0.0,1.21846967915e-07,0.0,0.0,0.0,1.21846967915e-07,-0.4903325,0.42168595,8.85540495,9e-08,0.0,0.0,0.0,9e-08,0.0,0.0,0.0,9e-08
1539875914414563944,8823,1539875914414252104,base_link,0.0,0.0,0.0,0.0,-1.0,0.0,0.0,0.0,0.0,0.0,0.0,0.0,0.0,0.063,0.013,0.073,1.21846967915e-07,0.0,0.0,0.0,1.21846967915e-07,0.0,0.0,0.0,1.21846967915e-07,-0.32361945,0.6864655,8.81617835,9e-08,0.0,0.0,0.0,9e-08,0.0,0.0,0.0,9e-08
1539875914491511336,8824,1539875914491176552,base_link,0.0,0.0,0.0,0.0,-1.0,0.0,0.0,0.0,0.0,0.0,0.0,0.0,0.0,-0.003,-0.009,0.051,1.21846967915e-07,0.0,0.0,0.0,1.21846967915e-07,0.0,0.0,0.0,1.21846967915e-07,-0.36284605,0.588399,9.5320638,9e-08,0.0,0.0,0.0,9e-08,0.0,0.0,0.0,9e-08
1539875914629344392,8825,1539875914628954408,base_link,0.0,0.0,0.0,0.0,-1.0,0.0,0.0,0.0,0.0,0.0,0.0,0.0,0.0,0.059,0.004,0.002,1.21846967915e-07,0.0,0.0,0.0,1.21846967915e-07,0.0,0.0,0.0,1.21846967915e-07,-0.2941995,0.55897905,9.7085835,9e-08,0.0,0.0,0.0,9e-08,0.0,0.0,0.0,9e-08
1539875914693958408,8826,1539875914693318344,base_link,0.0,0.0,0.0,0.0,-1.0,0.0,0.0,0.0,0.0,0.0,0.0,0.0,0.0,-0.062,-0.018,-0.012,1.21846967915e-07,0.0,0.0,0.0,1.21846967915e-07,0.0,0.0,0.0,1.21846967915e-07,-0.196133,0.6080123,10.22833595,9e-08,0.0,0.0,0.0,9e-08,0.0,0.0,0.0,9e-08
1539875914794742024,8827,1539875914793986056,base_link,0.0,0.0,0.0,0.0,-1.0,0.0,0.0,0.0,0.0,0.0,0.0,0.0,0.0,-0.03,-0.013,-0.033,1.21846967915e-07,0.0,0.0,0.0,1.21846967915e-07,0.0,0.0,0.0,1.21846967915e-07,-0.0392266,0.36284605,9.91452315,9e-08,0.0,0.0,0.0,9e-08,0.0,0.0,0.0,9e-08
1539875914903257896,8828,1539875914902854024,base_link,0.0,0.0,0.0,0.0,-1.0,0.0,0.0,0.0,0.0,0.0,0.0,0.0,0.0,0.01,-0.017,-0.029,1.21846967915e-07,0.0,0.0,0.0,1.21846967915e-07,0.0,0.0,0.0,1.21846967915e-07,-0.1176798,0.3334261,9.414384,9e-08,0.0,0.0,0.0,9e-08,0.0,0.0,0.0,9e-08
1539875914981636360,8829,1539875914980713768,base_link,0.0,0.0,0.0,0.0,-1.0,0.0,0.0,0.0,0.0,0.0,0.0,0.0,0.0,-0.177,-0.029,-0.002,1.21846967915e-07,0.0,0.0,0.0,1.21846967915e-07,0.0,0.0,0.0,1.21846967915e-07,-0.08825985,0.51975245,10.36562905,9e-08,0.0,0.0,0.0,9e-08,0.0,0.0,0.0,9e-08
1539875915088099112,8830,1539875915087679272,base_link,0.0,0.0,0.0,0.0,-1.0,0.0,0.0,0.0,0.0,0.0,0.0,0.0,0.0,-0.057,-0.043,-0.03,1.21846967915e-07,0.0,0.0,0.0,1.21846967915e-07,0.0,0.0,0.0,1.21846967915e-07,-0.3138128,0.73549875,9.2967042,9e-08,0.0,0.0,0.0,9e-08,0.0,0.0,0.0,9e-08
1539875915231445672,8831,1539875915229679720,base_link,0.0,0.0,0.0,0.0,-1.0,0.0,0.0,0.0,0.0,0.0,0.0,0.0,0.0,-0.039,-0.032,-0.098,1.21846967915e-07,0.0,0.0,0.0,1.21846967915e-07,0.0,0.0,0.0,1.21846967915e-07,-0.3726527,0.38245935,7.7276402,9e-08,0.0,0.0,0.0,9e-08,0.0,0.0,0.0,9e-08
1539875915281916488,8832,1539875915278434504,base_link,0.0,0.0,0.0,0.0,-1.0,0.0,0.0,0.0,0.0,0.0,0.0,0.0,0.0,0.034,-0.093,-0.069,1.21846967915e-07,0.0,0.0,0.0,1.21846967915e-07,0.0,0.0,0.0,1.21846967915e-07,-0.12748645,0.42168595,9.54187045,9e-08,0.0,0.0,0.0,9e-08,0.0,0.0,0.0,9e-08
1539875915428012232,8833,1539875915425323912,base_link,0.0,0.0,0.0,0.0,-1.0,0.0,0.0,0.0,0.0,0.0,0.0,0.0,0.0,-0.218,-0.135,-0.071,1.21846967915e-07,0.0,0.0,0.0,1.21846967915e-07,0.0,0.0,0.0,1.21846967915e-07,-0.02941995,0.55897905,10.9638347,9e-08,0.0,0.0,0.0,9e-08,0.0,0.0,0.0,9e-08
1539875915488760520,8834,1539875915487554696,base_link,0.0,0.0,0.0,0.0,-1.0,0.0,0.0,0.0,0.0,0.0,0.0,0.0,0.0,-0.047,-0.187,-0.072,1.21846967915e-07,0.0,0.0,0.0,1.21846967915e-07,0.0,0.0,0.0,1.21846967915e-07,0.0588399,0.14709975,12.17005265,9e-08,0.0,0.0,0.0,9e-08,0.0,0.0,0.0,9e-08
1539875915605232744,8835,1539875915604794088,base_link,0.0,0.0,0.0,0.0,-1.0,0.0,0.0,0.0,0.0,0.0,0.0,0.0,0.0,-0.017,-0.17,-0.015,1.21846967915e-07,0.0,0.0,0.0,1.21846967915e-07,0.0,0.0,0.0,1.21846967915e-07,0.22555295,0.30400615,11.93469305,9e-08,0.0,0.0,0.0,9e-08,0.0,0.0,0.0,9e-08
1539875915701857192,8836,1539875915701353480,base_link,0.0,0.0,0.0,0.0,-1.0,0.0,0.0,0.0,0.0,0.0,0.0,0.0,0.0,0.045,-0.155,-0.007,1.21846967915e-07,0.0,0.0,0.0,1.21846967915e-07,0.0,0.0,0.0,1.21846967915e-07,0.5687857,-0.08825985,12.67999845,9e-08,0.0,0.0,0.0,9e-08,0.0,0.0,0.0,9e-08
1539875915771282088,8837,1539875915770789704,base_link,0.0,0.0,0.0,0.0,-1.0,0.0,0.0,0.0,0.0,0.0,0.0,0.0,0.0,0.015,-0.134,0.073,1.21846967915e-07,0.0,0.0,0.0,1.21846967915e-07,0.0,0.0,0.0,1.21846967915e-07,0.4314926,0.3138128,11.8660465,9e-08,0.0,0.0,0.0,9e-08,0.0,0.0,0.0,9e-08
1539875915912440584,8838,1539875915911797000,base_link,0.0,0.0,0.0,0.0,-1.0,0.0,0.0,0.0,0.0,0.0,0.0,0.0,0.0,-0.151,-0.141,0.1,1.21846967915e-07,0.0,0.0,0.0,1.21846967915e-07,0.0,0.0,0.0,1.21846967915e-07,0.59820565,0.6276256,12.7682583,9e-08,0.0,0.0,0.0,9e-08,0.0,0.0,0.0,9e-08
1539875915993023752,8839,1539875915992368456,base_link,0.0,0.0,0.0,0.0,-1.0,0.0,0.0,0.0,0.0,0.0,0.0,0.0,0.0,-0.206,-0.224,0.081,1.21846967915e-07,0.0,0.0,0.0,1.21846967915e-07,0.0,0.0,0.0,1.21846967915e-07,0.9218251,0.588399,17.6127434,9e-08,0.0,0.0,0.0,9e-08,0.0,0.0,0.0,9e-08
1539875916087184296,8840,1539875916086317224,base_link,0.0,0.0,0.0,0.0,-1.0,0.0,0.0,0.0,0.0,0.0,0.0,0.0,0.0,0.034,-0.176,0.104,1.21846967915e-07,0.0,0.0,0.0,1.21846967915e-07,0.0,0.0,0.0,1.21846967915e-07,0.9022118,0.46091255,15.6514134,9e-08,0.0,0.0,0.0,9e-08,0.0,0.0,0.0,9e-08
1539875916203379464,8841,1539875916198313160,base_link,0.0,0.0,0.0,0.0,-1.0,0.0,0.0,0.0,0.0,0.0,0.0,0.0,0.0,0.031,-0.167,0.13,1.21846967915e-07,0.0,0.0,0.0,1.21846967915e-07,0.0,0.0,0.0,1.21846967915e-07,0.97085835,0.4118793,15.8083198,9e-08,0.0,0.0,0.0,9e-08,0.0,0.0,0.0,9e-08
1539875916298352904,8842,1539875916295294856,base_link,0.0,0.0,0.0,0.0,-1.0,0.0,0.0,0.0,0.0,0.0,0.0,0.0,0.0,-0.162,-0.124,0.133,1.21846967915e-07,0.0,0.0,0.0,1.21846967915e-07,0.0,0.0,0.0,1.21846967915e-07,0.7649187,0.30400615,13.5724036,9e-08,0.0,0.0,0.0,9e-08,0.0,0.0,0.0,9e-08
1539875916396515912,8843,1539875916396206216,base_link,0.0,0.0,0.0,0.0,-1.0,0.0,0.0,0.0,0.0,0.0,0.0,0.0,0.0,-0.171,-0.102,0.087,1.21846967915e-07,0.0,0.0,0.0,1.21846967915e-07,0.0,0.0,0.0,1.21846967915e-07,0.3530394,0.57859235,10.787315,9e-08,0.0,0.0,0.0,9e-08,0.0,0.0,0.0,9e-08
1539875916500671720,8844,1539875916500067400,base_link,0.0,0.0,0.0,0.0,-1.0,0.0,0.0,0.0,0.0,0.0,0.0,0.0,0.0,-0.043,-0.09,0.01,1.21846967915e-07,0.0,0.0,0.0,1.21846967915e-07,0.0,0.0,0.0,1.21846967915e-07,0.36284605,0.196133,11.6306869,9e-08,0.0,0.0,0.0,9e-08,0.0,0.0,0.0,9e-08
1539875916597849256,8845,1539875916593422664,base_link,0.0,0.0,0.0,0.0,-1.0,0.0,0.0,0.0,0.0,0.0,0.0,0.0,0.0,0.154,-0.094,0.05,1.21846967915e-07,0.0,0.0,0.0,1.21846967915e-07,0.0,0.0,0.0,1.21846967915e-07,0.51975245,-0.16671305,12.79767825,9e-08,0.0,0.0,0.0,9e-08,0.0,0.0,0.0,9e-08
1539875916700998856,8846,1539875916698746024,base_link,0.0,0.0,0.0,0.0,-1.0,0.0,0.0,0.0,0.0,0.0,0.0,0.0,0.0,0.263,-0.053,0.106,1.21846967915e-07,0.0,0.0,0.0,1.21846967915e-07,0.0,0.0,0.0,1.21846967915e-07,0.26477955,-0.18632635,11.91507975,9e-08,0.0,0.0,0.0,9e-08,0.0,0.0,0.0,9e-08
1539875916814729992,8847,1539875916813433896,base_link,0.0,0.0,0.0,0.0,-1.0,0.0,0.0,0.0,0.0,0.0,0.0,0.0,0.0,0.306,-0.02,0.142,1.21846967915e-07,0.0,0.0,0.0,1.21846967915e-07,0.0,0.0,0.0,1.21846967915e-07,0.2941995,1.21417890407e-15,9.91452315,9e-08,0.0,0.0,0.0,9e-08,0.0,0.0,0.0,9e-08
1539875916893189672,8848,1539875916892652968,base_link,0.0,0.0,0.0,0.0,-1.0,0.0,0.0,0.0,0.0,0.0,0.0,0.0,0.0,0.286,1.51856203094e-17,0.124,1.21846967915e-07,0.0,0.0,0.0,1.21846967915e-07,0.0,0.0,0.0,1.21846967915e-07,0.02941995,0.5099458,8.28661925,9e-08,0.0,0.0,0.0,9e-08,0.0,0.0,0.0,9e-08
1539875916997286920,8849,1539875916996789480,base_link,0.0,0.0,0.0,0.0,-1.0,0.0,0.0,0.0,0.0,0.0,0.0,0.0,0.0,0.111,9.18485099361e-18,0.075,1.21846967915e-07,0.0,0.0,0.0,1.21846967915e-07,0.0,0.0,0.0,1.21846967915e-07,0.14709975,0.65704555,9.0417313,9e-08,0.0,0.0,0.0,9e-08,0.0,0.0,0.0,9e-08
1539875917108003080,8850,1539875917107235496,base_link,0.0,0.0,0.0,0.0,-1.0,0.0,0.0,0.0,0.0,0.0,0.0,0.0,0.0,0.085,0.032,0.015,1.21846967915e-07,0.0,0.0,0.0,1.21846967915e-07,0.0,0.0,0.0,1.21846967915e-07,0.20593965,0.69627215,8.5906254,9e-08,0.0,0.0,0.0,9e-08,0.0,0.0,0.0,9e-08
1539875917213019304,8851,1539875917212550344,base_link,0.0,0.0,0.0,0.0,-1.0,0.0,0.0,0.0,0.0,0.0,0.0,0.0,0.0,0.143,0.058,-0.057,1.21846967915e-07,0.0,0.0,0.0,1.21846967915e-07,0.0,0.0,0.0,1.21846967915e-07,-0.04903325,0.83356525,8.2768126,9e-08,0.0,0.0,0.0,9e-08,0.0,0.0,0.0,9e-08
1539875917288680456,8852,1539875917287931240,base_link,0.0,0.0,0.0,0.0,-1.0,0.0,0.0,0.0,0.0,0.0,0.0,0.0,0.0,0.127,0.004,-0.121,1.21846967915e-07,0.0,0.0,0.0,1.21846967915e-07,0.0,0.0,0.0,1.21846967915e-07,0.24516625,0.42168595,10.6696352,9e-08,0.0,0.0,0.0,9e-08,0.0,0.0,0.0,9e-08
1539875917394839144,8853,1539875917391721320,base_link,0.0,0.0,0.0,0.0,-1.0,0.0,0.0,0.0,0.0,0.0,0.0,0.0,0.0,0.17,0.049,-0.118,1.21846967915e-07,0.0,0.0,0.0,1.21846967915e-07,0.0,0.0,0.0,1.21846967915e-07,0.18632635,0.4118793,8.9632781,9e-08,0.0,0.0,0.0,9e-08,0.0,0.0,0.0,9e-08
1539875917518485640,8854,1539875917517417960,base_link,0.0,0.0,0.0,0.0,-1.0,0.0,0.0,0.0,0.0,0.0,0.0,0.0,0.0,0.113,0.019,-0.122,1.21846967915e-07,0.0,0.0,0.0,1.21846967915e-07,0.0,0.0,0.0,1.21846967915e-07,0.16671305,0.4903325,9.54187045,9e-08,0.0,0.0,0.0,9e-08,0.0,0.0,0.0,9e-08
1539875917602829704,8855,1539875917601356136,base_link,0.0,0.0,0.0,0.0,-1.0,0.0,0.0,0.0,0.0,0.0,0.0,0.0,0.0,0.072,0.05,-0.138,1.21846967915e-07,0.0,0.0,0.0,1.21846967915e-07,0.0,0.0,0.0,1.21846967915e-07,0.12748645,0.42168595,8.0022264,9e-08,0.0,0.0,0.0,9e-08,0.0,0.0,0.0,9e-08
1539875917688166472,8856,1539875917678387624,base_link,0.0,0.0,0.0,0.0,-1.0,0.0,0.0,0.0,0.0,0.0,0.0,0.0,0.0,0.091,0.056,-0.142,1.21846967915e-07,0.0,0.0,0.0,1.21846967915e-07,0.0,0.0,0.0,1.21846967915e-07,-0.02941995,0.44129925,6.9627215,9e-08,0.0,0.0,0.0,9e-08,0.0,0.0,0.0,9e-08
1539875917812275592,8857,1539875917805680008,base_link,0.0,0.0,0.0,0.0,-1.0,0.0,0.0,0.0,0.0,0.0,0.0,0.0,0.0,0.092,0.062,-0.156,1.21846967915e-07,0.0,0.0,0.0,1.21846967915e-07,0.0,0.0,0.0,1.21846967915e-07,0.06864655,0.0784532,7.7472535,9e-08,0.0,0.0,0.0,9e-08,0.0,0.0,0.0,9e-08
1539875917886384200,8858,1539875917883578056,base_link,0.0,0.0,0.0,0.0,-1.0,0.0,0.0,0.0,0.0,0.0,0.0,0.0,0.0,0.108,0.039,-0.133,1.21846967915e-07,0.0,0.0,0.0,1.21846967915e-07,0.0,0.0,0.0,1.21846967915e-07,-0.0784532,0.1372931,8.3552658,9e-08,0.0,0.0,0.0,9e-08,0.0,0.0,0.0,9e-08
1539875918008884296,8859,1539875918008339464,base_link,0.0,0.0,0.0,0.0,-1.0,0.0,0.0,0.0,0.0,0.0,0.0,0.0,0.0,0.298,0.041,-0.068,1.21846967915e-07,0.0,0.0,0.0,1.21846967915e-07,0.0,0.0,0.0,1.21846967915e-07,0.14709975,0.06864655,8.9240515,9e-08,0.0,0.0,0.0,9e-08,0.0,0.0,0.0,9e-08
1539875918123372712,8860,1539875918122679080,base_link,0.0,0.0,0.0,0.0,-1.0,0.0,0.0,0.0,0.0,0.0,0.0,0.0,0.0,0.348,-0.022,-0.032,1.21846967915e-07,0.0,0.0,0.0,1.21846967915e-07,0.0,0.0,0.0,1.21846967915e-07,0.08825985,0.3726527,10.32640245,9e-08,0.0,0.0,0.0,9e-08,0.0,0.0,0.0,9e-08
1539875918192680712,8861,1539875918191887752,base_link,0.0,0.0,0.0,0.0,-1.0,0.0,0.0,0.0,0.0,0.0,0.0,0.0,0.0,0.172,-0.031,-0.016,1.21846967915e-07,0.0,0.0,0.0,1.21846967915e-07,0.0,0.0,0.0,1.21846967915e-07,0.0196133,0.5687857,11.0226746,9e-08,0.0,0.0,0.0,9e-08,0.0,0.0,0.0,9e-08
1539875918295408616,8862,1539875918294005960,base_link,0.0,0.0,0.0,0.0,-1.0,0.0,0.0,0.0,0.0,0.0,0.0,0.0,0.0,-0.12,-0.048,-0.032,1.21846967915e-07,0.0,0.0,0.0,1.21846967915e-07,0.0,0.0,0.0,1.21846967915e-07,0.36284605,0.5491724,12.3367657,9e-08,0.0,0.0,0.0,9e-08,0.0,0.0,0.0,9e-08
1539875918393856392,8863,1539875918386875816,base_link,0.0,0.0,0.0,0.0,-1.0,0.0,0.0,0.0,0.0,0.0,0.0,0.0,0.0,0.256,0.043,-0.079,1.21846967915e-07,0.0,0.0,0.0,1.21846967915e-07,0.0,0.0,0.0,1.21846967915e-07,0.32361945,0.5687857,9.52225715,9e-08,0.0,0.0,0.0,9e-08,0.0,0.0,0.0,9e-08
1539875918523604456,8864,1539875918522790312,base_link,0.0,0.0,0.0,0.0,-1.0,0.0,0.0,0.0,0.0,0.0,0.0,0.0,0.0,0.333,-0.026,-0.154,1.21846967915e-07,0.0,0.0,0.0,1.21846967915e-07,0.0,0.0,0.0,1.21846967915e-07,0.0980665,0.20593965,8.16893945,9e-08,0.0,0.0,0.0,9e-08,0.0,0.0,0.0,9e-08
1539875918597213800,8865,1539875918596433288,base_link,0.0,0.0,0.0,0.0,-1.0,0.0,0.0,0.0,0.0,0.0,0.0,0.0,0.0,0.321,-0.019,-0.143,1.21846967915e-07,0.0,0.0,0.0,1.21846967915e-07,0.0,0.0,0.0,1.21846967915e-07,0.20593965,0.5099458,9.022118,9e-08,0.0,0.0,0.0,9e-08,0.0,0.0,0.0,9e-08
1539875918693769000,8866,1539875918692764040,base_link,0.0,0.0,0.0,0.0,-1.0,0.0,0.0,0.0,0.0,0.0,0.0,0.0,0.0,0.264,-0.081,-0.13,1.21846967915e-07,0.0,0.0,0.0,1.21846967915e-07,0.0,0.0,0.0,1.21846967915e-07,0.36284605,0.4314926,11.3953273,9e-08,0.0,0.0,0.0,9e-08,0.0,0.0,0.0,9e-08
1539875918803242888,8867,1539875918802641672,base_link,0.0,0.0,0.0,0.0,-1.0,0.0,0.0,0.0,0.0,0.0,0.0,0.0,0.0,0.28,-0.061,-0.135,1.21846967915e-07,0.0,0.0,0.0,1.21846967915e-07,0.0,0.0,0.0,1.21846967915e-07,0.48052585,0.67665885,11.46397385,9e-08,0.0,0.0,0.0,9e-08,0.0,0.0,0.0,9e-08
1539875918890703016,8868,1539875918889004744,base_link,0.0,0.0,0.0,0.0,-1.0,0.0,0.0,0.0,0.0,0.0,0.0,0.0,0.0,0.282,-0.058,-0.152,1.21846967915e-07,0.0,0.0,0.0,1.21846967915e-07,0.0,0.0,0.0,1.21846967915e-07,0.2941995,0.57859235,10.395049,9e-08,0.0,0.0,0.0,9e-08,0.0,0.0,0.0,9e-08
1539875919009881448,8869,1539875919009178184,base_link,0.0,0.0,0.0,0.0,-1.0,0.0,0.0,0.0,0.0,0.0,0.0,0.0,0.0,0.23,-0.071,-0.169,1.21846967915e-07,0.0,0.0,0.0,1.21846967915e-07,0.0,0.0,0.0,1.21846967915e-07,0.38245935,0.55897905,9.7870367,9e-08,0.0,0.0,0.0,9e-08,0.0,0.0,0.0,9e-08
1539875919112550888,8870,1539875919107727720,base_link,0.0,0.0,0.0,0.0,-1.0,0.0,0.0,0.0,0.0,0.0,0.0,0.0,0.0,-0.073,-0.145,-0.157,1.21846967915e-07,0.0,0.0,0.0,1.21846967915e-07,0.0,0.0,0.0,1.21846967915e-07,0.34323275,0.5491724,11.42474725,9e-08,0.0,0.0,0.0,9e-08,0.0,0.0,0.0,9e-08
1539875919218168264,8871,1539875919217608392,base_link,0.0,0.0,0.0,0.0,-1.0,0.0,0.0,0.0,0.0,0.0,0.0,0.0,0.0,0.044,-0.14,-0.163,1.21846967915e-07,0.0,0.0,0.0,1.21846967915e-07,0.0,0.0,0.0,1.21846967915e-07,0.5295591,0.2745862,11.8856598,9e-08,0.0,0.0,0.0,9e-08,0.0,0.0,0.0,9e-08
1539875919298632488,8872,1539875919298111816,base_link,0.0,0.0,0.0,0.0,-1.0,0.0,0.0,0.0,0.0,0.0,0.0,0.0,0.0,0.141,-0.164,-0.146,1.21846967915e-07,0.0,0.0,0.0,1.21846967915e-07,0.0,0.0,0.0,1.21846967915e-07,0.63743225,0.4314926,12.62115855,9e-08,0.0,0.0,0.0,9e-08,0.0,0.0,0.0,9e-08
1539875919394155464,8873,1539875919393132648,base_link,0.0,0.0,0.0,0.0,-1.0,0.0,0.0,0.0,0.0,0.0,0.0,0.0,0.0,0.257,-0.187,-0.142,1.21846967915e-07,0.0,0.0,0.0,1.21846967915e-07,0.0,0.0,0.0,1.21846967915e-07,0.77472535,0.5099458,13.79795655,9e-08,0.0,0.0,0.0,9e-08,0.0,0.0,0.0,9e-08
1539875919514092712,8874,1539875919513619816,base_link,0.0,0.0,0.0,0.0,-1.0,0.0,0.0,0.0,0.0,0.0,0.0,0.0,0.0,0.432,-0.122,-0.169,1.21846967915e-07,0.0,0.0,0.0,1.21846967915e-07,0.0,0.0,0.0,1.21846967915e-07,0.6276256,1.176798,9.7281968,9e-08,0.0,0.0,0.0,9e-08,0.0,0.0,0.0,9e-08
1539875919596820680,8875,1539875919596175528,base_link,0.0,0.0,0.0,0.0,-1.0,0.0,0.0,0.0,0.0,0.0,0.0,0.0,0.0,0.205,-0.155,-0.18,1.21846967915e-07,0.0,0.0,0.0,1.21846967915e-07,0.0,0.0,0.0,1.21846967915e-07,0.4903325,1.1375714,10.591182,9e-08,0.0,0.0,0.0,9e-08,0.0,0.0,0.0,9e-08
1539875919693072136,8876,1539875919692551240,base_link,0.0,0.0,0.0,0.0,-1.0,0.0,0.0,0.0,0.0,0.0,0.0,0.0,0.0,0.097,-0.119,-0.257,1.21846967915e-07,0.0,0.0,0.0,1.21846967915e-07,0.0,0.0,0.0,1.21846967915e-07,0.65704555,1.20621795,10.38524235,9e-08,0.0,0.0,0.0,9e-08,0.0,0.0,0.0,9e-08
1539875919783837320,8877,1539875919782978120,base_link,0.0,0.0,0.0,0.0,-1.0,0.0,0.0,0.0,0.0,0.0,0.0,0.0,0.0,0.116,-0.133,-0.301,1.21846967915e-07,0.0,0.0,0.0,1.21846967915e-07,0.0,0.0,0.0,1.21846967915e-07,0.6276256,0.9022118,10.0616229,9e-08,0.0,0.0,0.0,9e-08,0.0,0.0,0.0,9e-08
1539875919901262664,8878,1539875919899945416,base_link,0.0,0.0,0.0,0.0,-1.0,0.0,0.0,0.0,0.0,0.0,0.0,0.0,0.0,0.12,-0.172,-0.315,1.21846967915e-07,0.0,0.0,0.0,1.21846967915e-07,0.0,0.0,0.0,1.21846967915e-07,0.75511205,0.91201845,11.09132115,9e-08,0.0,0.0,0.0,9e-08,0.0,0.0,0.0,9e-08
1539875920016608552,8879,1539875920010623464,base_link,0.0,0.0,0.0,0.0,-1.0,0.0,0.0,0.0,0.0,0.0,0.0,0.0,0.0,0.157,-0.19,-0.328,1.21846967915e-07,0.0,0.0,0.0,1.21846967915e-07,0.0,0.0,0.0,1.21846967915e-07,0.9022118,0.7060788,11.3953273,9e-08,0.0,0.0,0.0,9e-08,0.0,0.0,0.0,9e-08
1539875920109578440,8880,1539875920109007144,base_link,0.0,0.0,0.0,0.0,-1.0,0.0,0.0,0.0,0.0,0.0,0.0,0.0,0.0,0.035,-0.222,-0.298,1.21846967915e-07,0.0,0.0,0.0,1.21846967915e-07,0.0,0.0,0.0,1.21846967915e-07,0.85317855,0.67665885,11.3364874,9e-08,0.0,0.0,0.0,9e-08,0.0,0.0,0.0,9e-08
1539875920236826792,8881,1539875920236355176,base_link,0.0,0.0,0.0,0.0,-1.0,0.0,0.0,0.0,0.0,0.0,0.0,0.0,0.0,0.048,-0.236,-0.296,1.21846967915e-07,0.0,0.0,0.0,1.21846967915e-07,0.0,0.0,0.0,1.21846967915e-07,1.0591182,0.8433719,11.60126695,9e-08,0.0,0.0,0.0,9e-08,0.0,0.0,0.0,9e-08
1539875920303107464,8882,1539875920301880072,base_link,0.0,0.0,0.0,0.0,-1.0,0.0,0.0,0.0,0.0,0.0,0.0,0.0,0.0,0.122,-0.226,-0.3,1.21846967915e-07,0.0,0.0,0.0,1.21846967915e-07,0.0,0.0,0.0,1.21846967915e-07,0.9610517,0.79433865,11.3561007,9e-08,0.0,0.0,0.0,9e-08,0.0,0.0,0.0,9e-08
1539875920410180648,8883,1539875920408791592,base_link,0.0,0.0,0.0,0.0,-1.0,0.0,0.0,0.0,0.0,0.0,0.0,0.0,0.0,0.02,-0.254,-0.302,1.21846967915e-07,0.0,0.0,0.0,1.21846967915e-07,0.0,0.0,0.0,1.21846967915e-07,1.0983448,0.85317855,11.7875933,9e-08,0.0,0.0,0.0,9e-08,0.0,0.0,0.0,9e-08
1539875920537922984,8884,1539875920537062600,base_link,0.0,0.0,0.0,0.0,-1.0,0.0,0.0,0.0,0.0,0.0,0.0,0.0,0.0,-0.082,-0.272,-0.296,1.21846967915e-07,0.0,0.0,0.0,1.21846967915e-07,0.0,0.0,0.0,1.21846967915e-07,1.04931155,0.91201845,12.1994726,9e-08,0.0,0.0,0.0,9e-08,0.0,0.0,0.0,9e-08
1539875920618029192,8885,1539875920616469960,base_link,0.0,0.0,0.0,0.0,-1.0,0.0,0.0,0.0,0.0,0.0,0.0,0.0,0.0,-0.062,-0.264,-0.285,1.21846967915e-07,0.0,0.0,0.0,1.21846967915e-07,0.0,0.0,0.0,1.21846967915e-07,1.0787315,0.85317855,12.1210194,9e-08,0.0,0.0,0.0,9e-08,0.0,0.0,0.0,9e-08
1539875920701534600,8886,1539875920700712872,base_link,0.0,0.0,0.0,0.0,-1.0,0.0,0.0,0.0,0.0,0.0,0.0,0.0,0.0,0.0,-0.257,-0.288,1.21846967915e-07,0.0,0.0,0.0,1.21846967915e-07,0.0,0.0,0.0,1.21846967915e-07,1.0591182,0.8041453,11.62088025,9e-08,0.0,0.0,0.0,9e-08,0.0,0.0,0.0,9e-08
1539875920815008296,8887,1539875920812573576,base_link,0.0,0.0,0.0,0.0,-1.0,0.0,0.0,0.0,0.0,0.0,0.0,0.0,0.0,0.042,-0.261,-0.296,1.21846967915e-07,0.0,0.0,0.0,1.21846967915e-07,0.0,0.0,0.0,1.21846967915e-07,1.0198916,0.8629852,11.60126695,9e-08,0.0,0.0,0.0,9e-08,0.0,0.0,0.0,9e-08
1539875920901441032,8888,1539875920896689608,base_link,0.0,0.0,0.0,0.0,-1.0,0.0,0.0,0.0,0.0,0.0,0.0,0.0,0.0,0.049,-0.273,-0.299,1.21846967915e-07,0.0,0.0,0.0,1.21846967915e-07,0.0,0.0,0.0,1.21846967915e-07,1.01008495,1.1571847,12.2779258,9e-08,0.0,0.0,0.0,9e-08,0.0,0.0,0.0,9e-08
1539875921010172104,8889,1539875921009021768,base_link,0.0,0.0,0.0,0.0,-1.0,0.0,0.0,0.0,0.0,0.0,0.0,0.0,0.0,0.018,-0.302,-0.323,1.21846967915e-07,0.0,0.0,0.0,1.21846967915e-07,0.0,0.0,0.0,1.21846967915e-07,1.01008495,0.97085835,12.97419795,9e-08,0.0,0.0,0.0,9e-08,0.0,0.0,0.0,9e-08
1539875921108197864,8890,1539875921106729128,base_link,0.0,0.0,0.0,0.0,-1.0,0.0,0.0,0.0,0.0,0.0,0.0,0.0,0.0,0.063,-0.319,-0.315,1.21846967915e-07,0.0,0.0,0.0,1.21846967915e-07,0.0,0.0,0.0,1.21846967915e-07,1.0983448,0.85317855,13.8469898,9e-08,0.0,0.0,0.0,9e-08,0.0,0.0,0.0,9e-08
1539875921201444552,8891,1539875921197548104,base_link,0.0,0.0,0.0,0.0,-1.0,0.0,0.0,0.0,0.0,0.0,0.0,0.0,0.0,0.075,-0.339,-0.305,1.21846967915e-07,0.0,0.0,0.0,1.21846967915e-07,0.0,0.0,0.0,1.21846967915e-07,1.2552512,0.7060788,14.20983585,9e-08,0.0,0.0,0.0,9e-08,0.0,0.0,0.0,9e-08
1539875921302604104,8892,1539875921300844008,base_link,0.0,0.0,0.0,0.0,-1.0,0.0,0.0,0.0,0.0,0.0,0.0,0.0,0.0,0.082,-0.362,-0.264,1.21846967915e-07,0.0,0.0,0.0,1.21846967915e-07,0.0,0.0,0.0,1.21846967915e-07,1.18660465,0.75511205,14.97475455,9e-08,0.0,0.0,0.0,9e-08,0.0,0.0,0.0,9e-08
1539875921383573000,8893,1539875921383005832,base_link,0.0,0.0,0.0,0.0,-1.0,0.0,0.0,0.0,0.0,0.0,0.0,0.0,0.0,0.06,-0.369,-0.228,1.21846967915e-07,0.0,0.0,0.0,1.21846967915e-07,0.0,0.0,0.0,1.21846967915e-07,1.22583125,0.83356525,15.1610809,9e-08,0.0,0.0,0.0,9e-08,0.0,0.0,0.0,9e-08
1539875921491096136,8894,1539875921489286344,base_link,0.0,0.0,0.0,0.0,-1.0,0.0,0.0,0.0,0.0,0.0,0.0,0.0,0.0,0.024,-0.397,-0.206,1.21846967915e-07,0.0,0.0,0.0,1.21846967915e-07,0.0,0.0,0.0,1.21846967915e-07,1.59848395,0.784532,15.7887065,9e-08,0.0,0.0,0.0,9e-08,0.0,0.0,0.0,9e-08
1539875921621935624,8895,1539875921621027880,base_link,0.0,0.0,0.0,0.0,-1.0,0.0,0.0,0.0,0.0,0.0,0.0,0.0,0.0,-0.083,-0.373,-0.196,1.21846967915e-07,0.0,0.0,0.0,1.21846967915e-07,0.0,0.0,0.0,1.21846967915e-07,1.48080415,1.3337044,15.26895405,9e-08,0.0,0.0,0.0,9e-08,0.0,0.0,0.0,9e-08
1539875921692783016,8896,1539875921692314248,base_link,0.0,0.0,0.0,0.0,-1.0,0.0,0.0,0.0,0.0,0.0,0.0,0.0,0.0,-0.228,-0.352,-0.255,1.21846967915e-07,0.0,0.0,0.0,1.21846967915e-07,0.0,0.0,0.0,1.21846967915e-07,1.2552512,1.4709975,15.40624715,9e-08,0.0,0.0,0.0,9e-08,0.0,0.0,0.0,9e-08
1539875921817204808,8897,1539875921813591784,base_link,0.0,0.0,0.0,0.0,-1.0,0.0,0.0,0.0,0.0,0.0,0.0,0.0,0.0,-0.191,-0.315,-0.324,1.21846967915e-07,0.0,0.0,0.0,1.21846967915e-07,0.0,0.0,0.0,1.21846967915e-07,1.50041745,0.97085835,15.1414676,9e-08,0.0,0.0,0.0,9e-08,0.0,0.0,0.0,9e-08
1539875921940466408,8898,1539875921938610920,base_link,0.0,0.0,0.0,0.0,-1.0,0.0,0.0,0.0,0.0,0.0,0.0,0.0,0.0,-0.26,-0.319,-0.293,1.21846967915e-07,0.0,0.0,0.0,1.21846967915e-07,0.0,0.0,0.0,1.21846967915e-07,1.16699135,1.1964113,15.24934075,9e-08,0.0,0.0,0.0,9e-08,0.0,0.0,0.0,9e-08
1539875922004483624,8899,1539875922003149032,base_link,0.0,0.0,0.0,0.0,-1.0,0.0,0.0,0.0,0.0,0.0,0.0,0.0,0.0,-0.21,-0.346,-0.286,1.21846967915e-07,0.0,0.0,0.0,1.21846967915e-07,0.0,0.0,0.0,1.21846967915e-07,1.26505785,1.14737805,15.64160675,9e-08,0.0,0.0,0.0,9e-08,0.0,0.0,0.0,9e-08
1539875922134721416,8900,1539875922134071752,base_link,0.0,0.0,0.0,0.0,-1.0,0.0,0.0,0.0,0.0,0.0,0.0,0.0,0.0,-0.052,-0.243,-0.321,1.21846967915e-07,0.0,0.0,0.0,1.21846967915e-07,0.0,0.0,0.0,1.21846967915e-07,1.08853815,0.99047165,14.32751565,9e-08,0.0,0.0,0.0,9e-08,0.0,0.0,0.0,9e-08
1539875922194740488,8901,1539875922194087816,base_link,0.0,0.0,0.0,0.0,-1.0,0.0,0.0,0.0,0.0,0.0,0.0,0.0,0.0,-0.205,-0.232,-0.313,1.21846967915e-07,0.0,0.0,0.0,1.21846967915e-07,0.0,0.0,0.0,1.21846967915e-07,0.8629852,0.93163175,13.46453045,9e-08,0.0,0.0,0.0,9e-08,0.0,0.0,0.0,9e-08
1539875922293140872,8902,1539875922291181384,base_link,0.0,0.0,0.0,0.0,-1.0,0.0,0.0,0.0,0.0,0.0,0.0,0.0,0.0,-0.153,-0.228,-0.292,1.21846967915e-07,0.0,0.0,0.0,1.21846967915e-07,0.0,0.0,0.0,1.21846967915e-07,0.77472535,1.0983448,13.28801075,9e-08,0.0,0.0,0.0,9e-08,0.0,0.0,0.0,9e-08
1539875922397157224,8903,1539875922395922760,base_link,0.0,0.0,0.0,0.0,-1.0,0.0,0.0,0.0,0.0,0.0,0.0,0.0,0.0,-0.283,-0.199,-0.28,1.21846967915e-07,0.0,0.0,0.0,1.21846967915e-07,0.0,0.0,0.0,1.21846967915e-07,0.67665885,1.02969825,12.30734575,9e-08,0.0,0.0,0.0,9e-08,0.0,0.0,0.0,9e-08
1539875922498248392,8904,1539875922497734216,base_link,0.0,0.0,0.0,0.0,-1.0,0.0,0.0,0.0,0.0,0.0,0.0,0.0,0.0,-0.383,-0.189,-0.298,1.21846967915e-07,0.0,0.0,0.0,1.21846967915e-07,0.0,0.0,0.0,1.21846967915e-07,0.59820565,1.12776475,11.93469305,9e-08,0.0,0.0,0.0,9e-08,0.0,0.0,0.0,9e-08
1539875922637909288,8905,1539875922636709416,base_link,0.0,0.0,0.0,0.0,-1.0,0.0,0.0,0.0,0.0,0.0,0.0,0.0,0.0,-0.318,-0.104,-0.315,1.21846967915e-07,0.0,0.0,0.0,1.21846967915e-07,0.0,0.0,0.0,1.21846967915e-07,0.42168595,0.73549875,9.26728425,9e-08,0.0,0.0,0.0,9e-08,0.0,0.0,0.0,9e-08
1539875922705950440,8906,1539875922705427912,base_link,0.0,0.0,0.0,0.0,-1.0,0.0,0.0,0.0,0.0,0.0,0.0,0.0,0.0,-0.388,-0.166,-0.307,1.21846967915e-07,0.0,0.0,0.0,1.21846967915e-07,0.0,0.0,0.0,1.21846967915e-07,0.46091255,0.1765197,10.7088618,9e-08,0.0,0.0,0.0,9e-08,0.0,0.0,0.0,9e-08
1539875922788830664,8907,1539875922788267976,base_link,0.0,0.0,0.0,0.0,-1.0,0.0,0.0,0.0,0.0,0.0,0.0,0.0,0.0,-0.381,-0.149,-0.235,1.21846967915e-07,0.0,0.0,0.0,1.21846967915e-07,0.0,0.0,0.0,1.21846967915e-07,0.53936575,0.57859235,10.2577559,9e-08,0.0,0.0,0.0,9e-08,0.0,0.0,0.0,9e-08
1539875922912103464,8908,1539875922910299944,base_link,0.0,0.0,0.0,0.0,-1.0,0.0,0.0,0.0,0.0,0.0,0.0,0.0,0.0,-0.909,-2.29008951441e-17,-0.187,1.21846967915e-07,0.0,0.0,0.0,1.21846967915e-07,0.0,0.0,0.0,1.21846967915e-07,0.2549729,0.980665,3.8245935,9e-08,0.0,0.0,0.0,9e-08,0.0,0.0,0.0,9e-08
1539875923002353928,8909,1539875923001892648,base_link,0.0,0.0,0.0,0.0,-1.0,0.0,0.0,0.0,0.0,0.0,0.0,0.0,0.0,-1.107,0.06,-0.257,1.21846967915e-07,0.0,0.0,0.0,1.21846967915e-07,0.0,0.0,0.0,1.21846967915e-07,0.2549729,0.48052585,-0.8237586,9e-08,0.0,0.0,0.0,9e-08,0.0,0.0,0.0,9e-08
1539875923093572584,8910,1539875923092877640,base_link,0.0,0.0,0.0,0.0,-1.0,0.0,0.0,0.0,0.0,0.0,0.0,0.0,0.0,-0.472,-0.09,-0.289,1.21846967915e-07,0.0,0.0,0.0,1.21846967915e-07,0.0,0.0,0.0,1.21846967915e-07,0.04903325,-0.06864655,6.8254284,9e-08,0.0,0.0,0.0,9e-08,0.0,0.0,0.0,9e-08
1539875923203217832,8911,1539875923202864616,base_link,0.0,0.0,0.0,0.0,-1.0,0.0,0.0,0.0,0.0,0.0,0.0,0.0,0.0,-0.306,-0.097,-0.152,1.21846967915e-07,0.0,0.0,0.0,1.21846967915e-07,0.0,0.0,0.0,1.21846967915e-07,1.02969825,0.6864655,14.64132845,9e-08,0.0,0.0,0.0,9e-08,0.0,0.0,0.0,9e-08
1539875923283574344,8912,1539875923283160328,base_link,0.0,0.0,0.0,0.0,-1.0,0.0,0.0,0.0,0.0,0.0,0.0,0.0,0.0,0.185,-0.113,-0.146,1.21846967915e-07,0.0,0.0,0.0,1.21846967915e-07,0.0,0.0,0.0,1.21846967915e-07,0.8433719,0.9610517,19.60349335,9e-08,0.0,0.0,0.0,9e-08,0.0,0.0,0.0,9e-08
1539875923393238600,8913,1539875923391382152,base_link,0.0,0.0,0.0,0.0,-1.0,0.0,0.0,0.0,0.0,0.0,0.0,0.0,0.0,0.141,-0.019,-0.129,1.21846967915e-07,0.0,0.0,0.0,1.21846967915e-07,0.0,0.0,0.0,1.21846967915e-07,-0.16671305,0.5687857,12.36618565,9e-08,0.0,0.0,0.0,9e-08,0.0,0.0,0.0,9e-08
1539875923498135528,8914,1539875923494937896,base_link,0.0,0.0,0.0,0.0,-1.0,0.0,0.0,0.0,0.0,0.0,0.0,0.0,0.0,-0.131,-0.086,-0.114,1.21846967915e-07,0.0,0.0,0.0,1.21846967915e-07,0.0,0.0,0.0,1.21846967915e-07,-0.02941995,0.16671305,12.356379,9e-08,0.0,0.0,0.0,9e-08,0.0,0.0,0.0,9e-08
1539875923569496008,8915,1539875923569153480,base_link,0.0,0.0,0.0,0.0,-1.0,0.0,0.0,0.0,0.0,0.0,0.0,0.0,0.0,-0.089,-0.031,-0.073,1.21846967915e-07,0.0,0.0,0.0,1.21846967915e-07,0.0,0.0,0.0,1.21846967915e-07,-0.3138128,0.42168595,9.60071035,9e-08,0.0,0.0,0.0,9e-08,0.0,0.0,0.0,9e-08
1539875923752221704,8916,1539875923751818728,base_link,0.0,0.0,0.0,0.0,-1.0,0.0,0.0,0.0,0.0,0.0,0.0,0.0,0.0,-0.242,0.004,-0.125,1.21846967915e-07,0.0,0.0,0.0,1.21846967915e-07,0.0,0.0,0.0,1.21846967915e-07,-0.30400615,1.04931155,9.3751574,9e-08,0.0,0.0,0.0,9e-08,0.0,0.0,0.0,9e-08
1539875923788132840,8917,1539875923786895816,base_link,0.0,0.0,0.0,0.0,-1.0,0.0,0.0,0.0,0.0,0.0,0.0,0.0,0.0,-0.38,0.007,-0.116,1.21846967915e-07,0.0,0.0,0.0,1.21846967915e-07,0.0,0.0,0.0,1.21846967915e-07,-0.32361945,1.0002783,9.7281968,9e-08,0.0,0.0,0.0,9e-08,0.0,0.0,0.0,9e-08
1539875923892409256,8918,1539875923887901256,base_link,0.0,0.0,0.0,0.0,-1.0,0.0,0.0,0.0,0.0,0.0,0.0,0.0,0.0,-0.293,0.027,-0.205,1.21846967915e-07,0.0,0.0,0.0,1.21846967915e-07,0.0,0.0,0.0,1.21846967915e-07,-0.5491724,0.5687857,11.0815145,9e-08,0.0,0.0,0.0,9e-08,0.0,0.0,0.0,9e-08
1539875923984226664,8919,1539875923983054728,base_link,0.0,0.0,0.0,0.0,-1.0,0.0,0.0,0.0,0.0,0.0,0.0,0.0,0.0,-0.146,0.011,-0.138,1.21846967915e-07,0.0,0.0,0.0,1.21846967915e-07,0.0,0.0,0.0,1.21846967915e-07,-0.4707192,0.34323275,9.6497436,9e-08,0.0,0.0,0.0,9e-08,0.0,0.0,0.0,9e-08
1539875924112044648,8920,1539875924111521160,base_link,0.0,0.0,0.0,0.0,-1.0,0.0,0.0,0.0,0.0,0.0,0.0,0.0,0.0,-0.163,-0.022,-0.116,1.21846967915e-07,0.0,0.0,0.0,1.21846967915e-07,0.0,0.0,0.0,1.21846967915e-07,-0.4118793,0.48052585,8.8848249,9e-08,0.0,0.0,0.0,9e-08,0.0,0.0,0.0,9e-08
1539875924204950248,8921,1539875924203802568,base_link,0.0,0.0,0.0,0.0,-1.0,0.0,0.0,0.0,0.0,0.0,0.0,0.0,0.0,-0.068,0.027,-0.119,1.21846967915e-07,0.0,0.0,0.0,1.21846967915e-07,0.0,0.0,0.0,1.21846967915e-07,-0.3334261,0.2353596,8.38468575,9e-08,0.0,0.0,0.0,9e-08,0.0,0.0,0.0,9e-08
1539875924305736744,8922,1539875924304320680,base_link,0.0,0.0,0.0,0.0,-1.0,0.0,0.0,0.0,0.0,0.0,0.0,0.0,0.0,-0.051,0.044,-0.091,1.21846967915e-07,0.0,0.0,0.0,1.21846967915e-07,0.0,0.0,0.0,1.21846967915e-07,-0.28439285,0.6864655,6.8254284,9e-08,0.0,0.0,0.0,9e-08,0.0,0.0,0.0,9e-08
1539875924404331080,8923,1539875924402966088,base_link,0.0,0.0,0.0,0.0,-1.0,0.0,0.0,0.0,0.0,0.0,0.0,0.0,0.0,-0.424,-0.004,-0.068,1.21846967915e-07,0.0,0.0,0.0,1.21846967915e-07,0.0,0.0,0.0,1.21846967915e-07,-0.196133,0.8433719,9.0417313,9e-08,0.0,0.0,0.0,9e-08,0.0,0.0,0.0,9e-08
1539875924503587208,8924,1539875924501927400,base_link,0.0,0.0,0.0,0.0,-1.0,0.0,0.0,0.0,0.0,0.0,0.0,0.0,0.0,-0.382,0.034,-0.1,1.21846967915e-07,0.0,0.0,0.0,1.21846967915e-07,0.0,0.0,0.0,1.21846967915e-07,-0.4314926,0.5295591,9.85568325,9e-08,0.0,0.0,0.0,9e-08,0.0,0.0,0.0,9e-08
1539875924596375368,8925,1539875924595437256,base_link,0.0,0.0,0.0,0.0,-1.0,0.0,0.0,0.0,0.0,0.0,0.0,0.0,0.0,-0.3,0.064,-0.093,1.21846967915e-07,0.0,0.0,0.0,1.21846967915e-07,0.0,0.0,0.0,1.21846967915e-07,-0.36284605,0.53936575,10.40485565,9e-08,0.0,0.0,0.0,9e-08,0.0,0.0,0.0,9e-08
1539875924715268168,8926,1539875924714124072,base_link,0.0,0.0,0.0,0.0,-1.0,0.0,0.0,0.0,0.0,0.0,0.0,0.0,0.0,-0.236,0.069,-0.082,1.21846967915e-07,0.0,0.0,0.0,1.21846967915e-07,0.0,0.0,0.0,1.21846967915e-07,-0.46091255,0.392266,9.3163175,9e-08,0.0,0.0,0.0,9e-08,0.0,0.0,0.0,9e-08
1539875924799687720,8927,1539875924799195400,base_link,0.0,0.0,0.0,0.0,-1.0,0.0,0.0,0.0,0.0,0.0,0.0,0.0,0.0,-0.216,0.03,-0.056,1.21846967915e-07,0.0,0.0,0.0,1.21846967915e-07,0.0,0.0,0.0,1.21846967915e-07,-0.4511059,0.4511059,9.89490985,9e-08,0.0,0.0,0.0,9e-08,0.0,0.0,0.0,9e-08
1539875924908507848,8928,1539875924907896968,base_link,0.0,0.0,0.0,0.0,-1.0,0.0,0.0,0.0,0.0,0.0,0.0,0.0,0.0,-0.257,0.031,-0.037,1.21846967915e-07,0.0,0.0,0.0,1.21846967915e-07,0.0,0.0,0.0,1.21846967915e-07,-0.4118793,0.46091255,10.09104285,9e-08,0.0,0.0,0.0,9e-08,0.0,0.0,0.0,9e-08
1539875925003010888,8929,1539875925001257608,base_link,0.0,0.0,0.0,0.0,-1.0,0.0,0.0,0.0,0.0,0.0,0.0,0.0,0.0,-0.197,0.038,-0.025,1.21846967915e-07,0.0,0.0,0.0,1.21846967915e-07,0.0,0.0,0.0,1.21846967915e-07,-0.3726527,0.40207265,10.0616229,9e-08,0.0,0.0,0.0,9e-08,0.0,0.0,0.0,9e-08
1539875925131470024,8930,1539875925130533032,base_link,0.0,0.0,0.0,0.0,-1.0,0.0,0.0,0.0,0.0,0.0,0.0,0.0,0.0,-0.132,0.05,-0.009,1.21846967915e-07,0.0,0.0,0.0,1.21846967915e-07,0.0,0.0,0.0,1.21846967915e-07,-0.46091255,0.196133,9.218251,9e-08,0.0,0.0,0.0,9e-08,0.0,0.0,0.0,9e-08
1539875925212813512,8931,1539875925212311368,base_link,0.0,0.0,0.0,0.0,-1.0,0.0,0.0,0.0,0.0,0.0,0.0,0.0,0.0,-0.057,0.049,0.01,1.21846967915e-07,0.0,0.0,0.0,1.21846967915e-07,0.0,0.0,0.0,1.21846967915e-07,-0.34323275,0.44129925,9.71839015,9e-08,0.0,0.0,0.0,9e-08,0.0,0.0,0.0,9e-08
1539875925294657800,8932,1539875925294123272,base_link,0.0,0.0,0.0,0.0,-1.0,0.0,0.0,0.0,0.0,0.0,0.0,0.0,0.0,-0.12,0.045,0.01,1.21846967915e-07,0.0,0.0,0.0,1.21846967915e-07,0.0,0.0,0.0,1.21846967915e-07,-0.4903325,0.2353596,9.6693569,9e-08,0.0,0.0,0.0,9e-08,0.0,0.0,0.0,9e-08
1539875925404036488,8933,1539875925400665352,base_link,0.0,0.0,0.0,0.0,-1.0,0.0,0.0,0.0,0.0,0.0,0.0,0.0,0.0,-0.052,0.023,0.028,1.21846967915e-07,0.0,0.0,0.0,1.21846967915e-07,0.0,0.0,0.0,1.21846967915e-07,-0.3530394,0.26477955,11.52281375,9e-08,0.0,0.0,0.0,9e-08,0.0,0.0,0.0,9e-08
1539875925498013480,8934,1539875925497443912,base_link,0.0,0.0,0.0,0.0,-1.0,0.0,0.0,0.0,0.0,0.0,0.0,0.0,0.0,0.003,0.008,0.051,1.21846967915e-07,0.0,0.0,0.0,1.21846967915e-07,0.0,0.0,0.0,1.21846967915e-07,-0.36284605,0.14709975,11.9444997,9e-08,0.0,0.0,0.0,9e-08,0.0,0.0,0.0,9e-08
1539875925591113608,8935,1539875925590341512,base_link,0.0,0.0,0.0,0.0,-1.0,0.0,0.0,0.0,0.0,0.0,0.0,0.0,0.0,-0.063,0.052,0.085,1.21846967915e-07,0.0,0.0,0.0,1.21846967915e-07,0.0,0.0,0.0,1.21846967915e-07,-0.4903325,0.26477955,11.07170785,9e-08,0.0,0.0,0.0,9e-08,0.0,0.0,0.0,9e-08
1539875925696938760,8936,1539875925696345064,base_link,0.0,0.0,0.0,0.0,-1.0,0.0,0.0,0.0,0.0,0.0,0.0,0.0,0.0,-0.092,0.055,0.084,1.21846967915e-07,0.0,0.0,0.0,1.21846967915e-07,0.0,0.0,0.0,1.21846967915e-07,-0.55897905,0.4511059,9.9243298,9e-08,0.0,0.0,0.0,9e-08,0.0,0.0,0.0,9e-08
1539875925837913032,8937,1539875925836474728,base_link,0.0,0.0,0.0,0.0,-1.0,0.0,0.0,0.0,0.0,0.0,0.0,0.0,0.0,-0.15,0.049,0.004,1.21846967915e-07,0.0,0.0,0.0,1.21846967915e-07,0.0,0.0,0.0,1.21846967915e-07,-0.4314926,0.71588545,10.198916,9e-08,0.0,0.0,0.0,9e-08,0.0,0.0,0.0,9e-08
1539875925898636840,8938,1539875925898203368,base_link,0.0,0.0,0.0,0.0,-1.0,0.0,0.0,0.0,0.0,0.0,0.0,0.0,0.0,-0.183,0.058,-0.02,1.21846967915e-07,0.0,0.0,0.0,1.21846967915e-07,0.0,0.0,0.0,1.21846967915e-07,-0.5491724,0.51975245,10.0420096,9e-08,0.0,0.0,0.0,9e-08,0.0,0.0,0.0,9e-08
1539875926016785960,8939,1539875926015808456,base_link,0.0,0.0,0.0,0.0,-1.0,0.0,0.0,0.0,0.0,0.0,0.0,0.0,0.0,-0.218,0.08,-0.036,1.21846967915e-07,0.0,0.0,0.0,1.21846967915e-07,0.0,0.0,0.0,1.21846967915e-07,-0.5687857,0.0392266,9.18883105,9e-08,0.0,0.0,0.0,9e-08,0.0,0.0,0.0,9e-08
1539875926103856776,8940,1539875926103156520,base_link,0.0,0.0,0.0,0.0,-1.0,0.0,0.0,0.0,0.0,0.0,0.0,0.0,0.0,-0.05,0.121,0.002,1.21846967915e-07,0.0,0.0,0.0,1.21846967915e-07,0.0,0.0,0.0,1.21846967915e-07,-0.73549875,-0.14709975,6.9431082,9e-08,0.0,0.0,0.0,9e-08,0.0,0.0,0.0,9e-08
1539875926208791144,8941,1539875926208142440,base_link,0.0,0.0,0.0,0.0,-1.0,0.0,0.0,0.0,0.0,0.0,0.0,0.0,0.0,0.024,0.081,0.059,1.21846967915e-07,0.0,0.0,0.0,1.21846967915e-07,0.0,0.0,0.0,1.21846967915e-07,-0.7256921,0.48052585,9.32612415,9e-08,0.0,0.0,0.0,9e-08,0.0,0.0,0.0,9e-08
1539875926298305576,8942,1539875926297696968,base_link,0.0,0.0,0.0,0.0,-1.0,0.0,0.0,0.0,0.0,0.0,0.0,0.0,0.0,0.081,0.083,0.048,1.21846967915e-07,0.0,0.0,0.0,1.21846967915e-07,0.0,0.0,0.0,1.21846967915e-07,-0.784532,0.3726527,7.8257067,9e-08,0.0,0.0,0.0,9e-08,0.0,0.0,0.0,9e-08
1539875926410461000,8943,1539875926409341096,base_link,0.0,0.0,0.0,0.0,-1.0,0.0,0.0,0.0,0.0,0.0,0.0,0.0,0.0,-0.024,0.113,0.013,1.21846967915e-07,0.0,0.0,0.0,1.21846967915e-07,0.0,0.0,0.0,1.21846967915e-07,-0.8041453,0.71588545,4.8052585,9e-08,0.0,0.0,0.0,9e-08,0.0,0.0,0.0,9e-08
1539875926494787656,8944,1539875926491154056,base_link,0.0,0.0,0.0,0.0,-1.0,0.0,0.0,0.0,0.0,0.0,0.0,0.0,0.0,-0.023,0.124,-0.042,1.21846967915e-07,0.0,0.0,0.0,1.21846967915e-07,0.0,0.0,0.0,1.21846967915e-07,-0.9218251,0.63743225,4.22666615,9e-08,0.0,0.0,0.0,9e-08,0.0,0.0,0.0,9e-08
1539875926617956072,8945,1539875926616866984,base_link,0.0,0.0,0.0,0.0,-1.0,0.0,0.0,0.0,0.0,0.0,0.0,0.0,0.0,-0.01,0.042,-0.056,1.21846967915e-07,0.0,0.0,0.0,1.21846967915e-07,0.0,0.0,0.0,1.21846967915e-07,-1.0002783,0.20593965,5.7074703,9e-08,0.0,0.0,0.0,9e-08,0.0,0.0,0.0,9e-08
1539875926712590472,8946,1539875926711830984,base_link,0.0,0.0,0.0,0.0,-1.0,0.0,0.0,0.0,0.0,0.0,0.0,0.0,0.0,0.186,0.04,-0.055,1.21846967915e-07,0.0,0.0,0.0,1.21846967915e-07,0.0,0.0,0.0,1.21846967915e-07,-1.02969825,-0.3530394,7.7864801,9e-08,0.0,0.0,0.0,9e-08,0.0,0.0,0.0,9e-08
1539875926818557544,8947,1539875926815625736,base_link,0.0,0.0,0.0,0.0,-1.0,0.0,0.0,0.0,0.0,0.0,0.0,0.0,0.0,0.169,0.053,-0.016,1.21846967915e-07,0.0,0.0,0.0,1.21846967915e-07,0.0,0.0,0.0,1.21846967915e-07,-1.0198916,-0.44129925,6.3547092,9e-08,0.0,0.0,0.0,9e-08,0.0,0.0,0.0,9e-08
1539875926916620680,8948,1539875926915662024,base_link,0.0,0.0,0.0,0.0,-1.0,0.0,0.0,0.0,0.0,0.0,0.0,0.0,0.0,0.203,0.014,0.039,1.21846967915e-07,0.0,0.0,0.0,1.21846967915e-07,0.0,0.0,0.0,1.21846967915e-07,-0.9022118,0.0980665,7.52170055,9e-08,0.0,0.0,0.0,9e-08,0.0,0.0,0.0,9e-08
1539875926996757128,8949,1539875926996208296,base_link,0.0,0.0,0.0,0.0,-1.0,0.0,0.0,0.0,0.0,0.0,0.0,0.0,0.0,0.141,-0.023,0.072,1.21846967915e-07,0.0,0.0,0.0,1.21846967915e-07,0.0,0.0,0.0,1.21846967915e-07,-0.81395195,-0.02941995,8.4729456,9e-08,0.0,0.0,0.0,9e-08,0.0,0.0,0.0,9e-08
1539875927104766664,8950,1539875927103772104,base_link,0.0,0.0,0.0,0.0,-1.0,0.0,0.0,0.0,0.0,0.0,0.0,0.0,0.0,0.054,-0.046,0.101,1.21846967915e-07,0.0,0.0,0.0,1.21846967915e-07,0.0,0.0,0.0,1.21846967915e-07,-0.67665885,0.1765197,9.01231135,9e-08,0.0,0.0,0.0,9e-08,0.0,0.0,0.0,9e-08
1539875927267659368,8951,1539875927267107848,base_link,0.0,0.0,0.0,0.0,-1.0,0.0,0.0,0.0,0.0,0.0,0.0,0.0,0.0,-0.008,-0.045,0.086,1.21846967915e-07,0.0,0.0,0.0,1.21846967915e-07,0.0,0.0,0.0,1.21846967915e-07,-0.588399,0.32361945,9.89490985,9e-08,0.0,0.0,0.0,9e-08,0.0,0.0,0.0,9e-08
1539875927303017096,8952,1539875927302548008,base_link,0.0,0.0,0.0,0.0,-1.0,0.0,0.0,0.0,0.0,0.0,0.0,0.0,0.0,0.013,-0.053,0.075,1.21846967915e-07,0.0,0.0,0.0,1.21846967915e-07,0.0,0.0,0.0,1.21846967915e-07,-0.5099458,0.36284605,9.80665,9e-08,0.0,0.0,0.0,9e-08,0.0,0.0,0.0,9e-08
1539875927383395048,8953,1539875927382851688,base_link,0.0,0.0,0.0,0.0,-1.0,0.0,0.0,0.0,0.0,0.0,0.0,0.0,0.0,-0.13,-0.089,0.055,1.21846967915e-07,0.0,0.0,0.0,1.21846967915e-07,0.0,0.0,0.0,1.21846967915e-07,-0.42168595,0.53936575,11.66010685,9e-08,0.0,0.0,0.0,9e-08,0.0,0.0,0.0,9e-08
1539875927513316232,8954,1539875927512582952,base_link,0.0,0.0,0.0,0.0,-1.0,0.0,0.0,0.0,0.0,0.0,0.0,0.0,0.0,-0.138,-0.057,0.019,1.21846967915e-07,0.0,0.0,0.0,1.21846967915e-07,0.0,0.0,0.0,1.21846967915e-07,-0.34323275,0.36284605,12.3367657,9e-08,0.0,0.0,0.0,9e-08,0.0,0.0,0.0,9e-08
1539875927607808840,8955,1539875927599681608,base_link,0.0,0.0,0.0,0.0,-1.0,0.0,0.0,0.0,0.0,0.0,0.0,0.0,0.0,-0.161,-0.058,0.01,1.21846967915e-07,0.0,0.0,0.0,1.21846967915e-07,0.0,0.0,0.0,1.21846967915e-07,-0.24516625,0.36284605,12.1210194,9e-08,0.0,0.0,0.0,9e-08,0.0,0.0,0.0,9e-08
1539875927701310440,8956,1539875927700413544,base_link,0.0,0.0,0.0,0.0,-1.0,0.0,0.0,0.0,0.0,0.0,0.0,0.0,0.0,0.092,-0.055,0.005,1.21846967915e-07,0.0,0.0,0.0,1.21846967915e-07,0.0,0.0,0.0,1.21846967915e-07,-0.196133,-0.04903325,10.3754357,9e-08,0.0,0.0,0.0,9e-08,0.0,0.0,0.0,9e-08
1539875927783097800,8957,1539875927782574760,base_link,0.0,0.0,0.0,0.0,-1.0,0.0,0.0,0.0,0.0,0.0,0.0,0.0,0.0,0.07,-0.042,0.053,1.21846967915e-07,0.0,0.0,0.0,1.21846967915e-07,0.0,0.0,0.0,1.21846967915e-07,-0.1765197,-0.10787315,9.5516771,9e-08,0.0,0.0,0.0,9e-08,0.0,0.0,0.0,9e-08
1539875927894913672,8958,1539875927894518024,base_link,0.0,0.0,0.0,0.0,-1.0,0.0,0.0,0.0,0.0,0.0,0.0,0.0,0.0,0.174,-0.049,0.108,1.21846967915e-07,0.0,0.0,0.0,1.21846967915e-07,0.0,0.0,0.0,1.21846967915e-07,0.0,0.1372931,9.9831697,9e-08,0.0,0.0,0.0,9e-08,0.0,0.0,0.0,9e-08
1539875928001805640,8959,1539875927997248936,base_link,0.0,0.0,0.0,0.0,-1.0,0.0,0.0,0.0,0.0,0.0,0.0,0.0,0.0,-0.186,-0.14,0.128,1.21846967915e-07,0.0,0.0,0.0,1.21846967915e-07,0.0,0.0,0.0,1.21846967915e-07,0.1765197,0.28439285,12.0425662,9e-08,0.0,0.0,0.0,9e-08,0.0,0.0,0.0,9e-08
1539875928096329608,8960,1539875928095753800,base_link,0.0,0.0,0.0,0.0,-1.0,0.0,0.0,0.0,0.0,0.0,0.0,0.0,0.0,-0.137,-0.083,0.137,1.21846967915e-07,0.0,0.0,0.0,1.21846967915e-07,0.0,0.0,0.0,1.21846967915e-07,-0.0392266,0.67665885,11.5522337,9e-08,0.0,0.0,0.0,9e-08,0.0,0.0,0.0,9e-08
1539875928190191272,8961,1539875928189519592,base_link,0.0,0.0,0.0,0.0,-1.0,0.0,0.0,0.0,0.0,0.0,0.0,0.0,0.0,-0.137,-0.084,0.085,1.21846967915e-07,0.0,0.0,0.0,1.21846967915e-07,0.0,0.0,0.0,1.21846967915e-07,0.00980665,0.6668522,11.69933345,9e-08,0.0,0.0,0.0,9e-08,0.0,0.0,0.0,9e-08
1539875928303606824,8962,1539875928303261288,base_link,0.0,0.0,0.0,0.0,-1.0,0.0,0.0,0.0,0.0,0.0,0.0,0.0,0.0,-0.069,-0.045,0.03,1.21846967915e-07,0.0,0.0,0.0,1.21846967915e-07,0.0,0.0,0.0,1.21846967915e-07,0.2941995,0.63743225,10.46369555,9e-08,0.0,0.0,0.0,9e-08,0.0,0.0,0.0,9e-08
1539875928402684296,8963,1539875928402100296,base_link,0.0,0.0,0.0,0.0,-1.0,0.0,0.0,0.0,0.0,0.0,0.0,0.0,0.0,-0.084,-0.032,-0.013,1.21846967915e-07,0.0,0.0,0.0,1.21846967915e-07,0.0,0.0,0.0,1.21846967915e-07,0.20593965,0.6668522,9.7478101,9e-08,0.0,0.0,0.0,9e-08,0.0,0.0,0.0,9e-08
1539875928521926600,8964,1539875928517514088,base_link,0.0,0.0,0.0,0.0,-1.0,0.0,0.0,0.0,0.0,0.0,0.0,0.0,0.0,-0.076,0.013,-0.06,1.21846967915e-07,0.0,0.0,0.0,1.21846967915e-07,0.0,0.0,0.0,1.21846967915e-07,-0.0588399,1.28467115,7.060788,9e-08,0.0,0.0,0.0,9e-08,0.0,0.0,0.0,9e-08
1539875928600113576,8965,1539875928599744168,base_link,0.0,0.0,0.0,0.0,-1.0,0.0,0.0,0.0,0.0,0.0,0.0,0.0,0.0,-0.083,-0.019,-0.164,1.21846967915e-07,0.0,0.0,0.0,1.21846967915e-07,0.0,0.0,0.0,1.21846967915e-07,0.04903325,0.6276256,8.1983594,9e-08,0.0,0.0,0.0,9e-08,0.0,0.0,0.0,9e-08
1539875928711858664,8966,1539875928710410952,base_link,0.0,0.0,0.0,0.0,-1.0,0.0,0.0,0.0,0.0,0.0,0.0,0.0,0.0,-0.112,-0.065,-0.169,1.21846967915e-07,0.0,0.0,0.0,1.21846967915e-07,0.0,0.0,0.0,1.21846967915e-07,0.14709975,0.2941995,9.5124505,9e-08,0.0,0.0,0.0,9e-08,0.0,0.0,0.0,9e-08
1539875928802973096,8967,1539875928802533576,base_link,0.0,0.0,0.0,0.0,-1.0,0.0,0.0,0.0,0.0,0.0,0.0,0.0,0.0,-0.002,-0.095,-0.153,1.21846967915e-07,0.0,0.0,0.0,1.21846967915e-07,0.0,0.0,0.0,1.21846967915e-07,0.2941995,-0.06864655,11.38552065,9e-08,0.0,0.0,0.0,9e-08,0.0,0.0,0.0,9e-08
1539875928905594696,8968,1539875928904197992,base_link,0.0,0.0,0.0,0.0,-1.0,0.0,0.0,0.0,0.0,0.0,0.0,0.0,0.0,0.0,-0.124,-0.048,1.21846967915e-07,0.0,0.0,0.0,1.21846967915e-07,0.0,0.0,0.0,1.21846967915e-07,0.3726527,0.04903325,12.66038515,9e-08,0.0,0.0,0.0,9e-08,0.0,0.0,0.0,9e-08
1539875928999688840,8969,1539875928998996328,base_link,0.0,0.0,0.0,0.0,-1.0,0.0,0.0,0.0,0.0,0.0,0.0,0.0,0.0,0.051,-0.146,0.016,1.21846967915e-07,0.0,0.0,0.0,1.21846967915e-07,0.0,0.0,0.0,1.21846967915e-07,0.7256921,0.1569064,14.3373223,9e-08,0.0,0.0,0.0,9e-08,0.0,0.0,0.0,9e-08
1539875929104951080,8970,1539875929100524424,base_link,0.0,0.0,0.0,0.0,-1.0,0.0,0.0,0.0,0.0,0.0,0.0,0.0,0.0,-0.109,-0.172,0.083,1.21846967915e-07,0.0,0.0,0.0,1.21846967915e-07,0.0,0.0,0.0,1.21846967915e-07,0.8433719,0.32361945,14.0235095,9e-08,0.0,0.0,0.0,9e-08,0.0,0.0,0.0,9e-08
1539875929205771784,8971,1539875929203576840,base_link,0.0,0.0,0.0,0.0,-1.0,0.0,0.0,0.0,0.0,0.0,0.0,0.0,0.0,-0.164,-0.172,0.104,1.21846967915e-07,0.0,0.0,0.0,1.21846967915e-07,0.0,0.0,0.0,1.21846967915e-07,0.9218251,0.1176798,14.52364865,9e-08,0.0,0.0,0.0,9e-08,0.0,0.0,0.0,9e-08
