%time,field.header.seq,field.header.stamp,field.header.frame_id,field.orientation.x,field.orientation.y,field.orientation.z,field.orientation.w,field.orientation_covariance0,field.orientation_covariance1,field.orientation_covariance2,field.orientation_covariance3,field.orientation_covariance4,field.orientation_covariance5,field.orientation_covariance6,field.orientation_covariance7,field.orientation_covariance8,field.angular_velocity.x,field.angular_velocity.y,field.angular_velocity.z,field.angular_velocity_covariance0,field.angular_velocity_covariance1,field.angular_velocity_covariance2,field.angular_velocity_covariance3,field.angular_velocity_covariance4,field.angular_velocity_covariance5,field.angular_velocity_covariance6,field.angular_velocity_covariance7,field.angular_velocity_covariance8,field.linear_acceleration.x,field.linear_acceleration.y,field.linear_acceleration.z,field.linear_acceleration_covariance0,field.linear_acceleration_covariance1,field.linear_acceleration_covariance2,field.linear_acceleration_covariance3,field.linear_acceleration_covariance4,field.linear_acceleration_covariance5,field.linear_acceleration_covariance6,field.linear_acceleration_covariance7,field.linear_acceleration_covariance8
1539875887122485096,2357,1539875887122263976,base_link,0.0173226338011,-0.0776010096081,-0.985464355831,-0.150126656704,1.0,0.0,0.0,0.0,1.0,0.0,0.0,0.0,1.0,0.874454140663,-0.221043333411,-0.250831872225,1.21846967915e-07,0.0,0.0,0.0,1.21846967915e-07,0.0,0.0,0.0,1.21846967915e-07,-0.77472535,0.8433719,13.1997509,9e-08,0.0,0.0,0.0,9e-08,0.0,0.0,0.0,9e-08
1539875887495916520,2358,1539875887493005416,base_link,-0.0431446146817,-0.222933641501,-0.955340065103,-0.189115027746,1.0,0.0,0.0,0.0,1.0,0.0,0.0,0.0,1.0,0.741818487644,-0.23407459259,-0.153470471501,1.21846967915e-07,0.0,0.0,0.0,1.21846967915e-07,0.0,0.0,0.0,1.21846967915e-07,-0.0784532,0.2745862,13.85679645,9e-08,0.0,0.0,0.0,9e-08,0.0,0.0,0.0,9e-08
1539875887889311880,2359,1539875887888481352,base_link,-0.077967242388,-0.300496495279,-0.928081366857,-0.205640321758,1.0,0.0,0.0,0.0,1.0,0.0,0.0,0.0,1.0,0.00667635351419,-0.0638689547777,-0.171422600746,1.21846967915e-07,0.0,0.0,0.0,1.21846967915e-07,0.0,0.0,0.0,1.21846967915e-07,-0.5295591,0.6080123,5.88399,9e-08,0.0,0.0,0.0,9e-08,0.0,0.0,0.0,9e-08
1539875888262665768,2360,1539875888262342216,base_link,-0.0757560563552,-0.333549723331,-0.907287658722,-0.244611337272,1.0,0.0,0.0,0.0,1.0,0.0,0.0,0.0,1.0,0.21384459734,-0.00763229560107,-0.22733913362,1.21846967915e-07,0.0,0.0,0.0,1.21846967915e-07,0.0,0.0,0.0,1.21846967915e-07,-1.0787315,0.38245935,8.87501825,9e-08,0.0,0.0,0.0,9e-08,0.0,0.0,0.0,9e-08
1539875888652135240,2361,1539875888644815976,base_link,-0.0523526878504,-0.311194010487,-0.90537954836,-0.284086883406,1.0,0.0,0.0,0.0,1.0,0.0,0.0,0.0,1.0,-0.360019236803,0.0671438723803,-0.254369854927,1.21846967915e-07,0.0,0.0,0.0,1.21846967915e-07,0.0,0.0,0.0,1.21846967915e-07,-1.2552512,0.57859235,9.95374975,9e-08,0.0,0.0,0.0,9e-08,0.0,0.0,0.0,9e-08
1539875889031314344,2362,1539875889030869992,base_link,0.0100483350195,-0.22818762708,-0.917642275182,-0.325210843314,1.0,0.0,0.0,0.0,1.0,0.0,0.0,0.0,1.0,-0.475574612617,0.121366553009,-0.203028053045,1.21846967915e-07,0.0,0.0,0.0,1.21846967915e-07,0.0,0.0,0.0,1.21846967915e-07,-1.6475172,0.63743225,5.9428299,9e-08,0.0,0.0,0.0,9e-08,0.0,0.0,0.0,9e-08
1539875889420626984,2363,1539875889420304552,base_link,0.0708188500654,-0.154937205847,-0.920771455557,-0.350940278894,1.0,0.0,0.0,0.0,1.0,0.0,0.0,0.0,1.0,-0.431145727634,0.183021530509,-0.170116201043,1.21846967915e-07,0.0,0.0,0.0,1.21846967915e-07,0.0,0.0,0.0,1.21846967915e-07,-1.8240369,0.44129925,6.5116156,9e-08,0.0,0.0,0.0,9e-08,0.0,0.0,0.0,9e-08
1539875889818919272,2364,1539875889818639880,base_link,0.126487569152,-0.10105482476,-0.916189455654,-0.366586549933,1.0,0.0,0.0,0.0,1.0,0.0,0.0,0.0,1.0,-0.255442231894,0.170549213886,-0.103632390499,1.21846967915e-07,0.0,0.0,0.0,1.21846967915e-07,0.0,0.0,0.0,1.21846967915e-07,-1.97113665,0.1176798,5.0210048,9e-08,0.0,0.0,0.0,9e-08,0.0,0.0,0.0,9e-08
1539875890158185416,2365,1539875890157840712,base_link,0.145630020563,-0.109635883239,-0.911540100437,-0.368600753544,1.0,0.0,0.0,0.0,1.0,0.0,0.0,0.0,1.0,0.113158628345,0.10009676218,-0.00578951556236,1.21846967915e-07,0.0,0.0,0.0,1.21846967915e-07,0.0,0.0,0.0,1.21846967915e-07,-1.8632635,0.6080123,7.3746008,9e-08,0.0,0.0,0.0,9e-08,0.0,0.0,0.0,9e-08
1539875890482855880,2366,1539875890482033480,base_link,0.167295181634,-0.0900958557082,-0.911342230866,-0.365171736622,1.0,0.0,0.0,0.0,1.0,0.0,0.0,0.0,1.0,-0.241936117411,0.0724163651466,-0.0522027090192,1.21846967915e-07,0.0,0.0,0.0,1.21846967915e-07,0.0,0.0,0.0,1.21846967915e-07,-2.0397832,0.79433865,8.60043205,9e-08,0.0,0.0,0.0,9e-08,0.0,0.0,0.0,9e-08
1539875890931217288,2367,1539875890930628264,base_link,0.187185306817,-0.0747058102458,-0.907978107073,-0.367364206073,1.0,0.0,0.0,0.0,1.0,0.0,0.0,0.0,1.0,0.080946713686,0.0183507688344,0.0616375058889,1.21846967915e-07,0.0,0.0,0.0,1.21846967915e-07,0.0,0.0,0.0,1.21846967915e-07,-2.3732093,0.00980665,8.4141057,9e-08,0.0,0.0,0.0,9e-08,0.0,0.0,0.0,9e-08
1539875891331912872,2368,1539875891330328968,base_link,0.177195739199,-0.0663040265097,-0.917043644942,-0.351050422801,1.0,0.0,0.0,0.0,1.0,0.0,0.0,0.0,1.0,-0.0509401671588,-0.155620440841,0.0724567249417,1.21846967915e-07,0.0,0.0,0.0,1.21846967915e-07,0.0,0.0,0.0,1.21846967915e-07,-2.3928226,1.04931155,8.42391235,9e-08,0.0,0.0,0.0,9e-08,0.0,0.0,0.0,9e-08
1539875891594925352,2369,1539875891594601192,base_link,0.162073388021,-0.0388239597854,-0.920590003691,-0.353184034388,1.0,0.0,0.0,0.0,1.0,0.0,0.0,0.0,1.0,-0.0519384294748,-0.243923962116,-0.0989320501685,1.21846967915e-07,0.0,0.0,0.0,1.21846967915e-07,0.0,0.0,0.0,1.21846967915e-07,-2.3143694,-0.0392266,11.81701325,9e-08,0.0,0.0,0.0,9e-08,0.0,0.0,0.0,9e-08
1539875891948721928,2370,1539875891948366632,base_link,0.107466049087,-0.0361791485686,-0.925613996241,-0.361082881712,1.0,0.0,0.0,0.0,1.0,0.0,0.0,0.0,1.0,0.150568306446,-0.306007474661,0.0732852146029,1.21846967915e-07,0.0,0.0,0.0,1.21846967915e-07,0.0,0.0,0.0,1.21846967915e-07,-1.2748645,-0.04903325,15.2199208,9e-08,0.0,0.0,0.0,9e-08,0.0,0.0,0.0,9e-08
1539875892325218728,2371,1539875892323796360,base_link,0.0472521633955,-0.0212338385029,-0.93680476049,-0.345995950671,1.0,0.0,0.0,0.0,1.0,0.0,0.0,0.0,1.0,-0.0691246762872,-0.332743942738,0.0939271003008,1.21846967915e-07,0.0,0.0,0.0,1.21846967915e-07,0.0,0.0,0.0,1.21846967915e-07,-0.08825985,0.5687857,18.1619158,9e-08,0.0,0.0,0.0,9e-08,0.0,0.0,0.0,9e-08
1539875892665538792,2372,1539875892664389288,base_link,0.00167893827134,0.00495627636239,-0.941798924131,-0.336135988845,1.0,0.0,0.0,0.0,1.0,0.0,0.0,0.0,1.0,-0.0125902350992,-0.18229919672,0.0294214300811,1.21846967915e-07,0.0,0.0,0.0,1.21846967915e-07,0.0,0.0,0.0,1.21846967915e-07,0.0196133,0.53936575,17.259704,9e-08,0.0,0.0,0.0,9e-08,0.0,0.0,0.0,9e-08
1539875893086162888,2373,1539875893085368488,base_link,-0.0417384610259,0.00159332681846,-0.935222521157,-0.351588108591,1.0,0.0,0.0,0.0,1.0,0.0,0.0,0.0,1.0,0.180769994855,-0.165505632758,-0.0979797616601,1.21846967915e-07,0.0,0.0,0.0,1.21846967915e-07,0.0,0.0,0.0,1.21846967915e-07,-0.0588399,0.588399,13.56259695,9e-08,0.0,0.0,0.0,9e-08,0.0,0.0,0.0,9e-08
1539875893442934376,2374,1539875893441293672,base_link,-0.0778458861492,-0.00862921301522,-0.932323981733,-0.353040433631,1.0,0.0,0.0,0.0,1.0,0.0,0.0,0.0,1.0,-0.170519769192,-0.184043034911,0.0842550173402,1.21846967915e-07,0.0,0.0,0.0,1.21846967915e-07,0.0,0.0,0.0,1.21846967915e-07,0.26477955,0.50013915,14.93552795,9e-08,0.0,0.0,0.0,9e-08,0.0,0.0,0.0,9e-08
1539875893862241608,2375,1539875893862018344,base_link,-0.0966476130536,-0.00480569655976,-0.93343623341,-0.34544600494,1.0,0.0,0.0,0.0,1.0,0.0,0.0,0.0,1.0,-0.0718813017011,-0.0206441953778,0.0523480139673,1.21846967915e-07,0.0,0.0,0.0,1.21846967915e-07,0.0,0.0,0.0,1.21846967915e-07,0.10787315,0.3726527,10.6107953,9e-08,0.0,0.0,0.0,9e-08,0.0,0.0,0.0,9e-08
1539875894243178568,2376,1539875894241959688,base_link,-0.0827131281848,0.011741049585,-0.933511603397,-0.348678609186,1.0,0.0,0.0,0.0,1.0,0.0,0.0,0.0,1.0,-0.0795100927353,0.0518954768777,-0.0208702199161,1.21846967915e-07,0.0,0.0,0.0,1.21846967915e-07,0.0,0.0,0.0,1.21846967915e-07,-0.02941995,0.3530394,8.63965865,9e-08,0.0,0.0,0.0,9e-08,0.0,0.0,0.0,9e-08
1539875894650696296,2377,1539875894649183048,base_link,-0.0668317646491,0.026321871027,-0.932808055819,-0.353142754899,1.0,0.0,0.0,0.0,1.0,0.0,0.0,0.0,1.0,-0.069394081831,0.067197419703,-0.0457090474665,1.21846967915e-07,0.0,0.0,0.0,1.21846967915e-07,0.0,0.0,0.0,1.21846967915e-07,-0.0392266,0.4511059,8.4925589,9e-08,0.0,0.0,0.0,9e-08,0.0,0.0,0.0,9e-08
1539875895058213096,2378,1539875895057869288,base_link,-0.0483989025196,0.0254933539831,-0.935202248201,-0.349863387763,1.0,0.0,0.0,0.0,1.0,0.0,0.0,0.0,1.0,0.101388715208,0.0678577199578,0.0934698283672,1.21846967915e-07,0.0,0.0,0.0,1.21846967915e-07,0.0,0.0,0.0,1.21846967915e-07,-0.0784532,0.18632635,8.52197885,9e-08,0.0,0.0,0.0,9e-08,0.0,0.0,0.0,9e-08
1539875895399372808,2379,1539875895399115528,base_link,-0.0233363594945,0.0348179583082,-0.936843268528,-0.347228763669,1.0,0.0,0.0,0.0,1.0,0.0,0.0,0.0,1.0,0.0834616050124,0.135760217905,-0.0635790675879,1.21846967915e-07,0.0,0.0,0.0,1.21846967915e-07,0.0,0.0,0.0,1.21846967915e-07,-0.30400615,0.5491724,5.63882375,9e-08,0.0,0.0,0.0,9e-08,0.0,0.0,0.0,9e-08
1539875895880066376,2380,1539875895879790088,base_link,-0.0129941143782,-5.04736929722e-05,-0.933619512391,-0.35803038492,1.0,0.0,0.0,0.0,1.0,0.0,0.0,0.0,1.0,0.104771628976,0.0605159662664,0.043735101819,1.21846967915e-07,0.0,0.0,0.0,1.21846967915e-07,0.0,0.0,0.0,1.21846967915e-07,-0.10787315,-0.20593965,7.5903471,9e-08,0.0,0.0,0.0,9e-08,0.0,0.0,0.0,9e-08
1539875896401501736,2381,1539875896401225320,base_link,-0.00573316773556,-0.0043027693331,-0.947136857236,-0.32074973208,1.0,0.0,0.0,0.0,1.0,0.0,0.0,0.0,1.0,-0.189342021942,0.0808868184686,0.119108855724,1.21846967915e-07,0.0,0.0,0.0,1.21846967915e-07,0.0,0.0,0.0,1.21846967915e-07,0.1765197,0.95124505,13.3566573,9e-08,0.0,0.0,0.0,9e-08,0.0,0.0,0.0,9e-08
1539875896754493128,2382,1539875896754119912,base_link,0.010946720028,-0.0199140889901,-0.945603350935,-0.324527196211,1.0,0.0,0.0,0.0,1.0,0.0,0.0,0.0,1.0,0.147236064076,0.0987802818418,-0.111731365323,1.21846967915e-07,0.0,0.0,0.0,1.21846967915e-07,0.0,0.0,0.0,1.21846967915e-07,0.08825985,0.55897905,5.9036033,9e-08,0.0,0.0,0.0,9e-08,0.0,0.0,0.0,9e-08
1539875897081884648,2383,1539875897081400744,base_link,0.0112480527135,-0.0666594972215,-0.938006388675,-0.339961773653,1.0,0.0,0.0,0.0,1.0,0.0,0.0,0.0,1.0,0.23860809207,0.049328148365,0.0113599887118,1.21846967915e-07,0.0,0.0,0.0,1.21846967915e-07,0.0,0.0,0.0,1.21846967915e-07,-0.0784532,0.00980665,10.46369555,9e-08,0.0,0.0,0.0,9e-08,0.0,0.0,0.0,9e-08
1539875897394436840,2384,1539875897393985320,base_link,0.0285028003823,-0.0468209946031,-0.942147254245,-0.330687066807,1.0,0.0,0.0,0.0,1.0,0.0,0.0,0.0,1.0,-0.160391613841,0.168740943074,-0.0196660943329,1.21846967915e-07,0.0,0.0,0.0,1.21846967915e-07,0.0,0.0,0.0,1.21846967915e-07,0.0980665,1.12776475,9.9831697,9e-08,0.0,0.0,0.0,9e-08,0.0,0.0,0.0,9e-08
1539875897689210280,2385,1539875897685853096,base_link,0.0433627879819,-0.0679270911575,-0.930615530659,-0.357015844188,1.0,0.0,0.0,0.0,1.0,0.0,0.0,0.0,1.0,0.181676909328,0.0770523846149,-0.27224996686,1.21846967915e-07,0.0,0.0,0.0,1.21846967915e-07,0.0,0.0,0.0,1.21846967915e-07,-0.3138128,0.8825985,7.1784678,9e-08,0.0,0.0,0.0,9e-08,0.0,0.0,0.0,9e-08
1539875898180774504,2386,1539875898180505544,base_link,0.0188670406578,-0.140147948081,-0.899638608987,-0.413101634764,1.0,0.0,0.0,0.0,1.0,0.0,0.0,0.0,1.0,0.457291483879,-0.0661037042737,-0.0840121656656,1.21846967915e-07,0.0,0.0,0.0,1.21846967915e-07,0.0,0.0,0.0,1.21846967915e-07,-0.28439285,1.13731693586e-15,9.28689755,9e-08,0.0,0.0,0.0,9e-08,0.0,0.0,0.0,9e-08
1539875898578546024,2387,1539875898577995176,base_link,-0.0185800087977,-0.17858754791,-0.890510807488,-0.418033219675,1.0,0.0,0.0,0.0,1.0,0.0,0.0,0.0,1.0,0.217527374625,-0.107488766313,0.034751534462,1.21846967915e-07,0.0,0.0,0.0,1.21846967915e-07,0.0,0.0,0.0,1.21846967915e-07,0.1765197,0.196133,10.95402805,9e-08,0.0,0.0,0.0,9e-08,0.0,0.0,0.0,9e-08
1539875898933881256,2388,1539875898933542728,base_link,-0.0658532788629,-0.230691064752,-0.875490116214,-0.419478288733,1.0,0.0,0.0,0.0,1.0,0.0,0.0,0.0,1.0,0.284989655018,-0.0907994136214,-0.0475068092346,1.21846967915e-07,0.0,0.0,0.0,1.21846967915e-07,0.0,0.0,0.0,1.21846967915e-07,0.14709975,1.2944778,11.5130071,9e-08,0.0,0.0,0.0,9e-08,0.0,0.0,0.0,9e-08
1539875899388119656,2389,1539875899387914920,base_link,-0.10245613722,-0.299881389375,-0.816929373837,-0.481871653467,1.0,0.0,0.0,0.0,1.0,0.0,0.0,0.0,1.0,0.515335738659,-0.170848369598,-0.387078464031,1.21846967915e-07,0.0,0.0,0.0,1.21846967915e-07,0.0,0.0,0.0,1.21846967915e-07,0.1176798,0.28439285,10.13026945,9e-08,0.0,0.0,0.0,9e-08,0.0,0.0,0.0,9e-08
1539875899842732008,2390,1539875899842357768,base_link,-0.172957015349,-0.329104113096,-0.752920093014,-0.543035622331,1.0,0.0,0.0,0.0,1.0,0.0,0.0,0.0,1.0,0.0310697313398,-0.352299809456,-0.217721968889,1.21846967915e-07,0.0,0.0,0.0,1.21846967915e-07,0.0,0.0,0.0,1.21846967915e-07,0.87279185,1.12776475,14.709975,9e-08,0.0,0.0,0.0,9e-08,0.0,0.0,0.0,9e-08
1539875900265621320,2391,1539875900265224264,base_link,-0.215656124942,-0.310907547197,-0.697776619912,-0.608224236261,1.0,0.0,0.0,0.0,1.0,0.0,0.0,0.0,1.0,0.180038422346,-0.358695954084,-0.356541633606,1.21846967915e-07,0.0,0.0,0.0,1.21846967915e-07,0.0,0.0,0.0,1.21846967915e-07,0.75511205,1.0983448,13.69989005,9e-08,0.0,0.0,0.0,9e-08,0.0,0.0,0.0,9e-08
1539875900726908872,2392,1539875900726471528,base_link,-0.25802905585,-0.267213845984,-0.62934359408,-0.68260120674,1.0,0.0,0.0,0.0,1.0,0.0,0.0,0.0,1.0,-0.234235957265,-0.423309922218,-0.20950999856,1.21846967915e-07,0.0,0.0,0.0,1.21846967915e-07,0.0,0.0,0.0,1.21846967915e-07,1.0198916,0.8433719,15.09243435,9e-08,0.0,0.0,0.0,9e-08,0.0,0.0,0.0,9e-08
1539875901015704104,2393,1539875901015376936,base_link,-0.251931740011,-0.210735943262,-0.605329976878,-0.725049225698,1.0,0.0,0.0,0.0,1.0,0.0,0.0,0.0,1.0,-0.224819853902,-0.327388614416,-0.266946673393,1.21846967915e-07,0.0,0.0,0.0,1.21846967915e-07,0.0,0.0,0.0,1.21846967915e-07,0.980665,0.99047165,15.50431365,9e-08,0.0,0.0,0.0,9e-08,0.0,0.0,0.0,9e-08
1539875901345085192,2394,1539875901344468808,base_link,-0.281738087088,-0.189086101511,-0.54320592088,-0.767982697735,1.0,0.0,0.0,0.0,1.0,0.0,0.0,0.0,1.0,0.122232317924,-0.287204891443,-0.336891770363,1.21846967915e-07,0.0,0.0,0.0,1.21846967915e-07,0.0,0.0,0.0,1.21846967915e-07,0.3138128,1.0395049,14.2392558,9e-08,0.0,0.0,0.0,9e-08,0.0,0.0,0.0,9e-08
1539875901765598440,2395,1539875901765149544,base_link,-0.352095593657,-0.188004300215,-0.462218815436,-0.791856579619,1.0,0.0,0.0,0.0,1.0,0.0,0.0,0.0,1.0,0.139459490776,-0.331683635712,-0.219553753734,1.21846967915e-07,0.0,0.0,0.0,1.21846967915e-07,0.0,0.0,0.0,1.21846967915e-07,0.28439285,0.57859235,14.8276548,9e-08,0.0,0.0,0.0,9e-08,0.0,0.0,0.0,9e-08
1539875902230721160,2396,1539875902228795496,base_link,-0.375584393531,-0.148856715081,-0.387953724942,-0.828414116861,1.0,0.0,0.0,0.0,1.0,0.0,0.0,0.0,1.0,-0.121570780873,-0.308354765177,-0.291522562504,1.21846967915e-07,0.0,0.0,0.0,1.21846967915e-07,0.0,0.0,0.0,1.21846967915e-07,0.1765197,0.9022118,13.62143685,9e-08,0.0,0.0,0.0,9e-08,0.0,0.0,0.0,9e-08
1539875902653200392,2397,1539875902652911272,base_link,-0.38545297414,-0.114909027849,-0.314696812913,-0.859760336366,1.0,0.0,0.0,0.0,1.0,0.0,0.0,0.0,1.0,-0.0673505365849,-0.241635113955,-0.293938100338,1.21846967915e-07,0.0,0.0,0.0,1.21846967915e-07,0.0,0.0,0.0,1.21846967915e-07,-0.16671305,1.14737805,12.552512,9e-08,0.0,0.0,0.0,9e-08,0.0,0.0,0.0,9e-08
1539875902959035240,2398,1539875902958357160,base_link,-0.386407911317,-0.101906160822,-0.258985499876,-0.879335300845,1.0,0.0,0.0,0.0,1.0,0.0,0.0,0.0,1.0,0.0698599368334,-0.20370490849,-0.346803635359,1.21846967915e-07,0.0,0.0,0.0,1.21846967915e-07,0.0,0.0,0.0,1.21846967915e-07,-0.2157463,1.01008495,10.05181625,9e-08,0.0,0.0,0.0,9e-08,0.0,0.0,0.0,9e-08
1539875903479220328,2399,1539875903478019080,base_link,-0.402632763312,-0.0884430143712,-0.152687103417,-0.898193375375,1.0,0.0,0.0,0.0,1.0,0.0,0.0,0.0,1.0,-0.0091916769743,-0.212173402309,-0.366694062948,1.21846967915e-07,0.0,0.0,0.0,1.21846967915e-07,0.0,0.0,0.0,1.21846967915e-07,-0.4314926,1.0002783,11.1991943,9e-08,0.0,0.0,0.0,9e-08,0.0,0.0,0.0,9e-08
1539875903965791336,2400,1539875903965218600,base_link,-0.389333330506,-0.0677245911931,-0.0504489810074,-0.917217443042,1.0,0.0,0.0,0.0,1.0,0.0,0.0,0.0,1.0,0.120856285095,-0.268849343061,-0.289097189903,1.21846967915e-07,0.0,0.0,0.0,1.21846967915e-07,0.0,0.0,0.0,1.21846967915e-07,-0.65704555,0.44129925,11.79739995,9e-08,0.0,0.0,0.0,9e-08,0.0,0.0,0.0,9e-08
1539875904378751208,2401,1539875904378507112,base_link,-0.358782568613,-0.0350465005098,0.013899962231,-0.932659424609,1.0,0.0,0.0,0.0,1.0,0.0,0.0,0.0,1.0,-0.392561525106,-0.208333015442,-0.238548576832,1.21846967915e-07,0.0,0.0,0.0,1.21846967915e-07,0.0,0.0,0.0,1.21846967915e-07,-0.3726527,0.8433719,11.32668075,9e-08,0.0,0.0,0.0,9e-08,0.0,0.0,0.0,9e-08
1539875904600727912,2402,1539875904599807240,base_link,-0.31379512896,-0.0261524891628,0.0464621337779,-0.947992581446,1.0,0.0,0.0,0.0,1.0,0.0,0.0,0.0,1.0,-0.57209610939,-0.14372253418,-0.281867802143,1.21846967915e-07,0.0,0.0,0.0,1.21846967915e-07,0.0,0.0,0.0,1.21846967915e-07,-0.6276256,1.18660465,11.93469305,9e-08,0.0,0.0,0.0,9e-08,0.0,0.0,0.0,9e-08
1539875905032395816,2403,1539875905032148584,base_link,-0.19661820403,-0.0276929616949,0.107337781882,-0.974193503518,1.0,0.0,0.0,0.0,1.0,0.0,0.0,0.0,1.0,-0.484252989292,-0.0652233511209,-0.217292383313,1.21846967915e-07,0.0,0.0,0.0,1.21846967915e-07,0.0,0.0,0.0,1.21846967915e-07,-1.0591182,0.57859235,8.7867584,9e-08,0.0,0.0,0.0,9e-08,0.0,0.0,0.0,9e-08
1539875905326796008,2404,1539875905326198696,base_link,-0.133727328425,-0.0322052628504,0.13976222752,-0.980584694168,1.0,0.0,0.0,0.0,1.0,0.0,0.0,0.0,1.0,-0.28584960103,-0.062187936157,-0.202366098762,1.21846967915e-07,0.0,0.0,0.0,1.21846967915e-07,0.0,0.0,0.0,1.21846967915e-07,-0.9610517,0.1765197,10.5519554,9e-08,0.0,0.0,0.0,9e-08,0.0,0.0,0.0,9e-08
1539875905637102952,2405,1539875905636763976,base_link,-0.106974990465,-0.0307818095534,0.156527974275,-0.981380570872,1.0,0.0,0.0,0.0,1.0,0.0,0.0,0.0,1.0,-0.203399419785,-0.0402046814561,-0.0325046479702,1.21846967915e-07,0.0,0.0,0.0,1.21846967915e-07,0.0,0.0,0.0,1.21846967915e-07,-1.0591182,0.4511059,10.38524235,9e-08,0.0,0.0,0.0,9e-08,0.0,0.0,0.0,9e-08
1539875906121155176,2406,1539875906120615304,base_link,-0.112571845804,-0.0222693252679,0.172793825893,-0.978250453829,1.0,0.0,0.0,0.0,1.0,0.0,0.0,0.0,1.0,0.13795414567,-0.0490670502186,-0.14513528347,1.21846967915e-07,0.0,0.0,0.0,1.21846967915e-07,0.0,0.0,0.0,1.21846967915e-07,-0.75511205,1.0198916,11.38552065,9e-08,0.0,0.0,0.0,9e-08,0.0,0.0,0.0,9e-08
1539875906492870376,2407,1539875906492539560,base_link,-0.132833174757,-0.0242696677837,0.216542288933,-0.966889739326,1.0,0.0,0.0,0.0,1.0,0.0,0.0,0.0,1.0,0.219055265188,-0.0120924124494,-0.272959023714,1.21846967915e-07,0.0,0.0,0.0,1.21846967915e-07,0.0,0.0,0.0,1.21846967915e-07,-0.99047165,0.53936575,8.63965865,9e-08,0.0,0.0,0.0,9e-08,0.0,0.0,0.0,9e-08
1539875906972905960,2408,1539875906972505544,base_link,-0.223109188356,0.00639808958386,0.25167029728,-0.941723640984,1.0,0.0,0.0,0.0,1.0,0.0,0.0,0.0,1.0,0.410083055496,-0.0845791175961,-0.0403828620911,1.21846967915e-07,0.0,0.0,0.0,1.21846967915e-07,0.0,0.0,0.0,1.21846967915e-07,-1.18660465,0.00980665,11.09132115,9e-08,0.0,0.0,0.0,9e-08,0.0,0.0,0.0,9e-08
1539875907336592488,2409,1539875907336285224,base_link,-0.232039650685,0.0275874130687,0.268336390631,-0.934554501682,1.0,0.0,0.0,0.0,1.0,0.0,0.0,0.0,1.0,-0.0970003828406,-0.0982552394271,-0.214762896299,1.21846967915e-07,0.0,0.0,0.0,1.21846967915e-07,0.0,0.0,0.0,1.21846967915e-07,-0.9022118,1.02969825,11.38552065,9e-08,0.0,0.0,0.0,9e-08,0.0,0.0,0.0,9e-08
1539875907745663304,2410,1539875907741755880,base_link,-0.214233440505,0.0263538623992,0.326371164188,-0.920267010216,1.0,0.0,0.0,0.0,1.0,0.0,0.0,0.0,1.0,0.505325198174,-0.145233228803,-0.298003196716,1.21846967915e-07,0.0,0.0,0.0,1.21846967915e-07,0.0,0.0,0.0,1.21846967915e-07,-0.5295591,-0.57859235,12.6113519,9e-08,0.0,0.0,0.0,9e-08,0.0,0.0,0.0,9e-08
1539875908267017064,2411,1539875908265110344,base_link,-0.290232063344,0.087571681886,0.360578378824,-0.882088307747,1.0,0.0,0.0,0.0,1.0,0.0,0.0,0.0,1.0,0.194277346134,-0.107893496752,-0.269950658083,1.21846967915e-07,0.0,0.0,0.0,1.21846967915e-07,0.0,0.0,0.0,1.21846967915e-07,-0.3530394,1.4906108,9.2967042,9e-08,0.0,0.0,0.0,9e-08,0.0,0.0,0.0,9e-08
1539875908565982056,2412,1539875908565407176,base_link,-0.339948802781,0.114020068527,0.416186695822,-0.835597313113,1.0,0.0,0.0,0.0,1.0,0.0,0.0,0.0,1.0,0.299177259207,-0.286156564951,-0.430790632963,1.21846967915e-07,0.0,0.0,0.0,1.21846967915e-07,0.0,0.0,0.0,1.21846967915e-07,-0.1569064,0.57859235,8.9828914,9e-08,0.0,0.0,0.0,9e-08,0.0,0.0,0.0,9e-08
1539875909022650152,2413,1539875909022250728,base_link,-0.324522479682,0.168721928535,0.494365350026,-0.788556257794,1.0,0.0,0.0,0.0,1.0,0.0,0.0,0.0,1.0,-0.0209618303925,-0.401583820581,-0.217231735587,1.21846967915e-07,0.0,0.0,0.0,1.21846967915e-07,0.0,0.0,0.0,1.21846967915e-07,0.5491724,0.6276256,14.121576,9e-08,0.0,0.0,0.0,9e-08,0.0,0.0,0.0,9e-08
1539875909430364392,2414,1539875909429239560,base_link,-0.291028922721,0.216438466271,0.557870300325,-0.746483278093,1.0,0.0,0.0,0.0,1.0,0.0,0.0,0.0,1.0,-0.0839305669069,-0.434833556414,-0.239521294832,1.21846967915e-07,0.0,0.0,0.0,1.21846967915e-07,0.0,0.0,0.0,1.21846967915e-07,0.980665,0.85317855,17.3773838,9e-08,0.0,0.0,0.0,9e-08,0.0,0.0,0.0,9e-08
1539875909754133992,2415,1539875909753415464,base_link,-0.254967516304,0.243138813971,0.603334973208,-0.71544531089,1.0,0.0,0.0,0.0,1.0,0.0,0.0,0.0,1.0,-0.233766555786,-0.361214965582,-0.220308512449,1.21846967915e-07,0.0,0.0,0.0,1.21846967915e-07,0.0,0.0,0.0,1.21846967915e-07,1.0395049,0.97085835,15.69064,9e-08,0.0,0.0,0.0,9e-08,0.0,0.0,0.0,9e-08
1539875910271575848,2416,1539875910271134216,base_link,0.170810317188,-0.232948141324,-0.685402617564,0.668417721812,1.0,0.0,0.0,0.0,1.0,0.0,0.0,0.0,1.0,-0.338857650757,-0.220442146063,-0.259716808796,1.21846967915e-07,0.0,0.0,0.0,1.21846967915e-07,0.0,0.0,0.0,1.21846967915e-07,0.5491724,0.81395195,14.1804159,9e-08,0.0,0.0,0.0,9e-08,0.0,0.0,0.0,9e-08
1539875910561505288,2417,1539875910561040680,base_link,0.121742527504,-0.201684096451,-0.726332561109,0.645711462581,1.0,0.0,0.0,0.0,1.0,0.0,0.0,0.0,1.0,-0.485701471567,-0.149674788117,-0.273752719164,1.21846967915e-07,0.0,0.0,0.0,1.21846967915e-07,0.0,0.0,0.0,1.21846967915e-07,0.36284605,0.93163175,12.67999845,9e-08,0.0,0.0,0.0,9e-08,0.0,0.0,0.0,9e-08
1539875910972438568,2418,1539875910972167880,base_link,0.052482230019,-0.139865076707,-0.774020496324,0.615285012918,1.0,0.0,0.0,0.0,1.0,0.0,0.0,0.0,1.0,-0.473451763391,-0.0711022168398,-0.145542293787,1.21846967915e-07,0.0,0.0,0.0,1.21846967915e-07,0.0,0.0,0.0,1.21846967915e-07,0.0588399,0.5295591,8.81617835,9e-08,0.0,0.0,0.0,9e-08,0.0,0.0,0.0,9e-08
1539875911459998472,2419,1539875911458161096,base_link,-0.0255905229089,-0.063552412213,-0.791527277248,0.607281471322,1.0,0.0,0.0,0.0,1.0,0.0,0.0,0.0,1.0,-0.369216799736,0.00199146475643,0.0463299900293,1.21846967915e-07,0.0,0.0,0.0,1.21846967915e-07,0.0,0.0,0.0,1.21846967915e-07,-0.5099458,0.6276256,11.40513395,9e-08,0.0,0.0,0.0,9e-08,0.0,0.0,0.0,9e-08
1539875911936749768,2420,1539875911936144808,base_link,-0.0494918625437,-0.00580652359056,-0.80016386874,0.597707807368,1.0,0.0,0.0,0.0,1.0,0.0,0.0,0.0,1.0,0.0655120462179,0.0616907402873,-0.0447953604162,1.21846967915e-07,0.0,0.0,0.0,1.21846967915e-07,0.0,0.0,0.0,1.21846967915e-07,-0.65704555,0.1569064,8.9828914,9e-08,0.0,0.0,0.0,9e-08,0.0,0.0,0.0,9e-08
1539875912413493832,2421,1539875912413259144,base_link,-0.0490997448593,0.0190775448503,-0.796101005096,0.602866860943,1.0,0.0,0.0,0.0,1.0,0.0,0.0,0.0,1.0,-0.100175514817,0.112439483404,0.0554929971695,1.21846967915e-07,0.0,0.0,0.0,1.21846967915e-07,0.0,0.0,0.0,1.21846967915e-07,-0.48052585,0.1176798,7.97280645,9e-08,0.0,0.0,0.0,9e-08,0.0,0.0,0.0,9e-08
1539875912760969448,2422,1539875912760754600,base_link,-0.0394761164445,0.0300689411295,-0.786994943218,0.614960530732,1.0,0.0,0.0,0.0,1.0,0.0,0.0,0.0,1.0,-0.111172042787,0.0951303988695,0.0897331386805,1.21846967915e-07,0.0,0.0,0.0,1.21846967915e-07,0.0,0.0,0.0,1.21846967915e-07,-0.38245935,0.7453054,12.34657235,9e-08,0.0,0.0,0.0,9e-08,0.0,0.0,0.0,9e-08
1539875913166147528,2423,1539875913165712840,base_link,-0.00968396589176,0.0326514911066,-0.785130769027,0.618392898132,1.0,0.0,0.0,0.0,1.0,0.0,0.0,0.0,1.0,0.224702432752,0.112297803164,0.0357945747674,1.21846967915e-07,0.0,0.0,0.0,1.21846967915e-07,0.0,0.0,0.0,1.21846967915e-07,-0.5491724,0.0980665,7.5315072,9e-08,0.0,0.0,0.0,9e-08,0.0,0.0,0.0,9e-08
1539875913526417576,2424,1539875913526131976,base_link,0.00495855002754,0.0548382449112,-0.780493815196,0.622733959341,1.0,0.0,0.0,0.0,1.0,0.0,0.0,0.0,1.0,-0.137729793787,0.124522693455,-0.0206368118525,1.21846967915e-07,0.0,0.0,0.0,1.21846967915e-07,0.0,0.0,0.0,1.21846967915e-07,-0.5687857,0.6080123,8.2179727,9e-08,0.0,0.0,0.0,9e-08,0.0,0.0,0.0,9e-08
1539875914142689576,2425,1539875914142462024,base_link,0.0330967709971,0.0600840070821,-0.769239073629,0.635268261008,1.0,0.0,0.0,0.0,1.0,0.0,0.0,0.0,1.0,0.00328041054308,0.0161002054811,0.113039039075,1.21846967915e-07,0.0,0.0,0.0,1.21846967915e-07,0.0,0.0,0.0,1.21846967915e-07,-0.67665885,0.10787315,8.40429905,9e-08,0.0,0.0,0.0,9e-08,0.0,0.0,0.0,9e-08
1539875914488502216,2426,1539875914488152360,base_link,0.0405132598325,0.0556731265735,-0.760212238818,0.646015890444,1.0,0.0,0.0,0.0,1.0,0.0,0.0,0.0,1.0,0.0153755554929,-0.000263295136392,0.0597528405488,1.21846967915e-07,0.0,0.0,0.0,1.21846967915e-07,0.0,0.0,0.0,1.21846967915e-07,-0.32361945,0.6864655,8.81617835,9e-08,0.0,0.0,0.0,9e-08,0.0,0.0,0.0,9e-08
1539875914890927464,2427,1539875914890668584,base_link,0.0427229385765,0.0510004303993,-0.759325353359,0.647301100234,1.0,0.0,0.0,0.0,1.0,0.0,0.0,0.0,1.0,0.0487739741802,-0.0275841243565,-0.0194450579584,1.21846967915e-07,0.0,0.0,0.0,1.21846967915e-07,0.0,0.0,0.0,1.21846967915e-07,-0.0392266,0.36284605,9.91452315,9e-08,0.0,0.0,0.0,9e-08,0.0,0.0,0.0,9e-08
1539875915165268808,2428,1539875915163765832,base_link,0.0352967493589,0.0555235546438,-0.760348086592,0.646174946574,1.0,0.0,0.0,0.0,1.0,0.0,0.0,0.0,1.0,-0.000125177204609,-0.00797781161964,-0.053694717586,1.21846967915e-07,0.0,0.0,0.0,1.21846967915e-07,0.0,0.0,0.0,1.21846967915e-07,-0.3138128,0.73549875,9.2967042,9e-08,0.0,0.0,0.0,9e-08,0.0,0.0,0.0,9e-08
1539875915560665384,2429,1539875915558221800,base_link,0.0139242155363,0.0451329644204,-0.767803102989,0.638942506635,1.0,0.0,0.0,0.0,1.0,0.0,0.0,0.0,1.0,0.0443698689342,-0.187909647822,-0.02969282493,1.21846967915e-07,0.0,0.0,0.0,1.21846967915e-07,0.0,0.0,0.0,1.21846967915e-07,0.0588399,0.14709975,12.17005265,9e-08,0.0,0.0,0.0,9e-08,0.0,0.0,0.0,9e-08
1539875916056272968,2430,1539875916055971944,base_link,-0.019341308018,0.0234163851448,-0.758038248151,0.651502571791,1.0,0.0,0.0,0.0,1.0,0.0,0.0,0.0,1.0,-0.0162046290934,-0.213552489877,0.0870952606201,1.21846967915e-07,0.0,0.0,0.0,1.21846967915e-07,0.0,0.0,0.0,1.21846967915e-07,0.9218251,0.588399,17.6127434,9e-08,0.0,0.0,0.0,9e-08,0.0,0.0,0.0,9e-08
1539875916338318536,2431,1539875916335739592,base_link,-0.0368392824016,0.0128460039813,-0.745041396346,0.665876238639,1.0,0.0,0.0,0.0,1.0,0.0,0.0,0.0,1.0,-0.12966966629,-0.0988354161382,0.131953328848,1.21846967915e-07,0.0,0.0,0.0,1.21846967915e-07,0.0,0.0,0.0,1.21846967915e-07,0.7649187,0.30400615,13.5724036,9e-08,0.0,0.0,0.0,9e-08,0.0,0.0,0.0,9e-08
1539875916818500872,2432,1539875916818223688,base_link,-0.0290222309716,-0.0181634984354,-0.729276741641,0.683361713543,1.0,0.0,0.0,0.0,1.0,0.0,0.0,0.0,1.0,0.325628876686,-0.011186381802,0.150323331356,1.21846967915e-07,0.0,0.0,0.0,1.21846967915e-07,0.0,0.0,0.0,1.21846967915e-07,0.2941995,1.21417890407e-15,9.91452315,9e-08,0.0,0.0,0.0,9e-08,0.0,0.0,0.0,9e-08
1539875917201881992,2433,1539875917199565000,base_link,-0.00290285271565,-0.0412186155437,-0.717831004228,0.694990106799,1.0,0.0,0.0,0.0,1.0,0.0,0.0,0.0,1.0,0.156770437956,0.0499365776777,-0.0197651591152,1.21846967915e-07,0.0,0.0,0.0,1.21846967915e-07,0.0,0.0,0.0,1.21846967915e-07,0.20593965,0.69627215,8.5906254,9e-08,0.0,0.0,0.0,9e-08,0.0,0.0,0.0,9e-08
1539875917514200456,2434,1539875917513416040,base_link,0.0241947524619,-0.0588372246805,-0.72781858603,0.68281249313,1.0,0.0,0.0,0.0,1.0,0.0,0.0,0.0,1.0,0.132298946381,0.0286227017641,-0.114350788295,1.21846967915e-07,0.0,0.0,0.0,1.21846967915e-07,0.0,0.0,0.0,1.21846967915e-07,0.18632635,0.4118793,8.9632781,9e-08,0.0,0.0,0.0,9e-08,0.0,0.0,0.0,9e-08
1539875917800512456,2435,1539875917797406184,base_link,0.0399170728983,-0.0638114189475,-0.739438303293,0.669003531924,1.0,0.0,0.0,0.0,1.0,0.0,0.0,0.0,1.0,0.10075096786,0.0521873049438,-0.144164636731,1.21846967915e-07,0.0,0.0,0.0,1.21846967915e-07,0.0,0.0,0.0,1.21846967915e-07,-0.02941995,0.44129925,6.9627215,9e-08,0.0,0.0,0.0,9e-08,0.0,0.0,0.0,9e-08
1539875918158476712,2436,1539875918158242504,base_link,0.0758451994192,-0.0930263068519,-0.745255291105,0.65588730971,1.0,0.0,0.0,0.0,1.0,0.0,0.0,0.0,1.0,0.340162277222,0.000435565598309,-0.0126581015065,1.21846967915e-07,0.0,0.0,0.0,1.21846967915e-07,0.0,0.0,0.0,1.21846967915e-07,0.08825985,0.3726527,10.32640245,9e-08,0.0,0.0,0.0,9e-08,0.0,0.0,0.0,9e-08
1539875918635936520,2437,1539875918635720072,base_link,0.112068376471,-0.128757797509,-0.752374236588,0.636235111177,1.0,0.0,0.0,0.0,1.0,0.0,0.0,0.0,1.0,0.308899074793,-0.0430426932871,-0.127266705036,1.21846967915e-07,0.0,0.0,0.0,1.21846967915e-07,0.0,0.0,0.0,1.21846967915e-07,0.20593965,0.5099458,9.022118,9e-08,0.0,0.0,0.0,9e-08,0.0,0.0,0.0,9e-08
1539875919017942024,2438,1539875919017623272,base_link,0.142140751644,-0.173832609697,-0.76106203866,0.608574402878,1.0,0.0,0.0,0.0,1.0,0.0,0.0,0.0,1.0,0.249253213406,-0.0616128146648,-0.161531150341,1.21846967915e-07,0.0,0.0,0.0,1.21846967915e-07,0.0,0.0,0.0,1.21846967915e-07,0.38245935,0.55897905,9.7870367,9e-08,0.0,0.0,0.0,9e-08,0.0,0.0,0.0,9e-08
1539875919394061544,2439,1539875919390512744,base_link,0.140746005903,-0.201547558762,-0.778355588197,0.577695180611,1.0,0.0,0.0,0.0,1.0,0.0,0.0,0.0,1.0,0.277008354664,-0.17758987844,-0.134691908956,1.21846967915e-07,0.0,0.0,0.0,1.21846967915e-07,0.0,0.0,0.0,1.21846967915e-07,0.63743225,0.4314926,12.62115855,9e-08,0.0,0.0,0.0,9e-08,0.0,0.0,0.0,9e-08
1539875919749742312,2440,1539875919749303784,base_link,0.161626327203,-0.251185912791,-0.789339938442,0.536400064458,1.0,0.0,0.0,0.0,1.0,0.0,0.0,0.0,1.0,0.133228361607,-0.115052014589,-0.276163935661,1.21846967915e-07,0.0,0.0,0.0,1.21846967915e-07,0.0,0.0,0.0,1.21846967915e-07,0.65704555,1.20621795,10.38524235,9e-08,0.0,0.0,0.0,9e-08,0.0,0.0,0.0,9e-08
1539875920162590408,2441,1539875920162296200,base_link,0.164265476073,-0.280459217913,-0.81879471435,0.473217387899,1.0,0.0,0.0,0.0,1.0,0.0,0.0,0.0,1.0,0.0307923499495,-0.23964074254,-0.295965403318,1.21846967915e-07,0.0,0.0,0.0,1.21846967915e-07,0.0,0.0,0.0,1.21846967915e-07,0.85317855,0.67665885,11.3364874,9e-08,0.0,0.0,0.0,9e-08,0.0,0.0,0.0,9e-08
1539875920573128424,2442,1539875920572769320,base_link,0.147350056389,-0.301186978148,-0.849233939279,0.407892242453,1.0,0.0,0.0,0.0,1.0,0.0,0.0,0.0,1.0,-0.0650362074375,-0.257300913334,-0.286715358496,1.21846967915e-07,0.0,0.0,0.0,1.21846967915e-07,0.0,0.0,0.0,1.21846967915e-07,1.04931155,0.91201845,12.1994726,9e-08,0.0,0.0,0.0,9e-08,0.0,0.0,0.0,9e-08
1539875920861022376,2443,1539875920860738952,base_link,0.128035891476,-0.314172617096,-0.87101531834,0.355295218625,1.0,0.0,0.0,0.0,1.0,0.0,0.0,0.0,1.0,0.0554894953966,-0.269614160061,-0.294511407614,1.21846967915e-07,0.0,0.0,0.0,1.21846967915e-07,0.0,0.0,0.0,1.21846967915e-07,1.0198916,0.8629852,11.60126695,9e-08,0.0,0.0,0.0,9e-08,0.0,0.0,0.0,9e-08
1539875921239469256,2444,1539875921239194248,base_link,0.100613100663,-0.340102711408,-0.891028546046,0.2833289251,1.0,0.0,0.0,0.0,1.0,0.0,0.0,0.0,1.0,0.0994275212288,-0.335229754448,-0.282452762127,1.21846967915e-07,0.0,0.0,0.0,1.21846967915e-07,0.0,0.0,0.0,1.21846967915e-07,1.2552512,0.7060788,14.20983585,9e-08,0.0,0.0,0.0,9e-08,0.0,0.0,0.0,9e-08
1539875921672825992,2445,1539875921672480968,base_link,0.0488579920983,-0.359879974467,-0.906747662592,0.214261468701,1.0,0.0,0.0,0.0,1.0,0.0,0.0,0.0,1.0,-0.202828481793,-0.349930167198,-0.224320232868,1.21846967915e-07,0.0,0.0,0.0,1.21846967915e-07,0.0,0.0,0.0,1.21846967915e-07,1.48080415,1.3337044,15.26895405,9e-08,0.0,0.0,0.0,9e-08,0.0,0.0,0.0,9e-08
1539875921975403880,2446,1539875921974979624,base_link,0.0157271567671,-0.340199812623,-0.927008654904,0.157072269239,1.0,0.0,0.0,0.0,1.0,0.0,0.0,0.0,1.0,-0.18825751543,-0.322430461645,-0.279213726521,1.21846967915e-07,0.0,0.0,0.0,1.21846967915e-07,0.0,0.0,0.0,1.21846967915e-07,1.16699135,1.1964113,15.24934075,9e-08,0.0,0.0,0.0,9e-08,0.0,0.0,0.0,9e-08
1539875922507670568,2447,1539875922506912136,base_link,-0.0191011836665,-0.302568514044,-0.950610294465,0.0665395156894,1.0,0.0,0.0,0.0,1.0,0.0,0.0,0.0,1.0,-0.364401847124,-0.179943233728,-0.289823204279,1.21846967915e-07,0.0,0.0,0.0,1.21846967915e-07,0.0,0.0,0.0,1.21846967915e-07,0.59820565,1.12776475,11.93469305,9e-08,0.0,0.0,0.0,9e-08,0.0,0.0,0.0,9e-08
1539875922972288872,2448,1539875922972028712,base_link,-0.0291025668581,-0.190969809126,-0.981162592378,-0.00188146818887,1.0,0.0,0.0,0.0,1.0,0.0,0.0,0.0,1.0,-1.11991882324,0.0698870941997,-0.22859570384,1.21846967915e-07,0.0,0.0,0.0,1.21846967915e-07,0.0,0.0,0.0,1.21846967915e-07,0.2549729,0.980665,3.8245935,9e-08,0.0,0.0,0.0,9e-08,0.0,0.0,0.0,9e-08
1539875923346939336,2449,1539875923346397896,base_link,-0.0306993068895,-0.133769692652,-0.989670366449,-0.0414220672712,1.0,0.0,0.0,0.0,1.0,0.0,0.0,0.0,1.0,0.193126738071,-0.0533943399787,-0.182266458869,1.21846967915e-07,0.0,0.0,0.0,1.21846967915e-07,0.0,0.0,0.0,1.21846967915e-07,0.8433719,0.9610517,19.60349335,9e-08,0.0,0.0,0.0,9e-08,0.0,0.0,0.0,9e-08
1539875923654507816,2450,1539875923654156744,base_link,-0.0323607039195,-0.136873211137,-0.988377416078,-0.0576939537702,1.0,0.0,0.0,0.0,1.0,0.0,0.0,0.0,1.0,-0.0383937358856,-0.0354147069156,-0.0598531849682,1.21846967915e-07,0.0,0.0,0.0,1.21846967915e-07,0.0,0.0,0.0,1.21846967915e-07,-0.3138128,0.42168595,9.60071035,9e-08,0.0,0.0,0.0,9e-08,0.0,0.0,0.0,9e-08
1539875924060335688,2451,1539875924059850920,base_link,-0.0250584098878,-0.0949873654593,-0.991542807694,-0.0848076471041,1.0,0.0,0.0,0.0,1.0,0.0,0.0,0.0,1.0,-0.146149709821,-0.0100712114945,-0.0994167625904,1.21846967915e-07,0.0,0.0,0.0,1.21846967915e-07,0.0,0.0,0.0,1.21846967915e-07,-0.4707192,0.34323275,9.6497436,9e-08,0.0,0.0,0.0,9e-08,0.0,0.0,0.0,9e-08
1539875924461250504,2452,1539875924460950792,base_link,-0.0145263733251,-0.060374420951,-0.992780340641,-0.102621191811,1.0,0.0,0.0,0.0,1.0,0.0,0.0,0.0,1.0,-0.407241225243,0.0191831998527,-0.0945148095489,1.21846967915e-07,0.0,0.0,0.0,1.21846967915e-07,0.0,0.0,0.0,1.21846967915e-07,-0.196133,0.8433719,9.0417313,9e-08,0.0,0.0,0.0,9e-08,0.0,0.0,0.0,9e-08
1539875924919393480,2453,1539875924918897128,base_link,0.00420575099245,-0.00520840662591,-0.993173168433,-0.116457037848,1.0,0.0,0.0,0.0,1.0,0.0,0.0,0.0,1.0,-0.237989544868,0.0412057563663,-0.0288096182048,1.21846967915e-07,0.0,0.0,0.0,1.21846967915e-07,0.0,0.0,0.0,1.21846967915e-07,-0.4118793,0.46091255,10.09104285,9e-08,0.0,0.0,0.0,9e-08,0.0,0.0,0.0,9e-08
1539875925272952904,2454,1539875925272674280,base_link,0.0174104909453,0.0158458257569,-0.992985480617,-0.115868977275,1.0,0.0,0.0,0.0,1.0,0.0,0.0,0.0,1.0,-0.0614611655474,0.0842110738158,0.0125323515385,1.21846967915e-07,0.0,0.0,0.0,1.21846967915e-07,0.0,0.0,0.0,1.21846967915e-07,-0.34323275,0.44129925,9.71839015,9e-08,0.0,0.0,0.0,9e-08,0.0,0.0,0.0,9e-08
1539875925629569608,2455,1539875925626971528,base_link,0.0249582784386,0.0218393984714,-0.993898307245,-0.105196387144,1.0,0.0,0.0,0.0,1.0,0.0,0.0,0.0,1.0,-0.0964822694659,0.0487152636051,0.0888964608312,1.21846967915e-07,0.0,0.0,0.0,1.21846967915e-07,0.0,0.0,0.0,1.21846967915e-07,-0.4903325,0.26477955,11.07170785,9e-08,0.0,0.0,0.0,9e-08,0.0,0.0,0.0,9e-08
1539875925980717480,2456,1539875925980409352,base_link,0.0374152509587,0.040644958759,-0.993833389567,-0.0961419788908,1.0,0.0,0.0,0.0,1.0,0.0,0.0,0.0,1.0,-0.123131878674,0.0911002978683,-0.0299931373447,1.21846967915e-07,0.0,0.0,0.0,1.21846967915e-07,0.0,0.0,0.0,1.21846967915e-07,-0.5491724,0.51975245,10.0420096,9e-08,0.0,0.0,0.0,9e-08,0.0,0.0,0.0,9e-08
1539875926305726472,2457,1539875926304368552,base_link,0.0538327096965,0.0416604478971,-0.99353084814,-0.0909004963816,1.0,0.0,0.0,0.0,1.0,0.0,0.0,0.0,1.0,0.100692868233,0.0928345918655,0.0564474016428,1.21846967915e-07,0.0,0.0,0.0,1.21846967915e-07,0.0,0.0,0.0,1.21846967915e-07,-0.784532,0.3726527,7.8257067,9e-08,0.0,0.0,0.0,9e-08,0.0,0.0,0.0,9e-08
1539875926794060744,2458,1539875926793626536,base_link,0.0720308143369,0.0244075443586,-0.99247573402,-0.095957026559,1.0,0.0,0.0,0.0,1.0,0.0,0.0,0.0,1.0,0.13744674623,0.0620116554201,-0.0219883173704,1.21846967915e-07,0.0,0.0,0.0,1.21846967915e-07,0.0,0.0,0.0,1.21846967915e-07,-1.02969825,-0.3530394,7.7864801,9e-08,0.0,0.0,0.0,9e-08,0.0,0.0,0.0,9e-08
1539875927066364040,2459,1539875927065984168,base_link,0.0695492259982,-0.0041359280843,-0.993517700665,-0.0898241489135,1.0,0.0,0.0,0.0,1.0,0.0,0.0,0.0,1.0,0.115639954805,-0.0555333644152,0.0897011980414,1.21846967915e-07,0.0,0.0,0.0,1.21846967915e-07,0.0,0.0,0.0,1.21846967915e-07,-0.81395195,-0.02941995,8.4729456,9e-08,0.0,0.0,0.0,9e-08,0.0,0.0,0.0,9e-08
1539875927612079528,2460,1539875927611544936,base_link,0.0550142952926,0.00667857974299,-0.996277212715,-0.0660343797642,1.0,0.0,0.0,0.0,1.0,0.0,0.0,0.0,1.0,-0.129674255848,-0.042984046042,0.0310242846608,1.21846967915e-07,0.0,0.0,0.0,1.21846967915e-07,0.0,0.0,0.0,1.21846967915e-07,-0.24516625,0.36284605,12.1210194,9e-08,0.0,0.0,0.0,9e-08,0.0,0.0,0.0,9e-08
1539875927965015048,2461,1539875927963087176,base_link,0.0465482935446,-0.00729910634998,-0.997418399113,-0.0541896348554,1.0,0.0,0.0,0.0,1.0,0.0,0.0,0.0,1.0,-0.0805075392127,-0.0949661061168,0.129855409265,1.21846967915e-07,0.0,0.0,0.0,1.21846967915e-07,0.0,0.0,0.0,1.21846967915e-07,0.0,0.1372931,9.9831697,9e-08,0.0,0.0,0.0,9e-08,0.0,0.0,0.0,9e-08
1539875928494236264,2462,1539875928493999848,base_link,0.0341349257908,0.014287563014,-0.998791561764,-0.0323432919245,1.0,0.0,0.0,0.0,1.0,0.0,0.0,0.0,1.0,0.06800827384,0.0928919017315,-0.0313997529447,1.21846967915e-07,0.0,0.0,0.0,1.21846967915e-07,0.0,0.0,0.0,1.21846967915e-07,0.20593965,0.6668522,9.7478101,9e-08,0.0,0.0,0.0,9e-08,0.0,0.0,0.0,9e-08
1539875928910534568,2463,1539875928910028712,base_link,0.0236590627039,0.0227968833291,-0.997803942622,-0.0575138500776,1.0,0.0,0.0,0.0,1.0,0.0,0.0,0.0,1.0,0.0193665977567,-0.115087941289,-0.0402705520391,1.21846967915e-07,0.0,0.0,0.0,1.21846967915e-07,0.0,0.0,0.0,1.21846967915e-07,0.3726527,0.04903325,12.66038515,9e-08,0.0,0.0,0.0,9e-08,0.0,0.0,0.0,9e-08
1539875929198234504,2464,1539875929197937096,base_link,0.00420044455251,0.0272868746753,-0.998460838672,-0.0481013136413,1.0,0.0,0.0,0.0,1.0,0.0,0.0,0.0,1.0,-0.145607024431,-0.162671238184,0.112759150565,1.21846967915e-07,0.0,0.0,0.0,1.21846967915e-07,0.0,0.0,0.0,1.21846967915e-07,0.8433719,0.32361945,14.0235095,9e-08,0.0,0.0,0.0,9e-08,0.0,0.0,0.0,9e-08
1539875929619418280,2465,1539875929619172712,base_link,-0.0218405191036,0.00874188274467,-0.999572159127,-0.0173801584822,1.0,0.0,0.0,0.0,1.0,0.0,0.0,0.0,1.0,0.103829577565,-0.0638376623392,0.109158985317,1.21846967915e-07,0.0,0.0,0.0,1.21846967915e-07,0.0,0.0,0.0,1.21846967915e-07,0.6472389,0.8433719,13.9842829,9e-08,0.0,0.0,0.0,9e-08,0.0,0.0,0.0,9e-08
1539875930029283528,2466,1539875930027754280,base_link,-0.0283468426721,-0.00257572120743,-0.999345627563,-0.0223190242159,1.0,0.0,0.0,0.0,1.0,0.0,0.0,0.0,1.0,0.0368071980774,-0.0273409001529,-0.0480347275734,1.21846967915e-07,0.0,0.0,0.0,1.21846967915e-07,0.0,0.0,0.0,1.21846967915e-07,0.1765197,0.0588399,9.36535075,9e-08,0.0,0.0,0.0,9e-08,0.0,0.0,0.0,9e-08
1539875930382625448,2467,1539875930382205800,base_link,-0.0281153014615,-0.0186188680428,-0.999238860402,-0.0196103911009,1.0,0.0,0.0,0.0,1.0,0.0,0.0,0.0,1.0,0.301235824823,0.00869115907699,0.0448277443647,1.21846967915e-07,0.0,0.0,0.0,1.21846967915e-07,0.0,0.0,0.0,1.21846967915e-07,0.2353596,0.3138128,7.28634095,9e-08,0.0,0.0,0.0,9e-08,0.0,0.0,0.0,9e-08
1539875930860135656,2468,1539875930859780552,base_link,-0.0326357571594,-0.0533131947601,-0.997963725713,-0.0126890811225,1.0,0.0,0.0,0.0,1.0,0.0,0.0,0.0,1.0,-0.224203974009,-0.00500310305506,-0.0409154631197,1.21846967915e-07,0.0,0.0,0.0,1.21846967915e-07,0.0,0.0,0.0,1.21846967915e-07,0.28439285,0.69627215,12.0817928,9e-08,0.0,0.0,0.0,9e-08,0.0,0.0,0.0,9e-08
1539875931256513448,2469,1539875931256170120,base_link,-0.032629057693,-0.0613340934173,-0.997508600027,-0.0122501612689,1.0,0.0,0.0,0.0,1.0,0.0,0.0,0.0,1.0,-0.0259247608483,0.0133418031037,0.119564943016,1.21846967915e-07,0.0,0.0,0.0,1.21846967915e-07,0.0,0.0,0.0,1.21846967915e-07,0.4707192,0.1372931,12.64077185,9e-08,0.0,0.0,0.0,9e-08,0.0,0.0,0.0,9e-08
1539875931673783112,2470,1539875931672149736,base_link,-0.0123167613259,-0.0388630351543,-0.999067832088,-0.0141925605775,1.0,0.0,0.0,0.0,1.0,0.0,0.0,0.0,1.0,-0.103984937072,0.105688855052,-0.157433003187,1.21846967915e-07,0.0,0.0,0.0,1.21846967915e-07,0.0,0.0,0.0,1.21846967915e-07,0.02941995,0.61781895,6.276256,9e-08,0.0,0.0,0.0,9e-08,0.0,0.0,0.0,9e-08
1539875932046196968,2471,1539875932045921064,base_link,0.00493458404304,-0.0425940873379,-0.998353386494,-0.0381039273585,1.0,0.0,0.0,0.0,1.0,0.0,0.0,0.0,1.0,0.100881658494,0.087477080524,-0.0525707341731,1.21846967915e-07,0.0,0.0,0.0,1.21846967915e-07,0.0,0.0,0.0,1.21846967915e-07,-0.392266,-0.08825985,6.26644935,9e-08,0.0,0.0,0.0,9e-08,0.0,0.0,0.0,9e-08
1539875932507816072,2472,1539875932506119304,base_link,0.0139116042158,-0.0568771115938,-0.997875220879,-0.0285745516157,1.0,0.0,0.0,0.0,1.0,0.0,0.0,0.0,1.0,0.0282347165048,0.0156825184822,0.0831802040339,1.21846967915e-07,0.0,0.0,0.0,1.21846967915e-07,0.0,0.0,0.0,1.21846967915e-07,-0.22555295,0.10787315,8.3160392,9e-08,0.0,0.0,0.0,9e-08,0.0,0.0,0.0,9e-08
1539875932892683368,2473,1539875932892275144,base_link,0.00954692890562,-0.05080303464,-0.998570488872,-0.0135973002412,1.0,0.0,0.0,0.0,1.0,0.0,0.0,0.0,1.0,-0.0172123480588,-0.0327063202858,0.0255420710891,1.21846967915e-07,0.0,0.0,0.0,1.21846967915e-07,0.0,0.0,0.0,1.21846967915e-07,0.10787315,0.9022118,10.6107953,9e-08,0.0,0.0,0.0,9e-08,0.0,0.0,0.0,9e-08
1539875933238760328,2474,1539875933238531144,base_link,0.0101675603222,-0.0421280220139,-0.998681933171,-0.0274999424786,1.0,0.0,0.0,0.0,1.0,0.0,0.0,0.0,1.0,0.0165384169668,-0.00209555402398,-0.13044694066,1.21846967915e-07,0.0,0.0,0.0,1.21846967915e-07,0.0,0.0,0.0,1.21846967915e-07,0.2549729,0.55897905,8.5906254,9e-08,0.0,0.0,0.0,9e-08,0.0,0.0,0.0,9e-08
1539875933699687016,2475,1539875933699354056,base_link,0.00683158504652,-0.035243407159,-0.998144644253,-0.049178255823,1.0,0.0,0.0,0.0,1.0,0.0,0.0,0.0,1.0,-0.029328757897,-0.0961069613695,-0.00294484756887,1.21846967915e-07,0.0,0.0,0.0,1.21846967915e-07,0.0,0.0,0.0,1.21846967915e-07,0.392266,0.24516625,12.38579895,9e-08,0.0,0.0,0.0,9e-08,0.0,0.0,0.0,9e-08
1539875934164839272,2476,1539875934164021992,base_link,-0.0124615381037,0.00147316945131,-0.999347161219,-0.0338790673281,1.0,0.0,0.0,0.0,1.0,0.0,0.0,0.0,1.0,-0.417448043823,-0.147905424237,0.0801924988627,1.21846967915e-07,0.0,0.0,0.0,1.21846967915e-07,0.0,0.0,0.0,1.21846967915e-07,0.8433719,0.24516625,13.4154972,9e-08,0.0,0.0,0.0,9e-08,0.0,0.0,0.0,9e-08
1539875934653083816,2477,1539875934652802152,base_link,-0.0304213389449,0.0171137406979,-0.999286651905,-0.0144169809609,1.0,0.0,0.0,0.0,1.0,0.0,0.0,0.0,1.0,-0.0815069228411,0.0229701604694,-0.0253874361515,1.21846967915e-07,0.0,0.0,0.0,1.21846967915e-07,0.0,0.0,0.0,1.21846967915e-07,0.89240515,1.04931155,10.56176205,9e-08,0.0,0.0,0.0,9e-08,0.0,0.0,0.0,9e-08
1539875935002811592,2478,1539875935002562600,base_link,-0.0192803378907,0.0114838259951,-0.999403034033,-0.0262672015587,1.0,0.0,0.0,0.0,1.0,0.0,0.0,0.0,1.0,0.122226938605,0.0326692461967,-0.0259058810771,1.21846967915e-07,0.0,0.0,0.0,1.21846967915e-07,0.0,0.0,0.0,1.21846967915e-07,0.63743225,0.00980665,7.9041599,9e-08,0.0,0.0,0.0,9e-08,0.0,0.0,0.0,9e-08
1539875935342683976,2479,1539875935342335048,base_link,-0.0158486315211,-0.00783419289576,-0.99965283979,-0.0195357672261,1.0,0.0,0.0,0.0,1.0,0.0,0.0,0.0,1.0,0.110651090741,0.0184365771711,0.113119937479,1.21846967915e-07,0.0,0.0,0.0,1.21846967915e-07,0.0,0.0,0.0,1.21846967915e-07,0.65704555,-0.196133,8.6494653,9e-08,0.0,0.0,0.0,9e-08,0.0,0.0,0.0,9e-08
1539875935743269128,2480,1539875935743024968,base_link,-0.0208824066534,-0.0464635097054,-0.998694793274,0.00371177123654,1.0,0.0,0.0,0.0,1.0,0.0,0.0,0.0,1.0,0.241857990623,-0.0830885618925,0.0637042596936,1.21846967915e-07,0.0,0.0,0.0,1.21846967915e-07,0.0,0.0,0.0,1.21846967915e-07,0.4707192,0.36284605,13.0232312,9e-08,0.0,0.0,0.0,9e-08,0.0,0.0,0.0,9e-08
1539875936137699304,2481,1539875936137370280,base_link,-0.0293437936765,-0.066281434971,-0.997291925463,0.0124309515655,1.0,0.0,0.0,0.0,1.0,0.0,0.0,0.0,1.0,-0.194938629866,-0.00703639443964,-0.0215158406645,1.21846967915e-07,0.0,0.0,0.0,1.21846967915e-07,0.0,0.0,0.0,1.21846967915e-07,0.392266,0.89240515,11.3953273,9e-08,0.0,0.0,0.0,9e-08,0.0,0.0,0.0,9e-08
1539875936467133160,2482,1539875936466558952,base_link,-0.0293188766386,-0.0405016904898,-0.99873605083,-0.00513004024676,1.0,0.0,0.0,0.0,1.0,0.0,0.0,0.0,1.0,0.0496217161417,-0.0108104404062,-0.146023720503,1.21846967915e-07,0.0,0.0,0.0,1.21846967915e-07,0.0,0.0,0.0,1.21846967915e-07,0.4707192,0.8825985,9.83606995,9e-08,0.0,0.0,0.0,9e-08,0.0,0.0,0.0,9e-08
1539875936880581352,2483,1539875936877224296,base_link,-0.0345525335946,-0.0504807778988,-0.997931968384,-0.0197382866978,1.0,0.0,0.0,0.0,1.0,0.0,0.0,0.0,1.0,0.227411866188,-0.0329828262329,0.0216442346573,1.21846967915e-07,0.0,0.0,0.0,1.21846967915e-07,0.0,0.0,0.0,1.21846967915e-07,0.18632635,0.5099458,8.34545915,9e-08,0.0,0.0,0.0,9e-08,0.0,0.0,0.0,9e-08
1539875937327656456,2484,1539875937327240648,base_link,-0.0420335390567,-0.0707344079907,-0.99639617794,-0.0206029538561,1.0,0.0,0.0,0.0,1.0,0.0,0.0,0.0,1.0,-0.226133137941,-0.0468495264649,0.0156816281378,1.21846967915e-07,0.0,0.0,0.0,1.21846967915e-07,0.0,0.0,0.0,1.21846967915e-07,0.75511205,0.34323275,12.15043935,9e-08,0.0,0.0,0.0,9e-08,0.0,0.0,0.0,9e-08
1539875937718369576,2485,1539875937718060104,base_link,-0.0387492680429,-0.016855305438,-0.999022962444,-0.0129426973252,1.0,0.0,0.0,0.0,1.0,0.0,0.0,0.0,1.0,-0.112441435456,0.0440601482987,0.0120132155716,1.21846967915e-07,0.0,0.0,0.0,1.21846967915e-07,0.0,0.0,0.0,1.21846967915e-07,0.63743225,0.73549875,10.89518815,9e-08,0.0,0.0,0.0,9e-08,0.0,0.0,0.0,9e-08
1539875938123812424,2486,1539875938122927400,base_link,-0.0182518776465,-0.0238547145808,-0.999290321919,-0.0227304657433,1.0,0.0,0.0,0.0,1.0,0.0,0.0,0.0,1.0,-0.031649697572,0.0774516239762,-0.0618755817413,1.21846967915e-07,0.0,0.0,0.0,1.21846967915e-07,0.0,0.0,0.0,1.21846967915e-07,0.36284605,0.53936575,8.0806796,9e-08,0.0,0.0,0.0,9e-08,0.0,0.0,0.0,9e-08
1539875938423684680,2487,1539875938423274408,base_link,-0.00919855715151,-0.015178764417,-0.999385165032,-0.0302371223907,1.0,0.0,0.0,0.0,1.0,0.0,0.0,0.0,1.0,0.160391688347,0.0361454747617,0.019315302372,1.21846967915e-07,0.0,0.0,0.0,1.21846967915e-07,0.0,0.0,0.0,1.21846967915e-07,0.1372931,-0.0196133,10.65982855,9e-08,0.0,0.0,0.0,9e-08,0.0,0.0,0.0,9e-08
1539875938849705224,2488,1539875938849325352,base_link,0.00332623657994,-0.0174566776141,-0.999738155014,-0.0144160315619,1.0,0.0,0.0,0.0,1.0,0.0,0.0,0.0,1.0,-0.0392817482352,0.0818206891418,0.0219672415406,1.21846967915e-07,0.0,0.0,0.0,1.21846967915e-07,0.0,0.0,0.0,1.21846967915e-07,-0.0588399,0.87279185,7.9826131,9e-08,0.0,0.0,0.0,9e-08,0.0,0.0,0.0,9e-08
1539875939165144680,2489,1539875939164308776,base_link,0.00603052918807,-0.0305109182188,-0.999231950381,-0.0238374899049,1.0,0.0,0.0,0.0,1.0,0.0,0.0,0.0,1.0,0.0161990150809,-0.0347857996821,-0.0653963238001,1.21846967915e-07,0.0,0.0,0.0,1.21846967915e-07,0.0,0.0,0.0,1.21846967915e-07,0.24516625,0.4707192,9.20844435,9e-08,0.0,0.0,0.0,9e-08,0.0,0.0,0.0,9e-08
1539875939616636040,2490,1539875939616079784,base_link,0.0042629379387,-0.0497826078146,-0.998440831446,-0.0248882586757,1.0,0.0,0.0,0.0,1.0,0.0,0.0,0.0,1.0,0.0855910107493,0.00782328657806,-0.00410740077496,1.21846967915e-07,0.0,0.0,0.0,1.21846967915e-07,0.0,0.0,0.0,1.21846967915e-07,0.3530394,0.5687857,9.1397978,9e-08,0.0,0.0,0.0,9e-08,0.0,0.0,0.0,9e-08
1539875940039245192,2491,1539875940038841160,base_link,0.0138713268994,-0.0135934165747,-0.998919254451,-0.0422271050801,1.0,0.0,0.0,0.0,1.0,0.0,0.0,0.0,1.0,-0.233613073826,0.020927162841,-0.137861758471,1.21846967915e-07,0.0,0.0,0.0,1.21846967915e-07,0.0,0.0,0.0,1.21846967915e-07,0.0392266,0.91201845,8.54159215,9e-08,0.0,0.0,0.0,9e-08,0.0,0.0,0.0,9e-08
1539875940598905480,2492,1539875940598521288,base_link,0.00371487139079,-0.0233972772152,-0.9975430319,-0.065929254936,1.0,0.0,0.0,0.0,1.0,0.0,0.0,0.0,1.0,0.239539936185,-0.0467444732785,0.0924798250198,1.21846967915e-07,0.0,0.0,0.0,1.21846967915e-07,0.0,0.0,0.0,1.21846967915e-07,0.53936575,-0.34323275,10.591182,9e-08,0.0,0.0,0.0,9e-08,0.0,0.0,0.0,9e-08
1539875940840591464,2493,1539875940838804584,base_link,-0.00631699570022,-0.021766337678,-0.998766067028,-0.0441889744561,1.0,0.0,0.0,0.0,1.0,0.0,0.0,0.0,1.0,-0.0849877819419,-0.105784125626,0.126676142216,1.21846967915e-07,0.0,0.0,0.0,1.21846967915e-07,0.0,0.0,0.0,1.21846967915e-07,0.4314926,0.7649187,13.0036179,9e-08,0.0,0.0,0.0,9e-08,0.0,0.0,0.0,9e-08
1539875941326336904,2494,1539875941325235720,base_link,-0.0255391734297,-0.0635727215093,-0.996880331789,-0.0391900981333,1.0,0.0,0.0,0.0,1.0,0.0,0.0,0.0,1.0,0.342572778463,-0.101303443313,0.00715461559594,1.21846967915e-07,0.0,0.0,0.0,1.21846967915e-07,0.0,0.0,0.0,1.21846967915e-07,0.588399,0.51975245,12.2583125,9e-08,0.0,0.0,0.0,9e-08,0.0,0.0,0.0,9e-08
1539875941729307368,2495,1539875941728688296,base_link,-0.0393768501101,-0.0928478095001,-0.993872813774,-0.0452280663776,1.0,0.0,0.0,0.0,1.0,0.0,0.0,0.0,1.0,0.0335380919278,-0.00514653883874,-0.070321418345,1.21846967915e-07,0.0,0.0,0.0,1.21846967915e-07,0.0,0.0,0.0,1.21846967915e-07,0.4707192,0.34323275,9.7281968,9e-08,0.0,0.0,0.0,9e-08,0.0,0.0,0.0,9e-08
1539875942109043080,2496,1539875942108751624,base_link,-0.0446493805345,-0.134794280333,-0.988219322225,-0.057092083415,1.0,0.0,0.0,0.0,1.0,0.0,0.0,0.0,1.0,0.254499793053,-0.0303036756814,-0.0408647246659,1.21846967915e-07,0.0,0.0,0.0,1.21846967915e-07,0.0,0.0,0.0,1.21846967915e-07,0.71588545,0.5687857,11.93469305,9e-08,0.0,0.0,0.0,9e-08,0.0,0.0,0.0,9e-08
1539875942564743144,2497,1539875942563647432,base_link,-0.0433035506305,-0.198986553712,-0.975595676688,-0.0821110806885,1.0,0.0,0.0,0.0,1.0,0.0,0.0,0.0,1.0,0.203132450581,0.0305692479014,-0.204668357968,1.21846967915e-07,0.0,0.0,0.0,1.21846967915e-07,0.0,0.0,0.0,1.21846967915e-07,0.5491724,0.7256921,9.30651085,9e-08,0.0,0.0,0.0,9e-08,0.0,0.0,0.0,9e-08
1539875942966436200,2498,1539875942966004104,base_link,-0.042169241002,-0.240826109589,-0.96176564734,-0.123415475735,1.0,0.0,0.0,0.0,1.0,0.0,0.0,0.0,1.0,0.152074977756,-0.0660022199154,-0.203958317637,1.21846967915e-07,0.0,0.0,0.0,1.21846967915e-07,0.0,0.0,0.0,1.21846967915e-07,0.40207265,0.4707192,8.83579165,9e-08,0.0,0.0,0.0,9e-08,0.0,0.0,0.0,9e-08
1539875943375878664,2499,1539875943375644520,base_link,-0.052207208225,-0.24709238172,-0.953635105176,-0.163706592662,1.0,0.0,0.0,0.0,1.0,0.0,0.0,0.0,1.0,0.0833427235484,-0.089537717402,-0.186569154263,1.21846967915e-07,0.0,0.0,0.0,1.21846967915e-07,0.0,0.0,0.0,1.21846967915e-07,0.77472535,0.9022118,12.38579895,9e-08,0.0,0.0,0.0,9e-08,0.0,0.0,0.0,9e-08
1539875943794406984,2500,1539875943794066632,base_link,-0.0529138521909,-0.258431660641,-0.937425943859,-0.227257124872,1.0,0.0,0.0,0.0,1.0,0.0,0.0,0.0,1.0,0.151027694345,-0.11248588562,-0.392420649529,1.21846967915e-07,0.0,0.0,0.0,1.21846967915e-07,0.0,0.0,0.0,1.21846967915e-07,0.42168595,0.67665885,9.5909037,9e-08,0.0,0.0,0.0,9e-08,0.0,0.0,0.0,9e-08
1539875944096141704,2501,1539875944089082408,base_link,-0.0734169779488,-0.295004939572,-0.909991938941,-0.281951598752,1.0,0.0,0.0,0.0,1.0,0.0,0.0,0.0,1.0,0.286208540201,-0.230173051357,-0.311481148005,1.21846967915e-07,0.0,0.0,0.0,1.21846967915e-07,0.0,0.0,0.0,1.21846967915e-07,0.7453054,0.65704555,10.0223963,9e-08,0.0,0.0,0.0,9e-08,0.0,0.0,0.0,9e-08
1539875944566279848,2502,1539875944565849800,base_link,-0.136031199428,-0.309596062797,-0.8745122876,-0.347669454396,1.0,0.0,0.0,0.0,1.0,0.0,0.0,0.0,1.0,0.0364420264959,-0.354262202978,-0.139281630516,1.21846967915e-07,0.0,0.0,0.0,1.21846967915e-07,0.0,0.0,0.0,1.21846967915e-07,0.980665,0.79433865,12.95458465,9e-08,0.0,0.0,0.0,9e-08,0.0,0.0,0.0,9e-08
1539875944903197512,2503,1539875944901753384,base_link,-0.175955449963,-0.285080006825,-0.856225745297,-0.393251245931,1.0,0.0,0.0,0.0,1.0,0.0,0.0,0.0,1.0,-0.114770323038,-0.313630789518,-0.188241630793,1.21846967915e-07,0.0,0.0,0.0,1.21846967915e-07,0.0,0.0,0.0,1.21846967915e-07,1.52003075,2.0593965,16.2398124,9e-08,0.0,0.0,0.0,9e-08,0.0,0.0,0.0,9e-08
1539875945288540456,2504,1539875945288220968,base_link,-0.170343418526,-0.250199835728,-0.829699581362,-0.469022138767,1.0,0.0,0.0,0.0,1.0,0.0,0.0,0.0,1.0,0.0989721864462,-0.167496472597,-0.459566563368,1.21846967915e-07,0.0,0.0,0.0,1.21846967915e-07,0.0,0.0,0.0,1.21846967915e-07,0.8237586,1.2944778,12.58193195,9e-08,0.0,0.0,0.0,9e-08,0.0,0.0,0.0,9e-08
1539875945710474728,2505,1539875945710106024,base_link,-0.179284170525,-0.223397653333,-0.796883364538,-0.531909370107,1.0,0.0,0.0,0.0,1.0,0.0,0.0,0.0,1.0,-0.318780243397,-0.204969927669,-0.194976195693,1.21846967915e-07,0.0,0.0,0.0,1.21846967915e-07,0.0,0.0,0.0,1.21846967915e-07,0.46091255,0.71588545,10.6500219,9e-08,0.0,0.0,0.0,9e-08,0.0,0.0,0.0,9e-08
1539875946222878888,2506,1539875946219240104,base_link,-0.164101300172,-0.172796390763,-0.765066514097,-0.598235237702,1.0,0.0,0.0,0.0,1.0,0.0,0.0,0.0,1.0,-0.0552257969975,-0.141849577427,-0.268710017204,1.21846967915e-07,0.0,0.0,0.0,1.21846967915e-07,0.0,0.0,0.0,1.21846967915e-07,0.4707192,0.4118793,10.42446895,9e-08,0.0,0.0,0.0,9e-08,0.0,0.0,0.0,9e-08
1539875946646004456,2507,1539875946645418088,base_link,-0.146630729061,-0.122274027131,-0.745741699974,-0.638292886145,1.0,0.0,0.0,0.0,1.0,0.0,0.0,0.0,1.0,-0.42349627614,-0.0412162654102,-0.12714394927,1.21846967915e-07,0.0,0.0,0.0,1.21846967915e-07,0.0,0.0,0.0,1.21846967915e-07,0.44129925,1.06892485,11.03248125,9e-08,0.0,0.0,0.0,9e-08,0.0,0.0,0.0,9e-08
1539875946966802856,2508,1539875946966512424,base_link,-0.117201350666,-0.0909769760357,-0.731890596503,-0.665073821454,1.0,0.0,0.0,0.0,1.0,0.0,0.0,0.0,1.0,-0.271862447262,-0.0296416059136,-0.174035042524,1.21846967915e-07,0.0,0.0,0.0,1.21846967915e-07,0.0,0.0,0.0,1.21846967915e-07,-0.0392266,0.67665885,9.7870367,9e-08,0.0,0.0,0.0,9e-08,0.0,0.0,0.0,9e-08
1539875947432211816,2509,1539875947431092872,base_link,-0.0806698735241,-0.0556857367471,-0.711977616846,-0.695326788883,1.0,0.0,0.0,0.0,1.0,0.0,0.0,0.0,1.0,-0.204244837165,0.0388067215681,-0.141650110483,1.21846967915e-07,0.0,0.0,0.0,1.21846967915e-07,0.0,0.0,0.0,1.21846967915e-07,-0.2549729,0.7453054,7.91396655,9e-08,0.0,0.0,0.0,9e-08,0.0,0.0,0.0,9e-08
1539875947872089544,2510,1539875947871837928,base_link,-0.034848542253,-0.0189842194663,-0.693271733583,-0.71958285272,1.0,0.0,0.0,0.0,1.0,0.0,0.0,0.0,1.0,-0.104491844773,0.0401077345014,-0.131525397301,1.21846967915e-07,0.0,0.0,0.0,1.21846967915e-07,0.0,0.0,0.0,1.21846967915e-07,-0.196133,0.53936575,10.0812362,9e-08,0.0,0.0,0.0,9e-08,0.0,0.0,0.0,9e-08
1539875948351826632,2511,1539875948351564776,base_link,-0.0213930078303,-0.0036003910014,-0.681800292736,-0.731216614435,1.0,0.0,0.0,0.0,1.0,0.0,0.0,0.0,1.0,0.00149711593986,-0.0361023023725,-0.0485930554569,1.21846967915e-07,0.0,0.0,0.0,1.21846967915e-07,0.0,0.0,0.0,1.21846967915e-07,-0.1569064,0.3138128,10.34601575,9e-08,0.0,0.0,0.0,9e-08,0.0,0.0,0.0,9e-08
1539875948703547688,2512,1539875948700663816,base_link,-0.0117986847564,0.0111995391208,-0.685877834797,-0.727534849403,1.0,0.0,0.0,0.0,1.0,0.0,0.0,0.0,1.0,-0.0981661975384,0.062141649425,0.0672202929854,1.21846967915e-07,0.0,0.0,0.0,1.21846967915e-07,0.0,0.0,0.0,1.21846967915e-07,0.3530394,0.51975245,12.85651815,9e-08,0.0,0.0,0.0,9e-08,0.0,0.0,0.0,9e-08
1539875949064120744,2513,1539875949063126984,base_link,-0.00053030729105,0.00348147343655,-0.686639791248,-0.72698926759,1.0,0.0,0.0,0.0,1.0,0.0,0.0,0.0,1.0,0.0641125962138,0.0600287653506,-0.0482293479145,1.21846967915e-07,0.0,0.0,0.0,1.21846967915e-07,0.0,0.0,0.0,1.21846967915e-07,0.12748645,0.55897905,10.4342756,9e-08,0.0,0.0,0.0,9e-08,0.0,0.0,0.0,9e-08
1539875949481871880,2514,1539875949481261192,base_link,-0.000290927013419,-0.0186953497482,-0.687904456182,-0.725560375451,1.0,0.0,0.0,0.0,1.0,0.0,0.0,0.0,1.0,0.0812975987792,0.0873547494411,0.0507137849927,1.21846967915e-07,0.0,0.0,0.0,1.21846967915e-07,0.0,0.0,0.0,1.21846967915e-07,-0.14709975,0.08825985,9.11037785,9e-08,0.0,0.0,0.0,9e-08,0.0,0.0,0.0,9e-08
1539875949947667496,2515,1539875949947302120,base_link,0.00146813231287,-0.0391891840108,-0.707966713537,-0.705156142261,1.0,0.0,0.0,0.0,1.0,0.0,0.0,0.0,1.0,-0.100460469723,0.0833784788847,0.118789292872,1.21846967915e-07,0.0,0.0,0.0,1.21846967915e-07,0.0,0.0,0.0,1.21846967915e-07,-0.40207265,0.48052585,8.4729456,9e-08,0.0,0.0,0.0,9e-08,0.0,0.0,0.0,9e-08
1539875950279833928,2516,1539875950279600424,base_link,0.0245059185094,-0.0403539175471,-0.711099537561,-0.701504432614,1.0,0.0,0.0,0.0,1.0,0.0,0.0,0.0,1.0,-0.0413161888719,0.101146131754,-0.0564644560218,1.21846967915e-07,0.0,0.0,0.0,1.21846967915e-07,0.0,0.0,0.0,1.21846967915e-07,-0.51975245,0.4118793,6.7862018,9e-08,0.0,0.0,0.0,9e-08,0.0,0.0,0.0,9e-08
1539875950766579944,2517,1539875950766188008,base_link,0.0430896157132,-0.0378111846028,-0.701022320322,-0.710831418655,1.0,0.0,0.0,0.0,1.0,0.0,0.0,0.0,1.0,-0.106446832418,0.0215620137751,-0.0523335635662,1.21846967915e-07,0.0,0.0,0.0,1.21846967915e-07,0.0,0.0,0.0,1.21846967915e-07,-0.46091255,0.3138128,9.5124505,9e-08,0.0,0.0,0.0,9e-08,0.0,0.0,0.0,9e-08
1539875951083277704,2518,1539875951083078248,base_link,0.0394789242218,-0.0397204743629,-0.701721782991,-0.710246603466,1.0,0.0,0.0,0.0,1.0,0.0,0.0,0.0,1.0,0.194836914539,0.00629143277183,0.0721143856645,1.21846967915e-07,0.0,0.0,0.0,1.21846967915e-07,0.0,0.0,0.0,1.21846967915e-07,-0.3138128,1.42915222141e-15,11.6699135,9e-08,0.0,0.0,0.0,9e-08,0.0,0.0,0.0,9e-08
1539875951486257320,2519,1539875951485994824,base_link,0.0227579551577,-0.054814444734,-0.712095108168,-0.699569874315,1.0,0.0,0.0,0.0,1.0,0.0,0.0,0.0,1.0,0.0648154914379,0.011838991195,0.0289880894125,1.21846967915e-07,0.0,0.0,0.0,1.21846967915e-07,0.0,0.0,0.0,1.21846967915e-07,-0.2745862,0.48052585,9.6693569,9e-08,0.0,0.0,0.0,9e-08,0.0,0.0,0.0,9e-08
1539875951800330408,2520,1539875951799057384,base_link,0.0233718752891,-0.0593564657632,-0.713006323947,-0.69824963117,1.0,0.0,0.0,0.0,1.0,0.0,0.0,0.0,1.0,0.122350379825,-0.00124736968428,-0.0435173660517,1.21846967915e-07,0.0,0.0,0.0,1.21846967915e-07,0.0,0.0,0.0,1.21846967915e-07,-0.44129925,0.46091255,8.01203305,9e-08,0.0,0.0,0.0,9e-08,0.0,0.0,0.0,9e-08
1539875952254358248,2521,1539875952253351912,base_link,0.00409049271275,-0.0780970420431,-0.7038279707,-0.706052623786,1.0,0.0,0.0,0.0,1.0,0.0,0.0,0.0,1.0,0.225472360849,0.0805644094944,-0.0193280987442,1.21846967915e-07,0.0,0.0,0.0,1.21846967915e-07,0.0,0.0,0.0,1.21846967915e-07,-0.5099458,0.40207265,9.87529655,9e-08,0.0,0.0,0.0,9e-08,0.0,0.0,0.0,9e-08
1539875952694247592,2522,1539875952694004200,base_link,-0.00821243092996,-0.0766417127498,-0.689250763256,-0.72041098631,1.0,0.0,0.0,0.0,1.0,0.0,0.0,0.0,1.0,0.0937957689166,-0.0822440683842,-0.0550282411277,1.21846967915e-07,0.0,0.0,0.0,1.21846967915e-07,0.0,0.0,0.0,1.21846967915e-07,-0.63743225,0.2157463,10.09104285,9e-08,0.0,0.0,0.0,9e-08,0.0,0.0,0.0,9e-08
1539875953157828008,2523,1539875953157429224,base_link,-0.0170333730072,-0.0499666570608,-0.695425114238,-0.7166568969,1.0,0.0,0.0,0.0,1.0,0.0,0.0,0.0,1.0,-0.569031834602,-0.104430578649,0.0678635910153,1.21846967915e-07,0.0,0.0,0.0,1.21846967915e-07,0.0,0.0,0.0,1.21846967915e-07,-0.2549729,0.7060788,12.0817928,9e-08,0.0,0.0,0.0,9e-08,0.0,0.0,0.0,9e-08
1539875953423906472,2524,1539875953423564680,base_link,0.0273678768172,0.00940610970477,-0.695899000718,-0.717556342888,1.0,0.0,0.0,0.0,1.0,0.0,0.0,0.0,1.0,-0.0200531389564,-0.0276980027556,-0.0822308734059,1.21846967915e-07,0.0,0.0,0.0,1.21846967915e-07,0.0,0.0,0.0,1.21846967915e-07,-0.18632635,0.18632635,12.2386992,9e-08,0.0,0.0,0.0,9e-08,0.0,0.0,0.0,9e-08
1539875953762651848,2525,1539875953762255496,base_link,0.00308256085194,-0.00109259060098,-0.697231811935,-0.71683826941,1.0,0.0,0.0,0.0,1.0,0.0,0.0,0.0,1.0,0.113116256893,-0.0399446859956,0.0537133254111,1.21846967915e-07,0.0,0.0,0.0,1.21846967915e-07,0.0,0.0,0.0,1.21846967915e-07,-0.2941995,0.3530394,10.77750835,9e-08,0.0,0.0,0.0,9e-08,0.0,0.0,0.0,9e-08
1539875954221706664,2526,1539875954220123304,base_link,-0.0109589836405,-0.0057097257881,-0.701696107532,-0.712369196684,1.0,0.0,0.0,0.0,1.0,0.0,0.0,0.0,1.0,0.130712658167,0.0300273820758,0.00413318257779,1.21846967915e-07,0.0,0.0,0.0,1.21846967915e-07,0.0,0.0,0.0,1.21846967915e-07,-0.0784532,0.50013915,9.9831697,9e-08,0.0,0.0,0.0,9e-08,0.0,0.0,0.0,9e-08
1539875954692180168,2527,1539875954691953864,base_link,-0.0505825396991,-0.0443593437389,-0.699248391391,-0.711705938178,1.0,0.0,0.0,0.0,1.0,0.0,0.0,0.0,1.0,0.464790403843,-0.046185284853,0.0176782142371,1.21846967915e-07,0.0,0.0,0.0,1.21846967915e-07,0.0,0.0,0.0,1.21846967915e-07,-0.196133,0.14709975,8.8848249,9e-08,0.0,0.0,0.0,9e-08,0.0,0.0,0.0,9e-08
1539875955119136392,2528,1539875955118772776,base_link,-0.0419191113699,-0.0391076148637,-0.70946470272,-0.702405309032,1.0,0.0,0.0,0.0,1.0,0.0,0.0,0.0,1.0,-0.140269547701,0.0961793884635,-0.0604356080294,1.21846967915e-07,0.0,0.0,0.0,1.21846967915e-07,0.0,0.0,0.0,1.21846967915e-07,-0.0784532,0.6472389,7.75706015,9e-08,0.0,0.0,0.0,9e-08,0.0,0.0,0.0,9e-08
1539875955656320488,2529,1539875955656039368,base_link,-0.00424221580361,-0.0299556073459,-0.695711732766,-0.71768366993,1.0,0.0,0.0,0.0,1.0,0.0,0.0,0.0,1.0,-0.154554411769,0.0798755660653,-0.00473600998521,1.21846967915e-07,0.0,0.0,0.0,1.21846967915e-07,0.0,0.0,0.0,1.21846967915e-07,-0.2353596,0.4707192,8.36507245,9e-08,0.0,0.0,0.0,9e-08,0.0,0.0,0.0,9e-08
1539875955878981032,2530,1539875955878739208,base_link,-0.0191283891279,-0.0618704161199,-0.689271341359,-0.721603197277,1.0,0.0,0.0,0.0,1.0,0.0,0.0,0.0,1.0,0.508817791939,0.145419150591,-0.163546726108,1.21846967915e-07,0.0,0.0,0.0,1.21846967915e-07,0.0,0.0,0.0,1.21846967915e-07,-0.1176798,0.59820565,5.75650355,9e-08,0.0,0.0,0.0,9e-08,0.0,0.0,0.0,9e-08
1539875956246768040,2531,1539875956246373672,base_link,-0.0172215553713,-0.0556081497523,-0.671381903609,-0.738821691085,1.0,0.0,0.0,0.0,1.0,0.0,0.0,0.0,1.0,-0.10523096472,-0.0654922798276,-0.125208884478,1.21846967915e-07,0.0,0.0,0.0,1.21846967915e-07,0.0,0.0,0.0,1.21846967915e-07,0.0392266,0.26477955,11.5522337,9e-08,0.0,0.0,0.0,9e-08,0.0,0.0,0.0,9e-08
1539875956557388104,2532,1539875956556309608,base_link,-0.0393836776173,-0.060602801139,-0.670408544196,-0.738463682452,1.0,0.0,0.0,0.0,1.0,0.0,0.0,0.0,1.0,0.287779122591,-0.0846175849438,0.0953150466084,1.21846967915e-07,0.0,0.0,0.0,1.21846967915e-07,0.0,0.0,0.0,1.21846967915e-07,0.6080123,0.30400615,14.4942287,9e-08,0.0,0.0,0.0,9e-08,0.0,0.0,0.0,9e-08
1539875956975695560,2533,1539875956975413608,base_link,-0.0674836239061,-0.0817327467023,-0.66696643945,-0.737510330279,1.0,0.0,0.0,0.0,1.0,0.0,0.0,0.0,1.0,0.279518574476,0.00856917072088,-0.204244971275,1.21846967915e-07,0.0,0.0,0.0,1.21846967915e-07,0.0,0.0,0.0,1.21846967915e-07,0.26477955,0.8433719,10.52253545,9e-08,0.0,0.0,0.0,9e-08,0.0,0.0,0.0,9e-08
1539875957468955368,2534,1539875957468697000,base_link,-0.180828921534,-0.18078732753,-0.620187476101,-0.741609289201,1.0,0.0,0.0,0.0,1.0,0.0,0.0,0.0,1.0,0.170590370893,-0.148234397173,-0.0150741795078,1.21846967915e-07,0.0,0.0,0.0,1.21846967915e-07,0.0,0.0,0.0,1.21846967915e-07,-0.06864655,0.38245935,10.5323421,9e-08,0.0,0.0,0.0,9e-08,0.0,0.0,0.0,9e-08
1539875957799260744,2535,1539875957798500168,base_link,-0.18968056494,-0.159042901806,-0.609017758281,-0.753540980151,1.0,0.0,0.0,0.0,1.0,0.0,0.0,0.0,1.0,-0.166789457202,-0.107548326254,-0.162829786539,1.21846967915e-07,0.0,0.0,0.0,1.21846967915e-07,0.0,0.0,0.0,1.21846967915e-07,0.2745862,1.0591182,11.34629405,9e-08,0.0,0.0,0.0,9e-08,0.0,0.0,0.0,9e-08
1539875958198471112,2536,1539875958197252936,base_link,-0.199139683404,-0.163513687544,-0.56072634729,-0.786887936071,1.0,0.0,0.0,0.0,1.0,0.0,0.0,0.0,1.0,0.572104990482,-0.112748280168,-0.344751626253,1.21846967915e-07,0.0,0.0,0.0,1.21846967915e-07,0.0,0.0,0.0,1.21846967915e-07,-0.18632635,0.4707192,9.32612415,9e-08,0.0,0.0,0.0,9e-08,0.0,0.0,0.0,9e-08
1539875958479600520,2537,1539875958479364648,base_link,-0.236944185701,-0.173335095753,-0.516432811114,-0.804431195969,1.0,0.0,0.0,0.0,1.0,0.0,0.0,0.0,1.0,0.171097815037,-0.242350041866,-0.265540987253,1.21846967915e-07,0.0,0.0,0.0,1.21846967915e-07,0.0,0.0,0.0,1.21846967915e-07,-0.0588399,0.6864655,11.3364874,9e-08,0.0,0.0,0.0,9e-08,0.0,0.0,0.0,9e-08
1539875958860624776,2538,1539875958860237288,base_link,-0.284887773521,-0.168629758807,-0.46577041455,-0.820646624238,1.0,0.0,0.0,0.0,1.0,0.0,0.0,0.0,1.0,-0.106349945068,-0.28004014492,-0.178459122777,1.21846967915e-07,0.0,0.0,0.0,1.21846967915e-07,0.0,0.0,0.0,1.21846967915e-07,0.1765197,0.63743225,10.8069283,9e-08,0.0,0.0,0.0,9e-08,0.0,0.0,0.0,9e-08
1539875959360761640,2539,1539875959360157256,base_link,-0.281346256507,-0.112273448918,-0.408208291356,-0.861164878223,1.0,0.0,0.0,0.0,1.0,0.0,0.0,0.0,1.0,-0.168731749058,-0.190119579434,-0.251827150583,1.21846967915e-07,0.0,0.0,0.0,1.21846967915e-07,0.0,0.0,0.0,1.21846967915e-07,0.24516625,0.85317855,13.66066345,9e-08,0.0,0.0,0.0,9e-08,0.0,0.0,0.0,9e-08
1539875959825189608,2540,1539875959824428136,base_link,-0.281698436449,-0.0895129217887,-0.353077535544,-0.887676563636,1.0,0.0,0.0,0.0,1.0,0.0,0.0,0.0,1.0,-0.075630992651,-0.13699413836,-0.243864774704,1.21846967915e-07,0.0,0.0,0.0,1.21846967915e-07,0.0,0.0,0.0,1.21846967915e-07,0.16671305,0.61781895,10.4538889,9e-08,0.0,0.0,0.0,9e-08,0.0,0.0,0.0,9e-08
1539875960194961544,2541,1539875960194607304,base_link,-0.291816822186,-0.081467235821,-0.299111744445,-0.904841530939,1.0,0.0,0.0,0.0,1.0,0.0,0.0,0.0,1.0,0.191751107574,-0.16055251658,-0.267853736877,1.21846967915e-07,0.0,0.0,0.0,1.21846967915e-07,0.0,0.0,0.0,1.21846967915e-07,0.0392266,0.4903325,8.9632781,9e-08,0.0,0.0,0.0,9e-08,0.0,0.0,0.0,9e-08
1539875960671059400,2542,1539875960670765096,base_link,-0.258231696117,-0.050767434665,-0.239407057498,-0.934571195532,1.0,0.0,0.0,0.0,1.0,0.0,0.0,0.0,1.0,-0.443140029907,-0.172876253724,-0.245212614536,1.21846967915e-07,0.0,0.0,0.0,1.21846967915e-07,0.0,0.0,0.0,1.21846967915e-07,0.44129925,0.73549875,11.6110736,9e-08,0.0,0.0,0.0,9e-08,0.0,0.0,0.0,9e-08
1539875960975818504,2543,1539875960975536328,base_link,-0.234334625753,-0.0339304273069,-0.204896567389,-0.949712275349,1.0,0.0,0.0,0.0,1.0,0.0,0.0,0.0,1.0,-0.145504236221,-0.127231314778,-0.206672251225,1.21846967915e-07,0.0,0.0,0.0,1.21846967915e-07,0.0,0.0,0.0,1.21846967915e-07,0.14709975,0.7649187,10.71866845,9e-08,0.0,0.0,0.0,9e-08,0.0,0.0,0.0,9e-08
1539875961472927624,2544,1539875961472326152,base_link,-0.2194360068,-0.0162977772791,-0.141508296266,-0.965172328376,1.0,0.0,0.0,0.0,1.0,0.0,0.0,0.0,1.0,-0.300391554832,-0.118004724383,-0.155003681779,1.21846967915e-07,0.0,0.0,0.0,1.21846967915e-07,0.0,0.0,0.0,1.21846967915e-07,0.588399,0.79433865,14.26867575,9e-08,0.0,0.0,0.0,9e-08,0.0,0.0,0.0,9e-08
1539875961914078824,2545,1539875961913647784,base_link,-0.165189919713,-0.00556694406367,-0.100391490194,-0.981123258442,1.0,0.0,0.0,0.0,1.0,0.0,0.0,0.0,1.0,-0.239219501615,0.0284908302128,-0.150329768658,1.21846967915e-07,0.0,0.0,0.0,1.21846967915e-07,0.0,0.0,0.0,1.21846967915e-07,0.1765197,0.7649187,6.3154826,9e-08,0.0,0.0,0.0,9e-08,0.0,0.0,0.0,9e-08
1539875962223481256,2546,1539875962223048936,base_link,-0.143106122185,-0.00182335108126,-0.0753981577943,-0.98682948425,1.0,0.0,0.0,0.0,1.0,0.0,0.0,0.0,1.0,0.00439744349569,-0.0345721803606,-0.152777090669,1.21846967915e-07,0.0,0.0,0.0,1.21846967915e-07,0.0,0.0,0.0,1.21846967915e-07,-0.1765197,0.48052585,12.0621795,9e-08,0.0,0.0,0.0,9e-08,0.0,0.0,0.0,9e-08
1539875962690826280,2547,1539875962690353864,base_link,-0.0692492631757,0.0140103993155,-0.0648399714586,-0.995391393554,1.0,0.0,0.0,0.0,1.0,0.0,0.0,0.0,1.0,-0.434096813202,-0.0547211803496,0.0116011332721,1.21846967915e-07,0.0,0.0,0.0,1.21846967915e-07,0.0,0.0,0.0,1.21846967915e-07,-0.06864655,0.59820565,10.73828175,9e-08,0.0,0.0,0.0,9e-08,0.0,0.0,0.0,9e-08
1539875963113228328,2548,1539875963112958536,base_link,-0.0240946137075,0.010131523112,-0.0513610211512,-0.998338042617,1.0,0.0,0.0,0.0,1.0,0.0,0.0,0.0,1.0,-0.142916128039,0.0698447600007,-0.0814870893955,1.21846967915e-07,0.0,0.0,0.0,1.21846967915e-07,0.0,0.0,0.0,1.21846967915e-07,0.0980665,0.79433865,9.83606995,9e-08,0.0,0.0,0.0,9e-08,0.0,0.0,0.0,9e-08
1539875963591718696,2549,1539875963590410824,base_link,-0.00639620919788,-0.00425626166276,-0.0235144114862,-0.999693975773,1.0,0.0,0.0,0.0,1.0,0.0,0.0,0.0,1.0,0.0809863880277,0.00615517795086,-0.0649977400899,1.21846967915e-07,0.0,0.0,0.0,1.21846967915e-07,0.0,0.0,0.0,1.21846967915e-07,-0.0784532,0.04903325,8.2964259,9e-08,0.0,0.0,0.0,9e-08,0.0,0.0,0.0,9e-08
1539875963990539240,2550,1539875963989993960,base_link,0.00356341259136,-0.0052565926366,-0.0288199459397,-0.999564445667,1.0,0.0,0.0,0.0,1.0,0.0,0.0,0.0,1.0,-0.0292730834335,0.00903938431293,0.0504491813481,1.21846967915e-07,0.0,0.0,0.0,1.21846967915e-07,0.0,0.0,0.0,1.21846967915e-07,0.04903325,0.2941995,8.5710121,9e-08,0.0,0.0,0.0,9e-08,0.0,0.0,0.0,9e-08
1539875964335521928,2551,1539875964335224136,base_link,-0.00538872096731,-0.00100783398105,-0.0415508222651,-0.999121351551,1.0,0.0,0.0,0.0,1.0,0.0,0.0,0.0,1.0,0.270314872265,-0.0228331163526,0.0692729353905,1.21846967915e-07,0.0,0.0,0.0,1.21846967915e-07,0.0,0.0,0.0,1.21846967915e-07,0.2549729,0.30400615,10.01258965,9e-08,0.0,0.0,0.0,9e-08,0.0,0.0,0.0,9e-08
1539875964778143208,2552,1539875964777849128,base_link,-0.016102125403,0.00581195995092,-0.0594603503909,-0.998083868926,1.0,0.0,0.0,0.0,1.0,0.0,0.0,0.0,1.0,-0.147130206227,0.019071996212,0.0847602412105,1.21846967915e-07,0.0,0.0,0.0,1.21846967915e-07,0.0,0.0,0.0,1.21846967915e-07,0.63743225,0.8629852,10.5323421,9e-08,0.0,0.0,0.0,9e-08,0.0,0.0,0.0,9e-08
1539875965181212200,2553,1539875965180991304,base_link,-0.0244830429897,-0.00498754005632,-0.0490536970068,-0.99848357015,1.0,0.0,0.0,0.0,1.0,0.0,0.0,0.0,1.0,-0.0184183493257,0.061730928719,-0.0621078871191,1.21846967915e-07,0.0,0.0,0.0,1.21846967915e-07,0.0,0.0,0.0,1.21846967915e-07,0.5491724,0.3530394,8.89463155,9e-08,0.0,0.0,0.0,9e-08,0.0,0.0,0.0,9e-08
1539875965657449032,2554,1539875965657050120,base_link,-0.0250150639506,-0.0074640435604,-0.0423624390261,-0.998761211897,1.0,0.0,0.0,0.0,1.0,0.0,0.0,0.0,1.0,0.0130595806986,-0.00646286364645,0.0344990864396,1.21846967915e-07,0.0,0.0,0.0,1.21846967915e-07,0.0,0.0,0.0,1.21846967915e-07,0.30400615,0.24516625,10.20872265,9e-08,0.0,0.0,0.0,9e-08,0.0,0.0,0.0,9e-08
1539875966003319496,2555,1539875966002442536,base_link,-0.0359124273013,-0.00146739188713,-0.0560434932743,-0.997781174,1.0,0.0,0.0,0.0,1.0,0.0,0.0,0.0,1.0,0.103582710028,-0.0584392622113,0.24869056046,1.21846967915e-07,0.0,0.0,0.0,1.21846967915e-07,0.0,0.0,0.0,1.21846967915e-07,0.6276256,-0.51975245,9.6693569,9e-08,0.0,0.0,0.0,9e-08,0.0,0.0,0.0,9e-08
1539875966451650536,2556,1539875966451275848,base_link,-0.028655115265,-0.00185420763468,-0.0835914542129,-0.996086299005,1.0,0.0,0.0,0.0,1.0,0.0,0.0,0.0,1.0,-0.306627899408,0.0967797040939,-0.175755232573,1.21846967915e-07,0.0,0.0,0.0,1.21846967915e-07,0.0,0.0,0.0,1.21846967915e-07,0.57859235,1.69655045,7.6295737,9e-08,0.0,0.0,0.0,9e-08,0.0,0.0,0.0,9e-08
1539875966867744552,2557,1539875966867079944,base_link,-0.0335701865139,-0.00919829096999,-0.0225623624393,-0.999139316523,1.0,0.0,0.0,0.0,1.0,0.0,0.0,0.0,1.0,0.388054132462,-0.107278779149,-0.16849848628,1.21846967915e-07,0.0,0.0,0.0,1.21846967915e-07,0.0,0.0,0.0,1.21846967915e-07,0.46091255,1.39312317381e-15,11.375714,9e-08,0.0,0.0,0.0,9e-08,0.0,0.0,0.0,9e-08
1539875967159656232,2558,1539875967159030888,base_link,-0.0363220122836,0.0162949654418,-0.0249402481663,-0.998895975338,1.0,0.0,0.0,0.0,1.0,0.0,0.0,0.0,1.0,-0.0265724789351,-0.180150926113,0.175383046269,1.21846967915e-07,0.0,0.0,0.0,1.21846967915e-07,0.0,0.0,0.0,1.21846967915e-07,1.1179581,-0.2941995,14.0823494,9e-08,0.0,0.0,0.0,9e-08,0.0,0.0,0.0,9e-08
1539875967561599048,2559,1539875967561144904,base_link,-0.0201145082393,0.035227668123,-0.0482246818662,-0.998012423778,1.0,0.0,0.0,0.0,1.0,0.0,0.0,0.0,1.0,-0.0780532360077,-0.0278310663998,0.0328742563725,1.21846967915e-07,0.0,0.0,0.0,1.21846967915e-07,0.0,0.0,0.0,1.21846967915e-07,0.87279185,0.7256921,11.20900095,9e-08,0.0,0.0,0.0,9e-08,0.0,0.0,0.0,9e-08
1539875968019862888,2560,1539875968019342760,base_link,0.00524157725477,0.0365916925588,-0.0354782560926,-0.998686571076,1.0,0.0,0.0,0.0,1.0,0.0,0.0,0.0,1.0,-0.0575410574675,0.0201126746833,-0.0523972809315,1.21846967915e-07,0.0,0.0,0.0,1.21846967915e-07,0.0,0.0,0.0,1.21846967915e-07,0.5491724,0.4903325,9.81645665,9e-08,0.0,0.0,0.0,9e-08,0.0,0.0,0.0,9e-08
1539875968286798216,2561,1539875968285906184,base_link,0.0121946226209,0.0371692224667,-0.0301288011978,-0.998780253819,1.0,0.0,0.0,0.0,1.0,0.0,0.0,0.0,1.0,-0.0192450098693,-0.00720078498125,-0.010695005767,1.21846967915e-07,0.0,0.0,0.0,1.21846967915e-07,0.0,0.0,0.0,1.21846967915e-07,0.8433719,0.30400615,9.7281968,9e-08,0.0,0.0,0.0,9e-08,0.0,0.0,0.0,9e-08
1539875968745906664,2562,1539875968743144232,base_link,0.0162424997279,0.0363838055647,-0.0438849626887,-0.998241709179,1.0,0.0,0.0,0.0,1.0,0.0,0.0,0.0,1.0,-0.0739106163383,-0.0234554074705,0.106796309352,1.21846967915e-07,0.0,0.0,0.0,1.21846967915e-07,0.0,0.0,0.0,1.21846967915e-07,0.85317855,0.2549729,11.2580342,9e-08,0.0,0.0,0.0,9e-08,0.0,0.0,0.0,9e-08
1539875968974875112,2563,1539875968974662664,base_link,0.0183214562044,0.0305002745036,-0.0561046816083,-0.997790720642,1.0,0.0,0.0,0.0,1.0,0.0,0.0,0.0,1.0,0.0435946732759,0.0681576281786,0.0823356285691,1.21846967915e-07,0.0,0.0,0.0,1.21846967915e-07,0.0,0.0,0.0,1.21846967915e-07,0.55897905,0.4707192,8.237586,9e-08,0.0,0.0,0.0,9e-08,0.0,0.0,0.0,9e-08
1539875969451905320,2564,1539875969451663720,base_link,-0.0277520797288,0.0116792911702,-0.0584179907481,-0.997838040258,1.0,0.0,0.0,0.0,1.0,0.0,0.0,0.0,1.0,0.107200339437,0.0731279700994,-0.0170390382409,1.21846967915e-07,0.0,0.0,0.0,1.21846967915e-07,0.0,0.0,0.0,1.21846967915e-07,0.36284605,0.3726527,7.24711435,9e-08,0.0,0.0,0.0,9e-08,0.0,0.0,0.0,9e-08
1539875969800855720,2565,1539875969800526792,base_link,-0.0472659075398,0.00813018541976,-0.0569610216302,-0.997223784356,1.0,0.0,0.0,0.0,1.0,0.0,0.0,0.0,1.0,0.0461423024535,0.0101590771228,0.00504600675777,1.21846967915e-07,0.0,0.0,0.0,1.21846967915e-07,0.0,0.0,0.0,1.21846967915e-07,0.5295591,0.28439285,9.414384,9e-08,0.0,0.0,0.0,9e-08,0.0,0.0,0.0,9e-08
1539875970190351208,2566,1539875970190095624,base_link,-0.0452400021972,0.012448635102,-0.062161056606,-0.996962575389,1.0,0.0,0.0,0.0,1.0,0.0,0.0,0.0,1.0,0.110263437033,-0.00320049189031,-0.0117791704834,1.21846967915e-07,0.0,0.0,0.0,1.21846967915e-07,0.0,0.0,0.0,1.21846967915e-07,0.65704555,0.7256921,11.11093445,9e-08,0.0,0.0,0.0,9e-08,0.0,0.0,0.0,9e-08
1539875970525609352,2567,1539875970524251688,base_link,-0.0258597196141,0.0160108294776,-0.0587298964347,-0.997810466725,1.0,0.0,0.0,0.0,1.0,0.0,0.0,0.0,1.0,-0.103185385466,0.0121725564823,-0.0299817789346,1.21846967915e-07,0.0,0.0,0.0,1.21846967915e-07,0.0,0.0,0.0,1.21846967915e-07,0.4903325,0.7256921,9.2574776,9e-08,0.0,0.0,0.0,9e-08,0.0,0.0,0.0,9e-08
1539875970897897608,2568,1539875970897531560,base_link,0.00228052269203,0.0234474257417,-0.0493386259385,-0.998504240068,1.0,0.0,0.0,0.0,1.0,0.0,0.0,0.0,1.0,0.151279374957,0.0117926616222,-0.0320801958442,1.21846967915e-07,0.0,0.0,0.0,1.21846967915e-07,0.0,0.0,0.0,1.21846967915e-07,1.1179581,0.59820565,10.83634825,9e-08,0.0,0.0,0.0,9e-08,0.0,0.0,0.0,9e-08
1539875971217583944,2569,1539875971217258088,base_link,-0.030185971441,0.023866660535,-0.0446833936527,-0.998259777801,1.0,0.0,0.0,0.0,1.0,0.0,0.0,0.0,1.0,0.17911209166,0.00521588418633,0.0398633517325,1.21846967915e-07,0.0,0.0,0.0,1.21846967915e-07,0.0,0.0,0.0,1.21846967915e-07,0.91201845,-0.10787315,11.1599677,9e-08,0.0,0.0,0.0,9e-08,0.0,0.0,0.0,9e-08
1539875971586476584,2570,1539875971586265544,base_link,-0.0507103448183,0.0259017561628,-0.0563535017862,-0.996785755713,1.0,0.0,0.0,0.0,1.0,0.0,0.0,0.0,1.0,0.154743239284,-0.0497312135994,0.0783495157957,1.21846967915e-07,0.0,0.0,0.0,1.21846967915e-07,0.0,0.0,0.0,1.21846967915e-07,0.8237586,0.0392266,8.1199062,9e-08,0.0,0.0,0.0,9e-08,0.0,0.0,0.0,9e-08
1539875971941059976,2571,1539875971940826536,base_link,-0.0730890339531,0.0342807292216,-0.0715445528926,-0.994165077676,1.0,0.0,0.0,0.0,1.0,0.0,0.0,0.0,1.0,0.0373191833496,-0.0377537943423,0.0765957161784,1.21846967915e-07,0.0,0.0,0.0,1.21846967915e-07,0.0,0.0,0.0,1.21846967915e-07,0.87279185,0.392266,11.2384209,9e-08,0.0,0.0,0.0,9e-08,0.0,0.0,0.0,9e-08
1539875972260335880,2572,1539875972260043048,base_link,-0.0773177932297,0.0303059857452,-0.078319661226,-0.993463404834,1.0,0.0,0.0,0.0,1.0,0.0,0.0,0.0,1.0,0.0464164689183,0.0840149596334,-0.0416880659759,1.21846967915e-07,0.0,0.0,0.0,1.21846967915e-07,0.0,0.0,0.0,1.21846967915e-07,0.7453054,1.16699135,9.4339973,9e-08,0.0,0.0,0.0,9e-08,0.0,0.0,0.0,9e-08
1539875972630512136,2573,1539875972630291656,base_link,-0.0625314073252,0.0182693909545,-0.0563833720356,-0.996281570546,1.0,0.0,0.0,0.0,1.0,0.0,0.0,0.0,1.0,-0.188892036676,-0.00605043955147,-0.123304739594,1.21846967915e-07,0.0,0.0,0.0,1.21846967915e-07,0.0,0.0,0.0,1.21846967915e-07,0.55897905,0.5491724,8.93385815,9e-08,0.0,0.0,0.0,9e-08,0.0,0.0,0.0,9e-08
1539875973124717448,2574,1539875973123714600,base_link,-0.0325303859983,0.0122174190107,-0.0369517383646,-0.998712710288,1.0,0.0,0.0,0.0,1.0,0.0,0.0,0.0,1.0,0.00317189469934,0.00323788402602,-0.0915905237198,1.21846967915e-07,0.0,0.0,0.0,1.21846967915e-07,0.0,0.0,0.0,1.21846967915e-07,0.73549875,0.784532,9.99297635,9e-08,0.0,0.0,0.0,9e-08,0.0,0.0,0.0,9e-08
1539875973558292232,2575,1539875973556079720,base_link,-0.0551572198819,0.0125041841243,-0.0215391314118,-0.998167016231,1.0,0.0,0.0,0.0,1.0,0.0,0.0,0.0,1.0,0.12228000164,-0.0170792080462,-0.0704217627645,1.21846967915e-07,0.0,0.0,0.0,1.21846967915e-07,0.0,0.0,0.0,1.21846967915e-07,0.9610517,0.08825985,12.1994726,9e-08,0.0,0.0,0.0,9e-08,0.0,0.0,0.0,9e-08
1539875973911705704,2576,1539875973911218728,base_link,-0.0564306574745,0.0169061957332,-0.0320237336589,-0.997749588787,1.0,0.0,0.0,0.0,1.0,0.0,0.0,0.0,1.0,-0.138288319111,0.0198860689998,0.0394558943808,1.21846967915e-07,0.0,0.0,0.0,1.21846967915e-07,0.0,0.0,0.0,1.21846967915e-07,0.5687857,0.18632635,9.1201845,9e-08,0.0,0.0,0.0,9e-08,0.0,0.0,0.0,9e-08
1539875974370110408,2577,1539875974369756456,base_link,-0.055620965845,0.0171179670679,-0.0342490788284,-0.997717537162,1.0,0.0,0.0,0.0,1.0,0.0,0.0,0.0,1.0,0.208135023713,0.0260162968189,0.0149632822722,1.21846967915e-07,0.0,0.0,0.0,1.21846967915e-07,0.0,0.0,0.0,1.21846967915e-07,0.75511205,0.5491724,9.414384,9e-08,0.0,0.0,0.0,9e-08,0.0,0.0,0.0,9e-08
1539875974825117000,2578,1539875974824844712,base_link,-0.0325713203257,0.0198005898814,-0.0273657377445,-0.998898474386,1.0,0.0,0.0,0.0,1.0,0.0,0.0,0.0,1.0,-0.169583514333,-0.0263459347188,-0.0744423344731,1.21846967915e-07,0.0,0.0,0.0,1.21846967915e-07,0.0,0.0,0.0,1.21846967915e-07,0.97085835,0.51975245,9.2378643,9e-08,0.0,0.0,0.0,9e-08,0.0,0.0,0.0,9e-08
1539875975107737288,2579,1539875975107466152,base_link,-0.0578520480983,0.023616321262,-0.018593211328,-0.997872588256,1.0,0.0,0.0,0.0,1.0,0.0,0.0,0.0,1.0,0.345567405224,-0.0881603509188,-0.0256799366325,1.21846967915e-07,0.0,0.0,0.0,1.21846967915e-07,0.0,0.0,0.0,1.21846967915e-07,1.08853815,0.5687857,12.34657235,9e-08,0.0,0.0,0.0,9e-08,0.0,0.0,0.0,9e-08
1539875975531617224,2580,1539875975531258152,base_link,-0.0705576533693,0.0281997379422,-0.00696636985478,-0.99708468147,1.0,0.0,0.0,0.0,1.0,0.0,0.0,0.0,1.0,0.285287082195,-0.0309890657663,-0.079380273819,1.21846967915e-07,0.0,0.0,0.0,1.21846967915e-07,0.0,0.0,0.0,1.21846967915e-07,1.1375714,0.38245935,10.34601575,9e-08,0.0,0.0,0.0,9e-08,0.0,0.0,0.0,9e-08
1539875975808585352,2581,1539875975808383688,base_link,-0.108301147338,0.0342981363227,-0.00600059253739,-0.993508174209,1.0,0.0,0.0,0.0,1.0,0.0,0.0,0.0,1.0,0.0651774704456,-0.0441228933632,0.0785328447819,1.21846967915e-07,0.0,0.0,0.0,1.21846967915e-07,0.0,0.0,0.0,1.21846967915e-07,1.4317709,0.57859235,12.42502555,9e-08,0.0,0.0,0.0,9e-08,0.0,0.0,0.0,9e-08
1539875976089585512,2582,1539875976089206024,base_link,-0.107918860511,0.0431187122125,-0.0160348256749,-0.993094749039,1.0,0.0,0.0,0.0,1.0,0.0,0.0,0.0,1.0,-0.103037565947,-0.034659832716,0.0634083226323,1.21846967915e-07,0.0,0.0,0.0,1.21846967915e-07,0.0,0.0,0.0,1.21846967915e-07,1.6475172,0.83356525,13.533177,9e-08,0.0,0.0,0.0,9e-08,0.0,0.0,0.0,9e-08
1539875976559968616,2583,1539875976559664840,base_link,-0.0727005441342,0.0478019873544,-0.00683067724967,-0.996184191169,1.0,0.0,0.0,0.0,1.0,0.0,0.0,0.0,1.0,-0.0889715850353,-0.0281438976526,-0.0447182320058,1.21846967915e-07,0.0,0.0,0.0,1.21846967915e-07,0.0,0.0,0.0,1.21846967915e-07,1.3533177,1.0395049,12.30734575,9e-08,0.0,0.0,0.0,9e-08,0.0,0.0,0.0,9e-08
1539875976879650728,2584,1539875976879188968,base_link,-0.0269813222314,0.0423134084025,0.00370207672964,-0.998733136703,1.0,0.0,0.0,0.0,1.0,0.0,0.0,0.0,1.0,-0.398370414972,0.10051549226,-0.0779622197151,1.21846967915e-07,0.0,0.0,0.0,1.21846967915e-07,0.0,0.0,0.0,1.21846967915e-07,0.57859235,0.8237586,9.63993695,9e-08,0.0,0.0,0.0,9e-08,0.0,0.0,0.0,9e-08
1539875977332426088,2585,1539875977331016808,base_link,0.0225805442138,0.0246559223983,0.006636954792,-0.999418908839,1.0,0.0,0.0,0.0,1.0,0.0,0.0,0.0,1.0,-0.173156142235,0.0364040657878,0.0982941016555,1.21846967915e-07,0.0,0.0,0.0,1.21846967915e-07,0.0,0.0,0.0,1.21846967915e-07,0.3530394,0.46091255,8.44352565,9e-08,0.0,0.0,0.0,9e-08,0.0,0.0,0.0,9e-08
1539875977816504488,2586,1539875977816075368,base_link,0.0194025388245,0.00798927784689,-0.00962689930538,-0.999733482352,1.0,0.0,0.0,0.0,1.0,0.0,0.0,0.0,1.0,0.0852644890547,0.058708820492,0.0609763264656,1.21846967915e-07,0.0,0.0,0.0,1.21846967915e-07,0.0,0.0,0.0,1.21846967915e-07,0.2745862,0.38245935,8.60043205,9e-08,0.0,0.0,0.0,9e-08,0.0,0.0,0.0,9e-08
1539875977989591720,2587,1539875977988936840,base_link,0.0138089452222,0.00141558326499,-0.0135159984224,-0.999812295855,1.0,0.0,0.0,0.0,1.0,0.0,0.0,0.0,1.0,0.0984958484769,0.0746709853411,0.0540712177753,1.21846967915e-07,0.0,0.0,0.0,1.21846967915e-07,0.0,0.0,0.0,1.21846967915e-07,0.0196133,0.4118793,8.1199062,9e-08,0.0,0.0,0.0,9e-08,0.0,0.0,0.0,9e-08
1539875978404901736,2588,1539875978402887176,base_link,-0.00121895089837,-0.0142187771028,-0.0265549393552,-0.999545484574,1.0,0.0,0.0,0.0,1.0,0.0,0.0,0.0,1.0,0.211135596037,0.0380568094552,0.0186759252101,1.21846967915e-07,0.0,0.0,0.0,1.21846967915e-07,0.0,0.0,0.0,1.21846967915e-07,0.06864655,0.44129925,8.3944924,9e-08,0.0,0.0,0.0,9e-08,0.0,0.0,0.0,9e-08
1539875978759593928,2589,1539875978759011720,base_link,-0.0692726838208,-0.0228379527377,-0.0258623828975,-0.997000932969,1.0,0.0,0.0,0.0,1.0,0.0,0.0,0.0,1.0,0.60883051157,0.0337113663554,0.0332475230098,1.21846967915e-07,0.0,0.0,0.0,1.21846967915e-07,0.0,0.0,0.0,1.21846967915e-07,0.08825985,0.14709975,8.8652116,9e-08,0.0,0.0,0.0,9e-08,0.0,0.0,0.0,9e-08
1539875979131614312,2590,1539875979130994952,base_link,-0.108529034736,-0.0249935399117,-0.0250987214898,-0.993462040423,1.0,0.0,0.0,0.0,1.0,0.0,0.0,0.0,1.0,0.0770581066608,-0.0158437807113,-0.0524471141398,1.21846967915e-07,0.0,0.0,0.0,1.21846967915e-07,0.0,0.0,0.0,1.21846967915e-07,0.4903325,0.87279185,10.002783,9e-08,0.0,0.0,0.0,9e-08,0.0,0.0,0.0,9e-08
1539875979554090568,2591,1539875979553652584,base_link,-0.177484141605,-0.0289973550722,0.0163457329826,-0.98356054714,1.0,0.0,0.0,0.0,1.0,0.0,0.0,0.0,1.0,0.515327215195,-0.059543851763,-0.218673437834,1.21846967915e-07,0.0,0.0,0.0,1.21846967915e-07,0.0,0.0,0.0,1.21846967915e-07,0.44129925,0.6472389,9.8851032,9e-08,0.0,0.0,0.0,9e-08,0.0,0.0,0.0,9e-08
1539875979966765224,2592,1539875979966160424,base_link,-0.290798287758,-0.0106299499233,0.065355913551,-0.954490421411,1.0,0.0,0.0,0.0,1.0,0.0,0.0,0.0,1.0,0.663484156132,-0.171280294657,-0.248247593641,1.21846967915e-07,0.0,0.0,0.0,1.21846967915e-07,0.0,0.0,0.0,1.21846967915e-07,0.5687857,0.57859235,9.5909037,9e-08,0.0,0.0,0.0,9e-08,0.0,0.0,0.0,9e-08
1539875980386095592,2593,1539875980383920360,base_link,-0.335519155821,0.0335103477213,0.134176535967,-0.931826491289,1.0,0.0,0.0,0.0,1.0,0.0,0.0,0.0,1.0,0.00945881940424,-0.34975579381,-0.241587668657,1.21846967915e-07,0.0,0.0,0.0,1.21846967915e-07,0.0,0.0,0.0,1.21846967915e-07,1.28467115,1.1571847,13.24878415,9e-08,0.0,0.0,0.0,9e-08,0.0,0.0,0.0,9e-08
1539875980726929832,2594,1539875980726537864,base_link,-0.324606359985,0.0655760584018,0.207753252551,-0.920417882093,1.0,0.0,0.0,0.0,1.0,0.0,0.0,0.0,1.0,0.00678661186248,-0.306866854429,-0.40439710021,1.21846967915e-07,0.0,0.0,0.0,1.21846967915e-07,0.0,0.0,0.0,1.21846967915e-07,1.3337044,1.16699135,14.4353888,9e-08,0.0,0.0,0.0,9e-08,0.0,0.0,0.0,9e-08
1539875981298906312,2595,1539875981298545832,base_link,-0.342026910885,0.13211827266,0.319407267783,-0.873808532545,1.0,0.0,0.0,0.0,1.0,0.0,0.0,0.0,1.0,0.16338481009,-0.379336923361,-0.230169162154,1.21846967915e-07,0.0,0.0,0.0,1.21846967915e-07,0.0,0.0,0.0,1.21846967915e-07,1.4709975,1.48080415,15.77889985,9e-08,0.0,0.0,0.0,9e-08,0.0,0.0,0.0,9e-08
1539875981661060840,2596,1539875981660718920,base_link,-0.31804885705,0.16486747296,0.390344057278,-0.848112703499,1.0,0.0,0.0,0.0,1.0,0.0,0.0,0.0,1.0,0.142898753285,-0.317454308271,-0.334072321653,1.21846967915e-07,0.0,0.0,0.0,1.21846967915e-07,0.0,0.0,0.0,1.21846967915e-07,1.7848103,0.9022118,13.5135637,9e-08,0.0,0.0,0.0,9e-08,0.0,0.0,0.0,9e-08
1539875982082986440,2597,1539875982082758472,base_link,-0.307532616522,0.211428405992,0.463288558537,-0.803794395629,1.0,0.0,0.0,0.0,1.0,0.0,0.0,0.0,1.0,-0.00424706190825,-0.340941727161,-0.229930639267,1.21846967915e-07,0.0,0.0,0.0,1.21846967915e-07,0.0,0.0,0.0,1.21846967915e-07,1.765197,0.81395195,18.0246227,9e-08,0.0,0.0,0.0,9e-08,0.0,0.0,0.0,9e-08
1539875982504662312,2598,1539875982504073928,base_link,-0.295811356442,0.245418501401,0.522512448595,-0.761082217394,1.0,0.0,0.0,0.0,1.0,0.0,0.0,0.0,1.0,0.229470089078,-0.227900311351,-0.368572592735,1.21846967915e-07,0.0,0.0,0.0,1.21846967915e-07,0.0,0.0,0.0,1.21846967915e-07,1.22583125,1.18660465,11.3364874,9e-08,0.0,0.0,0.0,9e-08,0.0,0.0,0.0,9e-08
1539875982821961096,2599,1539875982819330632,base_link,-0.290413593887,0.274704814756,0.569897937241,-0.717923081092,1.0,0.0,0.0,0.0,1.0,0.0,0.0,0.0,1.0,0.0478045791388,-0.334769666195,-0.169341936707,1.21846967915e-07,0.0,0.0,0.0,1.21846967915e-07,0.0,0.0,0.0,1.21846967915e-07,0.980665,0.51975245,11.85623985,9e-08,0.0,0.0,0.0,9e-08,0.0,0.0,0.0,9e-08
1539875983142399624,2600,1539875983141655016,base_link,-0.230801813468,0.266825736754,0.619443783275,-0.701301610199,1.0,0.0,0.0,0.0,1.0,0.0,0.0,0.0,1.0,-0.398546934128,-0.206589877605,-0.245684653521,1.21846967915e-07,0.0,0.0,0.0,1.21846967915e-07,0.0,0.0,0.0,1.21846967915e-07,0.97085835,0.91201845,11.1991943,9e-08,0.0,0.0,0.0,9e-08,0.0,0.0,0.0,9e-08
1539875983614712936,2601,1539875983614313480,base_link,0.168828002842,-0.217215107293,-0.699044445564,0.660039063803,1.0,0.0,0.0,0.0,1.0,0.0,0.0,0.0,1.0,-0.129358634353,-0.0691833421588,-0.422136366367,1.21846967915e-07,0.0,0.0,0.0,1.21846967915e-07,0.0,0.0,0.0,1.21846967915e-07,0.28439285,0.73549875,9.71839015,9e-08,0.0,0.0,0.0,9e-08,0.0,0.0,0.0,9e-08
1539875983987335144,2602,1539875983986963944,base_link,0.168377473992,-0.213735494067,-0.749066769693,0.604040676917,1.0,0.0,0.0,0.0,1.0,0.0,0.0,0.0,1.0,-0.222846910357,-0.103444442153,-0.31605681777,1.21846967915e-07,0.0,0.0,0.0,1.21846967915e-07,0.0,0.0,0.0,1.21846967915e-07,0.3530394,0.77472535,9.60071035,9e-08,0.0,0.0,0.0,9e-08,0.0,0.0,0.0,9e-08
1539875984457051720,2603,1539875984456815560,base_link,0.132918335713,-0.189499196901,-0.795315674606,0.560263998603,1.0,0.0,0.0,0.0,1.0,0.0,0.0,0.0,1.0,-0.335362762213,-0.0765634253621,-0.173481419683,1.21846967915e-07,0.0,0.0,0.0,1.21846967915e-07,0.0,0.0,0.0,1.21846967915e-07,0.4118793,0.7060788,9.09076455,9e-08,0.0,0.0,0.0,9e-08,0.0,0.0,0.0,9e-08
1539875984867030856,2604,1539875984866205896,base_link,0.0809002678855,-0.143107663151,-0.833557082669,0.527406800615,1.0,0.0,0.0,0.0,1.0,0.0,0.0,0.0,1.0,-0.305287778378,-0.160672903061,-0.217773288488,1.21846967915e-07,0.0,0.0,0.0,1.21846967915e-07,0.0,0.0,0.0,1.21846967915e-07,0.9022118,0.69627215,16.87724465,9e-08,0.0,0.0,0.0,9e-08,0.0,0.0,0.0,9e-08
1539875985279090696,2605,1539875985278587048,base_link,0.0196782821222,-0.0846530264078,-0.851763729701,0.516667377622,1.0,0.0,0.0,0.0,1.0,0.0,0.0,0.0,1.0,-0.23609867692,-0.0508002266288,-0.0534483119845,1.21846967915e-07,0.0,0.0,0.0,1.21846967915e-07,0.0,0.0,0.0,1.21846967915e-07,0.30400615,0.50013915,13.71950335,9e-08,0.0,0.0,0.0,9e-08,0.0,0.0,0.0,9e-08
1539875985790993096,2606,1539875985790779944,base_link,-0.019282731605,0.00542844284307,-0.856391755487,0.515937854208,1.0,0.0,0.0,0.0,1.0,0.0,0.0,0.0,1.0,-0.393425107002,0.145017400384,-0.0591784007847,1.21846967915e-07,0.0,0.0,0.0,1.21846967915e-07,0.0,0.0,0.0,1.21846967915e-07,-1.18660465,-0.00980665,9.1986377,9e-08,0.0,0.0,0.0,9e-08,0.0,0.0,0.0,9e-08
1539875986257495944,2607,1539875986257269384,base_link,-0.00865490787062,0.0616665368494,-0.846293255661,0.529065266509,1.0,0.0,0.0,0.0,1.0,0.0,0.0,0.0,1.0,-0.0983063578606,0.211489722133,0.151555001736,1.21846967915e-07,0.0,0.0,0.0,1.21846967915e-07,0.0,0.0,0.0,1.21846967915e-07,-1.12776475,0.22555295,6.4331624,9e-08,0.0,0.0,0.0,9e-08,0.0,0.0,0.0,9e-08
1539875986590844808,2608,1539875986590601064,base_link,0.0145646774154,0.0846088024217,-0.827133799492,0.555408767002,1.0,0.0,0.0,0.0,1.0,0.0,0.0,0.0,1.0,-0.0839567035437,0.162179663777,0.188640043139,1.21846967915e-07,0.0,0.0,0.0,1.21846967915e-07,0.0,0.0,0.0,1.21846967915e-07,-1.12776475,0.24516625,7.89435325,9e-08,0.0,0.0,0.0,9e-08,0.0,0.0,0.0,9e-08
1539875986978426792,2609,1539875986974939976,base_link,0.0225511399277,0.130475069457,-0.809713094324,0.571692581041,1.0,0.0,0.0,0.0,1.0,0.0,0.0,0.0,1.0,-0.145136222243,0.112555712461,0.0444538109004,1.21846967915e-07,0.0,0.0,0.0,1.21846967915e-07,0.0,0.0,0.0,1.21846967915e-07,-1.2552512,0.44129925,6.69794195,9e-08,0.0,0.0,0.0,9e-08,0.0,0.0,0.0,9e-08
1539875987417778024,2610,1539875987417440168,base_link,0.0227282829113,0.157160443553,-0.794719145039,0.585837435341,1.0,0.0,0.0,0.0,1.0,0.0,0.0,0.0,1.0,-0.102221213281,0.0112218633294,0.131588354707,1.21846967915e-07,0.0,0.0,0.0,1.21846967915e-07,0.0,0.0,0.0,1.21846967915e-07,-1.3925443,0.00980665,8.91424485,9e-08,0.0,0.0,0.0,9e-08,0.0,0.0,0.0,9e-08
1539875987737545960,2611,1539875987736761192,base_link,0.0271680915697,0.154979083187,-0.785954252567,0.597929169256,1.0,0.0,0.0,0.0,1.0,0.0,0.0,0.0,1.0,0.0159441791475,0.063453130424,0.100254826248,1.21846967915e-07,0.0,0.0,0.0,1.21846967915e-07,0.0,0.0,0.0,1.21846967915e-07,-1.36312435,0.12748645,6.5312289,9e-08,0.0,0.0,0.0,9e-08,0.0,0.0,0.0,9e-08
1539875988083702312,2612,1539875988083457608,base_link,0.0374542355285,0.131208663664,-0.778252247026,0.612947719483,1.0,0.0,0.0,0.0,1.0,0.0,0.0,0.0,1.0,0.205296933651,-0.100706681609,0.0799058303237,1.21846967915e-07,0.0,0.0,0.0,1.21846967915e-07,0.0,0.0,0.0,1.21846967915e-07,-1.4513842,0.04903325,9.1397978,9e-08,0.0,0.0,0.0,9e-08,0.0,0.0,0.0,9e-08
1539875988386848136,2613,1539875988386484968,base_link,0.0430797550117,0.101753599574,-0.769379144835,0.629162992535,1.0,0.0,0.0,0.0,1.0,0.0,0.0,0.0,1.0,0.134957715869,-0.117407053709,0.172146260738,1.21846967915e-07,0.0,0.0,0.0,1.21846967915e-07,0.0,0.0,0.0,1.21846967915e-07,-1.36312435,-0.0392266,9.8851032,9e-08,0.0,0.0,0.0,9e-08,0.0,0.0,0.0,9e-08
1539875988777257448,2614,1539875988776570440,base_link,0.0315582086224,0.077428223491,-0.749729085307,0.656441351775,1.0,0.0,0.0,0.0,1.0,0.0,0.0,0.0,1.0,0.079368814826,-0.14463417232,0.0970453545451,1.21846967915e-07,0.0,0.0,0.0,1.21846967915e-07,0.0,0.0,0.0,1.21846967915e-07,-1.1964113,0.1176798,12.11121275,9e-08,0.0,0.0,0.0,9e-08,0.0,0.0,0.0,9e-08
1539875988997408200,2615,1539875988997193480,base_link,0.026083023107,0.0672510721085,-0.742853659764,0.66555646596,1.0,0.0,0.0,0.0,1.0,0.0,0.0,0.0,1.0,-0.0824922844768,-0.0973243713379,0.107957057655,1.21846967915e-07,0.0,0.0,0.0,1.21846967915e-07,0.0,0.0,0.0,1.21846967915e-07,-1.22583125,0.196133,12.5917386,9e-08,0.0,0.0,0.0,9e-08,0.0,0.0,0.0,9e-08
1539875989421090760,2616,1539875989420865512,base_link,-0.00358936387272,0.069550917946,-0.731366874978,0.678418956446,1.0,0.0,0.0,0.0,1.0,0.0,0.0,0.0,1.0,-0.0712877362967,-0.0875149816275,-0.0076937219128,1.21846967915e-07,0.0,0.0,0.0,1.21846967915e-07,0.0,0.0,0.0,1.21846967915e-07,-1.18660465,0.46091255,11.03248125,9e-08,0.0,0.0,0.0,9e-08,0.0,0.0,0.0,9e-08
1539875989812661288,2617,1539875989812241736,base_link,-0.0100702319925,0.0519994576089,-0.732865552731,0.678308726507,1.0,0.0,0.0,0.0,1.0,0.0,0.0,0.0,1.0,0.140716612339,-0.0964431017637,-0.0238500386477,1.21846967915e-07,0.0,0.0,0.0,1.21846967915e-07,0.0,0.0,0.0,1.21846967915e-07,-1.176798,1.38952026905e-15,11.34629405,9e-08,0.0,0.0,0.0,9e-08,0.0,0.0,0.0,9e-08
1539875990181128200,2618,1539875990180632776,base_link,0.00237726149665,0.0108302489649,-0.73108366182,0.682197723358,1.0,0.0,0.0,0.0,1.0,0.0,0.0,0.0,1.0,0.0680226832628,-0.0975264087319,0.0662470981479,1.21846967915e-07,0.0,0.0,0.0,1.21846967915e-07,0.0,0.0,0.0,1.21846967915e-07,-1.0983448,0.00980665,11.8660465,9e-08,0.0,0.0,0.0,9e-08,0.0,0.0,0.0,9e-08
1539875990613523592,2619,1539875990613136424,base_link,0.00011717432578,-0.0140277785591,-0.717348852073,0.696572919462,1.0,0.0,0.0,0.0,1.0,0.0,0.0,0.0,1.0,0.0130930012092,-0.0533328838646,0.0840916112065,1.21846967915e-07,0.0,0.0,0.0,1.21846967915e-07,0.0,0.0,0.0,1.21846967915e-07,-0.91201845,0.5687857,11.69933345,9e-08,0.0,0.0,0.0,9e-08,0.0,0.0,0.0,9e-08
1539875990927355304,2620,1539875990926770568,base_link,0.0112960135742,-0.0280923572055,-0.713982412268,0.699508637914,1.0,0.0,0.0,0.0,1.0,0.0,0.0,0.0,1.0,0.23173186183,0.000717296265066,-0.00630164332688,1.21846967915e-07,0.0,0.0,0.0,1.21846967915e-07,0.0,0.0,0.0,1.21846967915e-07,-1.0002783,0.26477955,9.5909037,9e-08,0.0,0.0,0.0,9e-08,0.0,0.0,0.0,9e-08
1539875991512542312,2621,1539875991512338728,base_link,0.0689627224835,-0.0986665807671,-0.713116017852,0.690633472857,1.0,0.0,0.0,0.0,1.0,0.0,0.0,0.0,1.0,0.296970844269,-0.0131195802242,-0.0794606208801,1.21846967915e-07,0.0,0.0,0.0,1.21846967915e-07,0.0,0.0,0.0,1.21846967915e-07,-0.9414384,-0.1569064,10.5715687,9e-08,0.0,0.0,0.0,9e-08,0.0,0.0,0.0,9e-08
1539875991902814088,2622,1539875991902547976,base_link,0.0916794555666,-0.131838787772,-0.712226663683,0.683334903986,1.0,0.0,0.0,0.0,1.0,0.0,0.0,0.0,1.0,0.165040239692,-0.0393560230732,-0.0585452914238,1.21846967915e-07,0.0,0.0,0.0,1.21846967915e-07,0.0,0.0,0.0,1.21846967915e-07,-0.79433865,0.6668522,11.2776475,9e-08,0.0,0.0,0.0,9e-08,0.0,0.0,0.0,9e-08
1539875992288029608,2623,1539875992287610376,base_link,0.112900569112,-0.149887227261,-0.729490498261,0.657746830889,1.0,0.0,0.0,0.0,1.0,0.0,0.0,0.0,1.0,0.00279802270234,0.0151589242741,-0.191437408328,1.21846967915e-07,0.0,0.0,0.0,1.21846967915e-07,0.0,0.0,0.0,1.21846967915e-07,-0.63743225,0.32361945,9.58109705,9e-08,0.0,0.0,0.0,9e-08,0.0,0.0,0.0,9e-08
1539875992724683496,2624,1539875992724149224,base_link,0.115197752147,-0.140508607904,-0.761496792668,0.622181198496,1.0,0.0,0.0,0.0,1.0,0.0,0.0,0.0,1.0,-0.216249167919,-0.0361619144678,-0.304613351822,1.21846967915e-07,0.0,0.0,0.0,1.21846967915e-07,0.0,0.0,0.0,1.21846967915e-07,-0.8237586,0.4707192,9.9243298,9e-08,0.0,0.0,0.0,9e-08,0.0,0.0,0.0,9e-08
1539875993180477384,2625,1539875993180039208,base_link,0.127055384896,-0.15129146449,-0.806336353863,0.557484983098,1.0,0.0,0.0,0.0,1.0,0.0,0.0,0.0,1.0,0.307054966688,-0.0949437171221,-0.321883767843,1.21846967915e-07,0.0,0.0,0.0,1.21846967915e-07,0.0,0.0,0.0,1.21846967915e-07,-0.63743225,0.2157463,9.99297635,9e-08,0.0,0.0,0.0,9e-08,0.0,0.0,0.0,9e-08
1539875993627862472,2626,1539875993627596232,base_link,0.135999577786,-0.194334679082,-0.834786436715,0.496859892147,1.0,0.0,0.0,0.0,1.0,0.0,0.0,0.0,1.0,0.0189551319927,-0.152687862515,-0.252060323954,1.21846967915e-07,0.0,0.0,0.0,1.21846967915e-07,0.0,0.0,0.0,1.21846967915e-07,-0.26477955,0.38245935,10.69905515,9e-08,0.0,0.0,0.0,9e-08,0.0,0.0,0.0,9e-08
1539875994017597384,2627,1539875994017337608,base_link,0.112498660976,-0.183623129669,-0.866854117708,0.4496560198,1.0,0.0,0.0,0.0,1.0,0.0,0.0,0.0,1.0,-0.166359260678,-0.119142398238,-0.273495167494,1.21846967915e-07,0.0,0.0,0.0,1.21846967915e-07,0.0,0.0,0.0,1.21846967915e-07,-0.4903325,0.55897905,9.8262633,9e-08,0.0,0.0,0.0,9e-08,0.0,0.0,0.0,9e-08
1539875994407510824,2628,1539875994407206056,base_link,0.112516687848,-0.214403306299,-0.890905734083,0.384263178281,1.0,0.0,0.0,0.0,1.0,0.0,0.0,0.0,1.0,0.389506042004,-0.174545586109,-0.350340932608,1.21846967915e-07,0.0,0.0,0.0,1.21846967915e-07,0.0,0.0,0.0,1.21846967915e-07,0.00980665,0.2745862,11.8268199,9e-08,0.0,0.0,0.0,9e-08,0.0,0.0,0.0,9e-08
1539875994822994568,2629,1539875994822730760,base_link,0.0897591186324,-0.220729384842,-0.921397288813,0.306999797163,1.0,0.0,0.0,0.0,1.0,0.0,0.0,0.0,1.0,-0.29310721159,-0.222803235054,-0.37749683857,1.21846967915e-07,0.0,0.0,0.0,1.21846967915e-07,0.0,0.0,0.0,1.21846967915e-07,0.0392266,0.4118793,11.7287534,9e-08,0.0,0.0,0.0,9e-08,0.0,0.0,0.0,9e-08
1539875995272255080,2630,1539875995271701896,base_link,0.0522716327349,-0.185819608138,-0.955317495538,0.223846448179,1.0,0.0,0.0,0.0,1.0,0.0,0.0,0.0,1.0,-0.0433069393039,-0.144094705582,-0.327351391315,1.21846967915e-07,0.0,0.0,0.0,1.21846967915e-07,0.0,0.0,0.0,1.21846967915e-07,0.1765197,0.0784532,11.1011278,9e-08,0.0,0.0,0.0,9e-08,0.0,0.0,0.0,9e-08
1539875995627659336,2631,1539875995627366184,base_link,0.0408507457788,-0.194544394186,-0.964167726991,0.175682353952,1.0,0.0,0.0,0.0,1.0,0.0,0.0,0.0,1.0,-0.0321437083185,-0.120343126357,-0.237714141607,1.21846967915e-07,0.0,0.0,0.0,1.21846967915e-07,0.0,0.0,0.0,1.21846967915e-07,0.0392266,0.2353596,10.71866845,9e-08,0.0,0.0,0.0,9e-08,0.0,0.0,0.0,9e-08
1539875996041178472,2632,1539875996040808104,base_link,0.0159902202101,-0.161264020892,-0.978899562962,0.124474391168,1.0,0.0,0.0,0.0,1.0,0.0,0.0,0.0,1.0,-0.224517419934,-0.119088672101,-0.232802227139,1.21846967915e-07,0.0,0.0,0.0,1.21846967915e-07,0.0,0.0,0.0,1.21846967915e-07,0.12748645,0.34323275,10.42446895,9e-08,0.0,0.0,0.0,9e-08,0.0,0.0,0.0,9e-08
1539875996498327112,2633,1539875996497966504,base_link,0.00351788978502,-0.132913623063,-0.988936080361,0.0657801050185,1.0,0.0,0.0,0.0,1.0,0.0,0.0,0.0,1.0,0.0683124214411,-0.0643269047141,-0.247096970677,1.21846967915e-07,0.0,0.0,0.0,1.21846967915e-07,0.0,0.0,0.0,1.21846967915e-07,0.26477955,-0.06864655,10.2969825,9e-08,0.0,0.0,0.0,9e-08,0.0,0.0,0.0,9e-08
1539875996897663464,2634,1539875996897112648,base_link,0.000180149254445,-0.150392785508,-0.988290772371,0.0257551326891,1.0,0.0,0.0,0.0,1.0,0.0,0.0,0.0,1.0,-0.116938427091,-0.0321912057698,-0.196994632483,1.21846967915e-07,0.0,0.0,0.0,1.21846967915e-07,0.0,0.0,0.0,1.21846967915e-07,0.2941995,0.2157463,9.77723005,9e-08,0.0,0.0,0.0,9e-08,0.0,0.0,0.0,9e-08
1539875997218810728,2635,1539875997218291752,base_link,-0.00592918470586,-0.134321944646,-0.99089689156,-0.00676832710118,1.0,0.0,0.0,0.0,1.0,0.0,0.0,0.0,1.0,-0.173782542348,-0.0589097961783,-0.169564858079,1.21846967915e-07,0.0,0.0,0.0,1.21846967915e-07,0.0,0.0,0.0,1.21846967915e-07,0.40207265,0.02941995,10.4342756,9e-08,0.0,0.0,0.0,9e-08,0.0,0.0,0.0,9e-08
1539875997492703656,2636,1539875997492450504,base_link,-0.00892805888545,-0.0914183361563,-0.995380092428,-0.027954412493,1.0,0.0,0.0,0.0,1.0,0.0,0.0,0.0,1.0,-0.342851817608,-0.0435384362936,-0.157603293657,1.21846967915e-07,0.0,0.0,0.0,1.21846967915e-07,0.0,0.0,0.0,1.21846967915e-07,0.00980665,0.32361945,10.42446895,9e-08,0.0,0.0,0.0,9e-08,0.0,0.0,0.0,9e-08
1539875997913326184,2637,1539875997913043528,base_link,-0.0277767452555,-0.0376280475202,-0.996135587505,-0.0743402567228,1.0,0.0,0.0,0.0,1.0,0.0,0.0,0.0,1.0,-0.10148947686,-0.128633156419,-0.198981627822,1.21846967915e-07,0.0,0.0,0.0,1.21846967915e-07,0.0,0.0,0.0,1.21846967915e-07,0.1176798,0.04903325,10.26756255,9e-08,0.0,0.0,0.0,9e-08,0.0,0.0,0.0,9e-08
1539875998341612136,2638,1539875998341282824,base_link,-0.0472433444861,-0.0103395551282,-0.993607881448,-0.102002636857,1.0,0.0,0.0,0.0,1.0,0.0,0.0,0.0,1.0,-0.158592373133,-0.0505577214062,-0.0467100515962,1.21846967915e-07,0.0,0.0,0.0,1.21846967915e-07,0.0,0.0,0.0,1.21846967915e-07,0.26477955,-0.12748645,9.5712904,9e-08,0.0,0.0,0.0,9e-08,0.0,0.0,0.0,9e-08
1539875998725426344,2639,1539875998723643304,base_link,-0.0434068129937,0.000807998697091,-0.994615587205,-0.0941011658384,1.0,0.0,0.0,0.0,1.0,0.0,0.0,0.0,1.0,-0.0906278043985,0.0308356713504,0.135269463062,1.21846967915e-07,0.0,0.0,0.0,1.21846967915e-07,0.0,0.0,0.0,1.21846967915e-07,0.1765197,-0.0980665,8.237586,9e-08,0.0,0.0,0.0,9e-08,0.0,0.0,0.0,9e-08
1539875999220734472,2640,1539875999220339528,base_link,-0.0359735530158,0.00510160103427,-0.998263737912,-0.0463614788487,1.0,0.0,0.0,0.0,1.0,0.0,0.0,0.0,1.0,0.059830725193,-0.00580974854529,0.240775898099,1.21846967915e-07,0.0,0.0,0.0,1.21846967915e-07,0.0,0.0,0.0,1.21846967915e-07,0.50013915,0.0196133,8.89463155,9e-08,0.0,0.0,0.0,9e-08,0.0,0.0,0.0,9e-08
1539875999616580072,2641,1539875999616245256,base_link,-0.0332510148958,0.0505607611333,-0.998158969036,-0.00408068320199,1.0,0.0,0.0,0.0,1.0,0.0,0.0,0.0,1.0,-0.489429622889,0.0593619570136,0.162896752357,1.21846967915e-07,0.0,0.0,0.0,1.21846967915e-07,0.0,0.0,0.0,1.21846967915e-07,0.59820565,0.34323275,10.3558224,9e-08,0.0,0.0,0.0,9e-08,0.0,0.0,0.0,9e-08
1539876000121236328,2642,1539876000119630312,base_link,0.00748453434399,0.094509567141,-0.995434574113,-0.011042288025,1.0,0.0,0.0,0.0,1.0,0.0,0.0,0.0,1.0,0.359811842442,-0.033800624311,-0.034287571907,1.21846967915e-07,0.0,0.0,0.0,1.21846967915e-07,0.0,0.0,0.0,1.21846967915e-07,0.46091255,-0.4118793,10.67944185,9e-08,0.0,0.0,0.0,9e-08,0.0,0.0,0.0,9e-08
1539876000449944680,2643,1539876000449046632,base_link,-0.0106722962709,0.0219655180411,-0.999700701725,0.0014577657116,1.0,0.0,0.0,0.0,1.0,0.0,0.0,0.0,1.0,0.430368036032,-0.140770956874,0.14787837863,1.21846967915e-07,0.0,0.0,0.0,1.21846967915e-07,0.0,0.0,0.0,1.21846967915e-07,0.6276256,0.12748645,11.179581,9e-08,0.0,0.0,0.0,9e-08,0.0,0.0,0.0,9e-08
1539876000737978280,2644,1539876000737325224,base_link,-0.017437460518,-0.035677975381,-0.998650795852,0.0334604989094,1.0,0.0,0.0,0.0,1.0,0.0,0.0,0.0,1.0,0.355054974556,0.0173904001713,0.192236289382,1.21846967915e-07,0.0,0.0,0.0,1.21846967915e-07,0.0,0.0,0.0,1.21846967915e-07,0.59820565,0.3334261,10.83634825,9e-08,0.0,0.0,0.0,9e-08,0.0,0.0,0.0,9e-08
1539876001150462152,2645,1539876001149376680,base_link,-0.0227316850458,-0.0425470919694,-0.996622948413,0.0664508401542,1.0,0.0,0.0,0.0,1.0,0.0,0.0,0.0,1.0,-0.147053852677,-0.148010224104,0.045751221478,1.21846967915e-07,0.0,0.0,0.0,1.21846967915e-07,0.0,0.0,0.0,1.21846967915e-07,0.588399,0.73549875,10.52253545,9e-08,0.0,0.0,0.0,9e-08,0.0,0.0,0.0,9e-08
1539876001483465288,2646,1539876001483108936,base_link,-0.0412321934722,-0.0271639924158,-0.997607786604,0.048381069075,1.0,0.0,0.0,0.0,1.0,0.0,0.0,0.0,1.0,0.0665196403861,0.0110251782462,-0.172090768814,1.21846967915e-07,0.0,0.0,0.0,1.21846967915e-07,0.0,0.0,0.0,1.21846967915e-07,0.81395195,0.9414384,11.2776475,9e-08,0.0,0.0,0.0,9e-08,0.0,0.0,0.0,9e-08
1539876001877847112,2647,1539876001877451336,base_link,-0.013425962994,-0.0686799024525,-0.997350703201,0.0198592382049,1.0,0.0,0.0,0.0,1.0,0.0,0.0,0.0,1.0,0.215684011579,0.165166214108,-0.0872406512499,1.21846967915e-07,0.0,0.0,0.0,1.21846967915e-07,0.0,0.0,0.0,1.21846967915e-07,0.55897905,0.08825985,9.2770909,9e-08,0.0,0.0,0.0,9e-08,0.0,0.0,0.0,9e-08
1539876002214464552,2648,1539876002203869256,base_link,0.00934590850403,-0.0943675562103,-0.99537772692,0.0151854891769,1.0,0.0,0.0,0.0,1.0,0.0,0.0,0.0,1.0,0.111043080688,0.0457214340568,-0.0269447378814,1.21846967915e-07,0.0,0.0,0.0,1.21846967915e-07,0.0,0.0,0.0,1.21846967915e-07,0.24516625,0.20593965,9.1790244,9e-08,0.0,0.0,0.0,9e-08,0.0,0.0,0.0,9e-08
1539876002670981576,2649,1539876002670575080,base_link,-0.0646705588663,-0.0819961635635,-0.994417911496,-0.015078636281,1.0,0.0,0.0,0.0,1.0,0.0,0.0,0.0,1.0,-0.177648216486,-0.398031145334,-0.166469216347,1.21846967915e-07,0.0,0.0,0.0,1.21846967915e-07,0.0,0.0,0.0,1.21846967915e-07,0.8433719,0.4903325,11.20900095,9e-08,0.0,0.0,0.0,9e-08,0.0,0.0,0.0,9e-08
1539876002953377160,2650,1539876002953107624,base_link,-0.0749746207991,-0.0531634612436,-0.994802795065,-0.0438161106734,1.0,0.0,0.0,0.0,1.0,0.0,0.0,0.0,1.0,-0.204231277108,0.250535309315,-0.155037820339,1.21846967915e-07,0.0,0.0,0.0,1.21846967915e-07,0.0,0.0,0.0,1.21846967915e-07,0.5687857,0.32361945,8.99269805,9e-08,0.0,0.0,0.0,9e-08,0.0,0.0,0.0,9e-08
1539876003323733896,2651,1539876003323533800,base_link,-0.015644724399,-0.0498429440376,-0.996131062418,-0.0706670362646,1.0,0.0,0.0,0.0,1.0,0.0,0.0,0.0,1.0,0.0587432682514,0.131683111191,-0.131027579308,1.21846967915e-07,0.0,0.0,0.0,1.21846967915e-07,0.0,0.0,0.0,1.21846967915e-07,0.40207265,0.57859235,8.16893945,9e-08,0.0,0.0,0.0,9e-08,0.0,0.0,0.0,9e-08
1539876003780783656,2652,1539876003779876328,base_link,-0.025482019206,-0.076347374035,-0.992594030732,-0.0909881054353,1.0,0.0,0.0,0.0,1.0,0.0,0.0,0.0,1.0,0.0594395175576,0.0454205349088,-0.0286573506892,1.21846967915e-07,0.0,0.0,0.0,1.21846967915e-07,0.0,0.0,0.0,1.21846967915e-07,0.6668522,0.12748645,9.9831697,9e-08,0.0,0.0,0.0,9e-08,0.0,0.0,0.0,9e-08
1539876004117784488,2653,1539876004117527336,base_link,-0.0125224667099,-0.0806144358769,-0.992574271068,-0.0902264759848,1.0,0.0,0.0,0.0,1.0,0.0,0.0,0.0,1.0,0.00411762669683,0.0239032134414,0.0410518944263,1.21846967915e-07,0.0,0.0,0.0,1.21846967915e-07,0.0,0.0,0.0,1.21846967915e-07,0.51975245,0.14709975,9.0025047,9e-08,0.0,0.0,0.0,9e-08,0.0,0.0,0.0,9e-08
1539876004553175496,2654,1539876004552639400,base_link,-0.0307437178708,-0.041095592226,-0.993657620312,-0.100052534738,1.0,0.0,0.0,0.0,1.0,0.0,0.0,0.0,1.0,-0.363456875086,-0.220886304975,-0.126285687089,1.21846967915e-07,0.0,0.0,0.0,1.21846967915e-07,0.0,0.0,0.0,1.21846967915e-07,0.6864655,0.4511059,11.32668075,9e-08,0.0,0.0,0.0,9e-08,0.0,0.0,0.0,9e-08
