%time,field.header.seq,field.header.stamp,field.header.frame_id,field.orientation.x,field.orientation.y,field.orientation.z,field.orientation.w,field.orientation_covariance0,field.orientation_covariance1,field.orientation_covariance2,field.orientation_covariance3,field.orientation_covariance4,field.orientation_covariance5,field.orientation_covariance6,field.orientation_covariance7,field.orientation_covariance8,field.angular_velocity.x,field.angular_velocity.y,field.angular_velocity.z,field.angular_velocity_covariance0,field.angular_velocity_covariance1,field.angular_velocity_covariance2,field.angular_velocity_covariance3,field.angular_velocity_covariance4,field.angular_velocity_covariance5,field.angular_velocity_covariance6,field.angular_velocity_covariance7,field.angular_velocity_covariance8,field.linear_acceleration.x,field.linear_acceleration.y,field.linear_acceleration.z,field.linear_acceleration_covariance0,field.linear_acceleration_covariance1,field.linear_acceleration_covariance2,field.linear_acceleration_covariance3,field.linear_acceleration_covariance4,field.linear_acceleration_covariance5,field.linear_acceleration_covariance6,field.linear_acceleration_covariance7,field.linear_acceleration_covariance8
1536693419595063032,5888,1536693419594754648,base_link,-0.0205278198474,-0.206202629507,-0.965167140525,-0.159723119954,1.0,0.0,0.0,0.0,1.0,0.0,0.0,0.0,1.0,0.445257216692,-0.0378336161375,-0.0779216960073,1.21846967915e-07,0.0,0.0,0.0,1.21846967915e-07,0.0,0.0,0.0,1.21846967915e-07,0.0,0.65704555,9.80665,9e-08,0.0,0.0,0.0,9e-08,0.0,0.0,0.0,9e-08
1536693419964237432,5889,1536693419963276824,base_link,-0.0282388279814,-0.265039137406,-0.94476456752,-0.190726862808,1.0,0.0,0.0,0.0,1.0,0.0,0.0,0.0,1.0,0.215527176857,-0.0359600000083,-0.248873218894,1.21846967915e-07,0.0,0.0,0.0,1.21846967915e-07,0.0,0.0,0.0,1.21846967915e-07,0.18632635,0.79433865,9.62032365,9e-08,0.0,0.0,0.0,9e-08,0.0,0.0,0.0,9e-08
1536693420401844728,5890,1536693420401574712,base_link,-0.0311334091874,-0.281852496481,-0.925800946928,-0.249964972999,1.0,0.0,0.0,0.0,1.0,0.0,0.0,0.0,1.0,-0.0111945047975,-0.0646908655763,-0.232605189085,1.21846967915e-07,0.0,0.0,0.0,1.21846967915e-07,0.0,0.0,0.0,1.21846967915e-07,-0.30400615,0.53936575,9.6889702,9e-08,0.0,0.0,0.0,9e-08,0.0,0.0,0.0,9e-08
1536693420796060920,5891,1536693420795801656,base_link,-0.0169841859911,-0.265934870567,-0.918962180573,-0.290686588476,1.0,0.0,0.0,0.0,1.0,0.0,0.0,0.0,1.0,-0.175496861339,0.0443622581661,-0.213877007365,1.21846967915e-07,0.0,0.0,0.0,1.21846967915e-07,0.0,0.0,0.0,1.21846967915e-07,-0.8825985,0.7256921,8.5906254,9e-08,0.0,0.0,0.0,9e-08,0.0,0.0,0.0,9e-08
1536693421211000568,5892,1536693421210414200,base_link,0.0171986198191,-0.234596560471,-0.91275723255,-0.333980382236,1.0,0.0,0.0,0.0,1.0,0.0,0.0,0.0,1.0,-0.276436209679,0.0854468718171,-0.221302136779,1.21846967915e-07,0.0,0.0,0.0,1.21846967915e-07,0.0,0.0,0.0,1.21846967915e-07,-1.2748645,0.5295591,7.75706015,9e-08,0.0,0.0,0.0,9e-08,0.0,0.0,0.0,9e-08
1536693421592876152,5893,1536693421592620856,base_link,0.0618367865102,-0.198059359274,-0.908501043291,-0.362732072441,1.0,0.0,0.0,0.0,1.0,0.0,0.0,0.0,1.0,-0.2043543607,0.121753126383,-0.177461609244,1.21846967915e-07,0.0,0.0,0.0,1.21846967915e-07,0.0,0.0,0.0,1.21846967915e-07,-1.6279039,0.7256921,6.46258235,9e-08,0.0,0.0,0.0,9e-08,0.0,0.0,0.0,9e-08
1536693421893502712,5894,1536693421893274456,base_link,0.0943089674094,-0.169974941984,-0.905380747057,-0.37749177557,1.0,0.0,0.0,0.0,1.0,0.0,0.0,0.0,1.0,-0.266546010971,0.110681980848,-0.114175766706,1.21846967915e-07,0.0,0.0,0.0,1.21846967915e-07,0.0,0.0,0.0,1.21846967915e-07,-1.81423025,0.3726527,6.7469752,9e-08,0.0,0.0,0.0,9e-08,0.0,0.0,0.0,9e-08
1536693422345816664,5895,1536693422345434008,base_link,0.128950178877,-0.145778523259,-0.900487680051,-0.388898973513,1.0,0.0,0.0,0.0,1.0,0.0,0.0,0.0,1.0,-0.141599908471,0.0328417345881,-0.0596466884017,1.21846967915e-07,0.0,0.0,0.0,1.21846967915e-07,0.0,0.0,0.0,1.21846967915e-07,-1.87307015,0.26477955,7.5315072,9e-08,0.0,0.0,0.0,9e-08,0.0,0.0,0.0,9e-08
1536693422747760536,5896,1536693422747527576,base_link,0.141143635904,-0.123591943874,-0.899712534739,-0.394107676007,1.0,0.0,0.0,0.0,1.0,0.0,0.0,0.0,1.0,-0.0744358375669,-0.013246291317,-0.0296068787575,1.21846967915e-07,0.0,0.0,0.0,1.21846967915e-07,0.0,0.0,0.0,1.21846967915e-07,-2.0397832,0.9218251,9.1594111,9e-08,0.0,0.0,0.0,9e-08,0.0,0.0,0.0,9e-08
1536693423150088152,5897,1536693423149834968,base_link,0.151160598524,-0.10164457852,-0.899896400506,-0.396238970153,1.0,0.0,0.0,0.0,1.0,0.0,0.0,0.0,1.0,-0.0944847464561,-0.00776898581535,-0.00856737419963,1.21846967915e-07,0.0,0.0,0.0,1.21846967915e-07,0.0,0.0,0.0,1.21846967915e-07,-2.1182364,1.0787315,9.5516771,9e-08,0.0,0.0,0.0,9e-08,0.0,0.0,0.0,9e-08
1536693423510950488,5898,1536693423504156664,base_link,0.156998656063,-0.0846892537403,-0.901620690687,-0.39402954511,1.0,0.0,0.0,0.0,1.0,0.0,0.0,0.0,1.0,-0.0987045690417,0.00222921837121,0.00886906310916,1.21846967915e-07,0.0,0.0,0.0,1.21846967915e-07,0.0,0.0,0.0,1.21846967915e-07,-2.1378497,-0.5491724,9.7478101,9e-08,0.0,0.0,0.0,9e-08,0.0,0.0,0.0,9e-08
1536693423790408504,5899,1536693423790059640,base_link,0.160403220349,-0.0736367206278,-0.90348094944,-0.390602885648,1.0,0.0,0.0,0.0,1.0,0.0,0.0,0.0,1.0,-0.0243431013077,0.00609499029815,0.0171483904123,1.21846967915e-07,0.0,0.0,0.0,1.21846967915e-07,0.0,0.0,0.0,1.21846967915e-07,-2.18688295,-0.10787315,9.2574776,9e-08,0.0,0.0,0.0,9e-08,0.0,0.0,0.0,9e-08
1536693424388290776,5900,1536693424386799928,base_link,0.152286578434,-0.0758009173281,-0.904733769629,-0.390537866351,1.0,0.0,0.0,0.0,1.0,0.0,0.0,0.0,1.0,0.0380442366004,-0.0521487630904,0.00772291235626,1.21846967915e-07,0.0,0.0,0.0,1.21846967915e-07,0.0,0.0,0.0,1.21846967915e-07,-2.16726965,0.42168595,10.3558224,9e-08,0.0,0.0,0.0,9e-08,0.0,0.0,0.0,9e-08
1536693424821523960,5901,1536693424821112120,base_link,0.12597910202,-0.071927840006,-0.907650246452,-0.393861246891,1.0,0.0,0.0,0.0,1.0,0.0,0.0,0.0,1.0,0.0445270687342,-0.183830797672,0.00805614236742,1.21846967915e-07,0.0,0.0,0.0,1.21846967915e-07,0.0,0.0,0.0,1.21846967915e-07,-1.83384355,0.1765197,12.1994726,9e-08,0.0,0.0,0.0,9e-08,0.0,0.0,0.0,9e-08
1536693425193012216,5902,1536693425192691800,base_link,0.0885137883284,-0.0633402858265,-0.912932285882,-0.393329326216,1.0,0.0,0.0,0.0,1.0,0.0,0.0,0.0,1.0,0.0235834699124,-0.187681689858,0.0389157161117,1.21846967915e-07,0.0,0.0,0.0,1.21846967915e-07,0.0,0.0,0.0,1.21846967915e-07,-1.4513842,0.40207265,14.1411893,9e-08,0.0,0.0,0.0,9e-08,0.0,0.0,0.0,9e-08
1536693425616439352,5903,1536693425616195320,base_link,0.0435006278881,-0.0417588129712,-0.919116174499,-0.389344776113,1.0,0.0,0.0,0.0,1.0,0.0,0.0,0.0,1.0,-0.00258866325021,-0.289625525475,0.0222165174782,1.21846967915e-07,0.0,0.0,0.0,1.21846967915e-07,0.0,0.0,0.0,1.21846967915e-07,-0.44129925,0.85317855,15.6514134,9e-08,0.0,0.0,0.0,9e-08,0.0,0.0,0.0,9e-08
1536693426107816664,5904,1536693426107388856,base_link,-0.0196329009365,-0.0145826532315,-0.921012549575,-0.388764426035,1.0,0.0,0.0,0.0,1.0,0.0,0.0,0.0,1.0,0.00958935078233,-0.21975697577,0.00521111022681,1.21846967915e-07,0.0,0.0,0.0,1.21846967915e-07,0.0,0.0,0.0,1.21846967915e-07,0.1176798,0.7060788,15.38663385,9e-08,0.0,0.0,0.0,9e-08,0.0,0.0,0.0,9e-08
1536693426519773560,5905,1536693426519237272,base_link,-0.0526557787672,-0.00654588244938,-0.919736733463,-0.388932978165,1.0,0.0,0.0,0.0,1.0,0.0,0.0,0.0,1.0,0.0526984110475,-0.0906938463449,-0.00183452479541,1.21846967915e-07,0.0,0.0,0.0,1.21846967915e-07,0.0,0.0,0.0,1.21846967915e-07,0.0980665,0.6276256,13.2585908,9e-08,0.0,0.0,0.0,9e-08,0.0,0.0,0.0,9e-08
1536693426902922008,5906,1536693426902483896,base_link,-0.0666838679922,-0.00787337595476,-0.918255926988,-0.390252897813,1.0,0.0,0.0,0.0,1.0,0.0,0.0,0.0,1.0,0.00787149835378,-0.0832569971681,-0.029057815671,1.21846967915e-07,0.0,0.0,0.0,1.21846967915e-07,0.0,0.0,0.0,1.21846967915e-07,0.12748645,0.30400615,11.375714,9e-08,0.0,0.0,0.0,9e-08,0.0,0.0,0.0,9e-08
1536693427294957720,5907,1536693427293033048,base_link,-0.0790071928517,-0.0098749503841,-0.916226651115,-0.392669164334,1.0,0.0,0.0,0.0,1.0,0.0,0.0,0.0,1.0,0.0746596083045,-0.0372158102691,0.00310233351775,1.21846967915e-07,0.0,0.0,0.0,1.21846967915e-07,0.0,0.0,0.0,1.21846967915e-07,0.02941995,0.196133,10.7677017,9e-08,0.0,0.0,0.0,9e-08,0.0,0.0,0.0,9e-08
1536693427776976408,5908,1536693427775176248,base_link,-0.0825716629553,-0.0266951789496,-0.917750082973,-0.387561702315,1.0,0.0,0.0,0.0,1.0,0.0,0.0,0.0,1.0,0.0212294068187,0.0603277906775,0.0123265180737,1.21846967915e-07,0.0,0.0,0.0,1.21846967915e-07,0.0,0.0,0.0,1.21846967915e-07,-0.06864655,0.16671305,8.6102387,9e-08,0.0,0.0,0.0,9e-08,0.0,0.0,0.0,9e-08
1536693428245196696,5909,1536693428244896856,base_link,-0.0694531858828,-0.0446727830171,-0.916752202663,-0.390827322921,1.0,0.0,0.0,0.0,1.0,0.0,0.0,0.0,1.0,0.0767846405506,0.0917549654841,-0.050660662353,1.21846967915e-07,0.0,0.0,0.0,1.21846967915e-07,0.0,0.0,0.0,1.21846967915e-07,-0.10787315,0.6080123,7.7472535,9e-08,0.0,0.0,0.0,9e-08,0.0,0.0,0.0,9e-08
1536693428607257080,5910,1536693428606969272,base_link,-0.0655556882109,-0.0764349191672,-0.91229720936,-0.396955862368,1.0,0.0,0.0,0.0,1.0,0.0,0.0,0.0,1.0,0.242314949632,0.0939549580216,-0.0518130026758,1.21846967915e-07,0.0,0.0,0.0,1.21846967915e-07,0.0,0.0,0.0,1.21846967915e-07,-0.1176798,0.24516625,7.89435325,9e-08,0.0,0.0,0.0,9e-08,0.0,0.0,0.0,9e-08
1536693428992077592,5911,1536693428991575160,base_link,-0.0689103299655,-0.136056824281,-0.901332852331,-0.405387464408,1.0,0.0,0.0,0.0,1.0,0.0,0.0,0.0,1.0,0.298946201801,0.0708153694868,-0.0941802710295,1.21846967915e-07,0.0,0.0,0.0,1.21846967915e-07,0.0,0.0,0.0,1.21846967915e-07,-0.18632635,0.38245935,7.30595425,9e-08,0.0,0.0,0.0,9e-08,0.0,0.0,0.0,9e-08
1536693429284960824,5912,1536693429284515992,base_link,-0.0721552144129,-0.172626754542,-0.888312386668,-0.419398059534,1.0,0.0,0.0,0.0,1.0,0.0,0.0,0.0,1.0,0.195201858878,0.0470312461257,-0.171951159835,1.21846967915e-07,0.0,0.0,0.0,1.21846967915e-07,0.0,0.0,0.0,1.21846967915e-07,-0.0392266,0.4511059,8.03164635,9e-08,0.0,0.0,0.0,9e-08,0.0,0.0,0.0,9e-08
1536693429770339736,5913,1536693429769999320,base_link,-0.0842136679572,-0.22140497275,-0.860520478087,-0.450990468817,1.0,0.0,0.0,0.0,1.0,0.0,0.0,0.0,1.0,0.242233663797,-0.0449065044522,-0.15472663939,1.21846967915e-07,0.0,0.0,0.0,1.21846967915e-07,0.0,0.0,0.0,1.21846967915e-07,0.18632635,0.5099458,8.3160392,9e-08,0.0,0.0,0.0,9e-08,0.0,0.0,0.0,9e-08
1536693430153439960,5914,1536693430153017816,base_link,-0.111765398617,-0.254469970174,-0.834664270295,-0.475488260469,1.0,0.0,0.0,0.0,1.0,0.0,0.0,0.0,1.0,0.28608673811,-0.0963674038649,-0.188149318099,1.21846967915e-07,0.0,0.0,0.0,1.21846967915e-07,0.0,0.0,0.0,1.21846967915e-07,0.3138128,1.0591182,10.81673495,9e-08,0.0,0.0,0.0,9e-08,0.0,0.0,0.0,9e-08
1536693430579594296,5915,1536693430579101912,base_link,-0.156351796394,-0.292603025676,-0.788846535279,-0.51735744791,1.0,0.0,0.0,0.0,1.0,0.0,0.0,0.0,1.0,0.207650095224,-0.216871440411,-0.25434333086,1.21846967915e-07,0.0,0.0,0.0,1.21846967915e-07,0.0,0.0,0.0,1.21846967915e-07,0.5491724,0.71588545,11.4737805,9e-08,0.0,0.0,0.0,9e-08,0.0,0.0,0.0,9e-08
1536693431005211608,5916,1536693431004932600,base_link,-0.195049826703,-0.296632442067,-0.735780716625,-0.576707461768,1.0,0.0,0.0,0.0,1.0,0.0,0.0,0.0,1.0,0.0759010538459,-0.287964820862,-0.322918593884,1.21846967915e-07,0.0,0.0,0.0,1.21846967915e-07,0.0,0.0,0.0,1.21846967915e-07,0.89240515,1.01008495,13.1605243,9e-08,0.0,0.0,0.0,9e-08,0.0,0.0,0.0,9e-08
1536693431362579288,5917,1536693431362260248,base_link,-0.235890261057,-0.283116780309,-0.681988679141,-0.631737378164,1.0,0.0,0.0,0.0,1.0,0.0,0.0,0.0,1.0,0.0397770442069,-0.378430455923,-0.261358946562,1.21846967915e-07,0.0,0.0,0.0,1.21846967915e-07,0.0,0.0,0.0,1.21846967915e-07,1.38273765,0.8237586,14.9845612,9e-08,0.0,0.0,0.0,9e-08,0.0,0.0,0.0,9e-08
1536693431772544088,5918,1536693431771961848,base_link,-0.278799630109,-0.252236540291,-0.626832821103,-0.682442750991,1.0,0.0,0.0,0.0,1.0,0.0,0.0,0.0,1.0,0.0322371982038,-0.382282793522,-0.255692332983,1.21846967915e-07,0.0,0.0,0.0,1.21846967915e-07,0.0,0.0,0.0,1.21846967915e-07,1.42196425,1.1571847,15.66122005,9e-08,0.0,0.0,0.0,9e-08,0.0,0.0,0.0,9e-08
1536693432245196536,5919,1536693432238781912,base_link,-0.319954106011,-0.210181890474,-0.549607325485,-0.742552847101,1.0,0.0,0.0,0.0,1.0,0.0,0.0,0.0,1.0,0.0285600256175,-0.388374954462,-0.285908788443,1.21846967915e-07,0.0,0.0,0.0,1.21846967915e-07,0.0,0.0,0.0,1.21846967915e-07,1.26505785,1.18660465,15.46508705,9e-08,0.0,0.0,0.0,9e-08,0.0,0.0,0.0,9e-08
1536693432733094648,5920,1536693432730983448,base_link,-0.35751609991,-0.164711092295,-0.461789943793,-0.794860077115,1.0,0.0,0.0,0.0,1.0,0.0,0.0,0.0,1.0,-0.0398204289377,-0.338643789291,-0.260979712009,1.21846967915e-07,0.0,0.0,0.0,1.21846967915e-07,0.0,0.0,0.0,1.21846967915e-07,1.04931155,1.04931155,14.99436785,9e-08,0.0,0.0,0.0,9e-08,0.0,0.0,0.0,9e-08
1536693433140981528,5921,1536693433140646968,base_link,-0.374139310638,-0.125775722807,-0.390153625703,-0.831853588163,1.0,0.0,0.0,0.0,1.0,0.0,0.0,0.0,1.0,-0.0302068162709,-0.254491299391,-0.255779445171,1.21846967915e-07,0.0,0.0,0.0,1.21846967915e-07,0.0,0.0,0.0,1.21846967915e-07,1.0002783,0.8237586,13.1016844,9e-08,0.0,0.0,0.0,9e-08,0.0,0.0,0.0,9e-08
1536693433459287960,5922,1536693433459023544,base_link,-0.37755931616,-0.107429336885,-0.338540478055,-0.855159777513,1.0,0.0,0.0,0.0,1.0,0.0,0.0,0.0,1.0,-0.0194378271699,-0.214831486344,-0.317989647388,1.21846967915e-07,0.0,0.0,0.0,1.21846967915e-07,0.0,0.0,0.0,1.21846967915e-07,0.51975245,1.0002783,11.83662655,9e-08,0.0,0.0,0.0,9e-08,0.0,0.0,0.0,9e-08
1536693433788036664,5923,1536693433787733624,base_link,-0.387969133694,-0.0943162554681,-0.278485244857,-0.873516092383,1.0,0.0,0.0,0.0,1.0,0.0,0.0,0.0,1.0,0.034661360085,-0.20787127316,-0.291317135096,1.21846967915e-07,0.0,0.0,0.0,1.21846967915e-07,0.0,0.0,0.0,1.21846967915e-07,0.46091255,0.8433719,11.42474725,9e-08,0.0,0.0,0.0,9e-08,0.0,0.0,0.0,9e-08
1536693434165854328,5924,1536693434165573112,base_link,-0.392741211427,-0.0812860937769,-0.214690061453,-0.890536405387,1.0,0.0,0.0,0.0,1.0,0.0,0.0,0.0,1.0,-0.0274661593139,-0.191699430346,-0.304726660252,1.21846967915e-07,0.0,0.0,0.0,1.21846967915e-07,0.0,0.0,0.0,1.21846967915e-07,0.4903325,0.8041453,10.8461549,9e-08,0.0,0.0,0.0,9e-08,0.0,0.0,0.0,9e-08
1536693434487265240,5925,1536693434486366808,base_link,-0.394953802922,-0.0676962332814,-0.153112295491,-0.903319067952,1.0,0.0,0.0,0.0,1.0,0.0,0.0,0.0,1.0,-0.00133379176259,-0.260924756527,-0.313801288605,1.21846967915e-07,0.0,0.0,0.0,1.21846967915e-07,0.0,0.0,0.0,1.21846967915e-07,0.2941995,1.26505785,12.2779258,9e-08,0.0,0.0,0.0,9e-08,0.0,0.0,0.0,9e-08
1536693434904440056,5926,1536693434903193944,base_link,-0.392258321777,-0.0429824925615,-0.0669985126072,-0.916404448723,1.0,0.0,0.0,0.0,1.0,0.0,0.0,0.0,1.0,-0.117528453469,-0.255139261484,-0.321570277214,1.21846967915e-07,0.0,0.0,0.0,1.21846967915e-07,0.0,0.0,0.0,1.21846967915e-07,0.14709975,1.0983448,11.964113,9e-08,0.0,0.0,0.0,9e-08,0.0,0.0,0.0,9e-08
1536693435244353464,5927,1536693435244029240,base_link,-0.368211655808,-0.0267242921341,0.00303274136022,-0.929352888421,1.0,0.0,0.0,0.0,1.0,0.0,0.0,0.0,1.0,-0.193782448769,-0.218892097473,-0.323049485683,1.21846967915e-07,0.0,0.0,0.0,1.21846967915e-07,0.0,0.0,0.0,1.21846967915e-07,0.1176798,0.784532,11.34629405,9e-08,0.0,0.0,0.0,9e-08,0.0,0.0,0.0,9e-08
1536693435610340568,5928,1536693435608987864,base_link,-0.326963764511,-0.00837419795743,0.0695066440814,-0.942440128567,1.0,0.0,0.0,0.0,1.0,0.0,0.0,0.0,1.0,-0.296696871519,-0.248057946563,-0.282556027174,1.21846967915e-07,0.0,0.0,0.0,1.21846967915e-07,0.0,0.0,0.0,1.21846967915e-07,-0.1765197,0.9022118,12.5917386,9e-08,0.0,0.0,0.0,9e-08,0.0,0.0,0.0,9e-08
1536693435974616920,5929,1536693435974441848,base_link,-0.264105922117,0.0145403255872,0.125220259607,-0.956219915824,1.0,0.0,0.0,0.0,1.0,0.0,0.0,0.0,1.0,-0.414433121681,-0.228113859892,-0.205169424415,1.21846967915e-07,0.0,0.0,0.0,1.21846967915e-07,0.0,0.0,0.0,1.21846967915e-07,-0.24516625,0.87279185,13.46453045,9e-08,0.0,0.0,0.0,9e-08,0.0,0.0,0.0,9e-08
1536693436391394616,5930,1536693436389310392,base_link,-0.154887615435,0.0257226681811,0.172274944358,-0.972455404876,1.0,0.0,0.0,0.0,1.0,0.0,0.0,0.0,1.0,-0.571658790112,-0.110363662243,-0.163705915213,1.21846967915e-07,0.0,0.0,0.0,1.21846967915e-07,0.0,0.0,0.0,1.21846967915e-07,-0.5099458,0.71588545,12.4936721,9e-08,0.0,0.0,0.0,9e-08,0.0,0.0,0.0,9e-08
1536693436771287128,5931,1536693436770750680,base_link,-0.0485033120792,0.0127653520409,0.196726562371,-0.979174720958,1.0,0.0,0.0,0.0,1.0,0.0,0.0,0.0,1.0,-0.570745587349,-0.0536082908511,-0.0722814425826,1.21846967915e-07,0.0,0.0,0.0,1.21846967915e-07,0.0,0.0,0.0,1.21846967915e-07,-0.65704555,0.44129925,10.983448,9e-08,0.0,0.0,0.0,9e-08,0.0,0.0,0.0,9e-08
1536693437316652568,5932,1536693437315374520,base_link,0.0767415576878,-0.00370464361367,0.19381349666,-0.978025223321,1.0,0.0,0.0,0.0,1.0,0.0,0.0,0.0,1.0,-0.33696180582,-0.00718397181481,0.0561317838728,1.21846967915e-07,0.0,0.0,0.0,1.21846967915e-07,0.0,0.0,0.0,1.21846967915e-07,-0.63743225,0.26477955,10.1400761,9e-08,0.0,0.0,0.0,9e-08,0.0,0.0,0.0,9e-08
1536693437634127960,5933,1536693437633746808,base_link,0.119994356289,-0.016309213878,0.179697441488,-0.976239823775,1.0,0.0,0.0,0.0,1.0,0.0,0.0,0.0,1.0,-0.207441538572,0.031872369349,0.100583404303,1.21846967915e-07,0.0,0.0,0.0,1.21846967915e-07,0.0,0.0,0.0,1.21846967915e-07,-0.59820565,0.2941995,9.5516771,9e-08,0.0,0.0,0.0,9e-08,0.0,0.0,0.0,9e-08
1536693438050704664,5934,1536693438050403512,base_link,0.144003663411,-0.0323063450366,0.158259237961,-0.976305924695,1.0,0.0,0.0,0.0,1.0,0.0,0.0,0.0,1.0,-0.0857214555144,0.0509082376957,0.115665026009,1.21846967915e-07,0.0,0.0,0.0,1.21846967915e-07,0.0,0.0,0.0,1.21846967915e-07,-0.7649187,0.2157463,8.73772515,9e-08,0.0,0.0,0.0,9e-08,0.0,0.0,0.0,9e-08
1536693438499862872,5935,1536693438498606008,base_link,0.138639344053,-0.0533231994262,0.123002562686,-0.981226853615,1.0,0.0,0.0,0.0,1.0,0.0,0.0,0.0,1.0,0.0462502650917,0.0503660440445,0.176372498274,1.21846967915e-07,0.0,0.0,0.0,1.21846967915e-07,0.0,0.0,0.0,1.21846967915e-07,-0.67665885,0.16671305,8.26700595,9e-08,0.0,0.0,0.0,9e-08,0.0,0.0,0.0,9e-08
1536693438905119800,5936,1536693438904684472,base_link,0.133727853297,-0.0616614606705,0.088245049001,-0.985153560034,1.0,0.0,0.0,0.0,1.0,0.0,0.0,0.0,1.0,-0.00737704709172,0.0089060170576,0.155926153064,1.21846967915e-07,0.0,0.0,0.0,1.21846967915e-07,0.0,0.0,0.0,1.21846967915e-07,-0.55897905,0.196133,9.03192465,9e-08,0.0,0.0,0.0,9e-08,0.0,0.0,0.0,9e-08
1536693439247480376,5937,1536693439247167768,base_link,0.126118928082,-0.0640363647039,0.0639831105771,-0.987876268333,1.0,0.0,0.0,0.0,1.0,0.0,0.0,0.0,1.0,0.0487040095031,0.007663205266,0.130923762918,1.21846967915e-07,0.0,0.0,0.0,1.21846967915e-07,0.0,0.0,0.0,1.21846967915e-07,-0.61781895,0.2745862,9.7870367,9e-08,0.0,0.0,0.0,9e-08,0.0,0.0,0.0,9e-08
1536693439546979544,5938,1536693439546576216,base_link,0.107080358978,-0.062642813781,0.0426075481114,-0.991359809275,1.0,0.0,0.0,0.0,1.0,0.0,0.0,0.0,1.0,0.145218998194,-0.0522038973868,0.155628845096,1.21846967915e-07,0.0,0.0,0.0,1.21846967915e-07,0.0,0.0,0.0,1.21846967915e-07,-0.588399,0.26477955,10.002783,9e-08,0.0,0.0,0.0,9e-08,0.0,0.0,0.0,9e-08
1536693439851509240,5939,1536693439851219384,base_link,0.0888362544359,-0.0545777056575,0.019249808366,-0.994363534539,1.0,0.0,0.0,0.0,1.0,0.0,0.0,0.0,1.0,0.102744460106,-0.0636815428734,0.141755342484,1.21846967915e-07,0.0,0.0,0.0,1.21846967915e-07,0.0,0.0,0.0,1.21846967915e-07,-0.36284605,0.3530394,10.8657682,9e-08,0.0,0.0,0.0,9e-08,0.0,0.0,0.0,9e-08
1536693440254616600,5940,1536693440254310424,base_link,0.0636771975278,-0.046276763219,-0.00825308427164,-0.996862860328,1.0,0.0,0.0,0.0,1.0,0.0,0.0,0.0,1.0,0.149557262659,-0.0571302883327,0.112718611956,1.21846967915e-07,0.0,0.0,0.0,1.21846967915e-07,0.0,0.0,0.0,1.21846967915e-07,-0.2941995,0.4511059,10.3362091,9e-08,0.0,0.0,0.0,9e-08,0.0,0.0,0.0,9e-08
1536693440682827992,5941,1536693440680829272,base_link,0.0337614490105,-0.0345104080191,-0.0266973323646,-0.998477064706,1.0,0.0,0.0,0.0,1.0,0.0,0.0,0.0,1.0,0.14541503787,-0.0579548180103,0.0532134100795,1.21846967915e-07,0.0,0.0,0.0,1.21846967915e-07,0.0,0.0,0.0,1.21846967915e-07,-0.26477955,0.5099458,10.1204628,9e-08,0.0,0.0,0.0,9e-08,0.0,0.0,0.0,9e-08
1536693441046136792,5942,1536693441045643864,base_link,0.00164391782212,-0.0257893086863,-0.0359082011071,-0.999020925799,1.0,0.0,0.0,0.0,1.0,0.0,0.0,0.0,1.0,0.141544863582,-0.0397693291306,0.0375137403607,1.21846967915e-07,0.0,0.0,0.0,1.21846967915e-07,0.0,0.0,0.0,1.21846967915e-07,-0.32361945,0.4707192,10.4342756,9e-08,0.0,0.0,0.0,9e-08,0.0,0.0,0.0,9e-08
1536693441439677496,5943,1536693441431611640,base_link,-0.0205608004281,-0.017489439427,-0.0373109315094,-0.998939070907,1.0,0.0,0.0,0.0,1.0,0.0,0.0,0.0,1.0,0.11206817627,-0.0480188652873,-0.0240244399756,1.21846967915e-07,0.0,0.0,0.0,1.21846967915e-07,0.0,0.0,0.0,1.21846967915e-07,-0.20593965,0.4707192,10.46369555,9e-08,0.0,0.0,0.0,9e-08,0.0,0.0,0.0,9e-08
1536693441927898168,5944,1536693441927476600,base_link,-0.0473710333758,-0.0105251720741,-0.0319926420771,-0.998309409353,1.0,0.0,0.0,0.0,1.0,0.0,0.0,0.0,1.0,0.0695434808731,-0.0126875992864,-0.0196460969746,1.21846967915e-07,0.0,0.0,0.0,1.21846967915e-07,0.0,0.0,0.0,1.21846967915e-07,-0.12748645,0.4314926,10.2773692,9e-08,0.0,0.0,0.0,9e-08,0.0,0.0,0.0,9e-08
1536693442203422712,5945,1536693442202203096,base_link,-0.0543226412608,-0.0151962542678,-0.0290689585413,-0.997984529014,1.0,0.0,0.0,0.0,1.0,0.0,0.0,0.0,1.0,0.0286566726863,0.0164312515408,-0.0389424487948,1.21846967915e-07,0.0,0.0,0.0,1.21846967915e-07,0.0,0.0,0.0,1.21846967915e-07,-0.02941995,0.5491724,9.54187045,9e-08,0.0,0.0,0.0,9e-08,0.0,0.0,0.0,9e-08
1536693442722051544,5946,1536693442721780952,base_link,-0.0520625904707,-0.00836794204484,-0.020136254888,-0.998405726876,1.0,0.0,0.0,0.0,1.0,0.0,0.0,0.0,1.0,-0.0218634326011,-0.0397958345711,-0.0215847883373,1.21846967915e-07,0.0,0.0,0.0,1.21846967915e-07,0.0,0.0,0.0,1.21846967915e-07,-0.12748645,0.2745862,10.62060195,9e-08,0.0,0.0,0.0,9e-08,0.0,0.0,0.0,9e-08
1536693443074876888,5947,1536693443074562072,base_link,-0.0492702668273,-0.00486002808591,-0.0198231587078,-0.998576919077,1.0,0.0,0.0,0.0,1.0,0.0,0.0,0.0,1.0,-0.0424374118447,0.0162592101842,0.00179716106504,1.21846967915e-07,0.0,0.0,0.0,1.21846967915e-07,0.0,0.0,0.0,1.21846967915e-07,0.1176798,0.63743225,10.5127288,9e-08,0.0,0.0,0.0,9e-08,0.0,0.0,0.0,9e-08
1536693443486777592,5948,1536693443486564472,base_link,-0.0484056197817,-0.0098073386928,-0.0209083291873,-0.998560741193,1.0,0.0,0.0,0.0,1.0,0.0,0.0,0.0,1.0,-0.0343258678913,0.00830435194075,0.0187717285007,1.21846967915e-07,0.0,0.0,0.0,1.21846967915e-07,0.0,0.0,0.0,1.21846967915e-07,0.04903325,0.55897905,10.20872265,9e-08,0.0,0.0,0.0,9e-08,0.0,0.0,0.0,9e-08
1536693443845415576,5949,1536693443844476664,base_link,-0.0335103578298,-0.0130743131349,-0.024043710581,-0.999063570668,1.0,0.0,0.0,0.0,1.0,0.0,0.0,0.0,1.0,-0.0904903635383,0.031457260251,-0.0120358737186,1.21846967915e-07,0.0,0.0,0.0,1.21846967915e-07,0.0,0.0,0.0,1.21846967915e-07,0.0,0.48052585,9.24767095,9e-08,0.0,0.0,0.0,9e-08,0.0,0.0,0.0,9e-08
1536693444229927448,5950,1536693444229522744,base_link,-0.0228925715372,-0.0134470521146,-0.0190931296393,-0.99946513664,1.0,0.0,0.0,0.0,1.0,0.0,0.0,0.0,1.0,-0.0851737484336,-0.0252333804965,-0.0190084856004,1.21846967915e-07,0.0,0.0,0.0,1.21846967915e-07,0.0,0.0,0.0,1.21846967915e-07,0.1765197,0.588399,10.0812362,9e-08,0.0,0.0,0.0,9e-08,0.0,0.0,0.0,9e-08
1536693444521776952,5951,1536693444521437880,base_link,-0.0150863865969,-0.00776039008974,-0.0159928233703,-0.999728166496,1.0,0.0,0.0,0.0,1.0,0.0,0.0,0.0,1.0,-0.0210275929421,-0.0683044493198,-0.00541745405644,1.21846967915e-07,0.0,0.0,0.0,1.21846967915e-07,0.0,0.0,0.0,1.21846967915e-07,0.2549729,0.42168595,10.67944185,9e-08,0.0,0.0,0.0,9e-08,0.0,0.0,0.0,9e-08
1536693444974730168,5952,1536693444974229208,base_link,0.00476283995276,-0.000980497588088,-0.0205634838612,-0.99977672363,1.0,0.0,0.0,0.0,1.0,0.0,0.0,0.0,1.0,-0.0331933870912,-0.019541952759,0.0380262546241,1.21846967915e-07,0.0,0.0,0.0,1.21846967915e-07,0.0,0.0,0.0,1.21846967915e-07,0.08825985,0.4903325,10.20872265,9e-08,0.0,0.0,0.0,9e-08,0.0,0.0,0.0,9e-08
1536693445335547192,5953,1536693445332124536,base_link,-0.0247660059558,0.0033907379789,-0.0305337529536,-0.999221115557,1.0,0.0,0.0,0.0,1.0,0.0,0.0,0.0,1.0,0.209761202335,-0.0358779206872,0.0543540380895,1.21846967915e-07,0.0,0.0,0.0,1.21846967915e-07,0.0,0.0,0.0,1.21846967915e-07,0.1372931,0.1176798,10.2185293,9e-08,0.0,0.0,0.0,9e-08,0.0,0.0,0.0,9e-08
1536693445669246808,5954,1536693445668941816,base_link,-0.0404426578079,0.00879520885913,-0.0410689195919,-0.998298742649,1.0,0.0,0.0,0.0,1.0,0.0,0.0,0.0,1.0,-0.0224245321006,-0.0364028140903,0.0276321470737,1.21846967915e-07,0.0,0.0,0.0,1.21846967915e-07,0.0,0.0,0.0,1.21846967915e-07,0.1765197,0.48052585,10.395049,9e-08,0.0,0.0,0.0,9e-08,0.0,0.0,0.0,9e-08
1536693446182869880,5955,1536693446182398040,base_link,-0.0360840775751,0.00836458533575,-0.0333565169256,-0.998756885251,1.0,0.0,0.0,0.0,1.0,0.0,0.0,0.0,1.0,-0.0397559851408,0.0150201255456,-0.033584933728,1.21846967915e-07,0.0,0.0,0.0,1.21846967915e-07,0.0,0.0,0.0,1.21846967915e-07,0.12748645,0.5099458,9.7281968,9e-08,0.0,0.0,0.0,9e-08,0.0,0.0,0.0,9e-08
1536693446595888184,5956,1536693446595575576,base_link,-0.0429694690887,0.003436468698,-0.0301249260783,-0.99861619466,1.0,0.0,0.0,0.0,1.0,0.0,0.0,0.0,1.0,0.0765347331762,0.0531361177564,0.00560307735577,1.21846967915e-07,0.0,0.0,0.0,1.21846967915e-07,0.0,0.0,0.0,1.21846967915e-07,0.1569064,0.3138128,9.6497436,9e-08,0.0,0.0,0.0,9e-08,0.0,0.0,0.0,9e-08
1536693446938350104,5957,1536693446938067512,base_link,-0.0678232110511,-0.00328825200754,-0.0333211926001,-0.99713534566,1.0,0.0,0.0,0.0,1.0,0.0,0.0,0.0,1.0,0.0914195105433,0.0195845887065,0.0168742518872,1.21846967915e-07,0.0,0.0,0.0,1.21846967915e-07,0.0,0.0,0.0,1.21846967915e-07,0.0980665,0.22555295,9.67916355,9e-08,0.0,0.0,0.0,9e-08,0.0,0.0,0.0,9e-08
1536693447204193688,5958,1536693447203836152,base_link,-0.0718892203991,-0.00620926342772,-0.0326715816382,-0.996858040441,1.0,0.0,0.0,0.0,1.0,0.0,0.0,0.0,1.0,0.000443119555712,0.0479085370898,-0.0314725749195,1.21846967915e-07,0.0,0.0,0.0,1.21846967915e-07,0.0,0.0,0.0,1.21846967915e-07,0.1176798,0.48052585,10.3362091,9e-08,0.0,0.0,0.0,9e-08,0.0,0.0,0.0,9e-08
1536693447541926936,5959,1536693447540107960,base_link,-0.0646616626115,-0.0118369052525,-0.026255337211,-0.997491561032,1.0,0.0,0.0,0.0,1.0,0.0,0.0,0.0,1.0,-0.0759022831917,0.0226999279112,-0.0430735610425,1.21846967915e-07,0.0,0.0,0.0,1.21846967915e-07,0.0,0.0,0.0,1.21846967915e-07,0.12748645,0.67665885,9.36535075,9e-08,0.0,0.0,0.0,9e-08,0.0,0.0,0.0,9e-08
1536693447869968568,5960,1536693447869652568,base_link,-0.0598035892238,-0.0154379903098,-0.0168002191618,-0.997949373369,1.0,0.0,0.0,0.0,1.0,0.0,0.0,0.0,1.0,-0.0074606128037,0.00211387779564,-0.0716000795364,1.21846967915e-07,0.0,0.0,0.0,1.21846967915e-07,0.0,0.0,0.0,1.21846967915e-07,0.1569064,0.71588545,9.20844435,9e-08,0.0,0.0,0.0,9e-08,0.0,0.0,0.0,9e-08
1536693448341706072,5961,1536693448338443640,base_link,-0.0770999997494,-0.015730705028,-0.00486770755769,-0.996887375976,1.0,0.0,0.0,0.0,1.0,0.0,0.0,0.0,1.0,0.0779608786106,-0.0283205639571,-0.0326617248356,1.21846967915e-07,0.0,0.0,0.0,1.21846967915e-07,0.0,0.0,0.0,1.21846967915e-07,0.02941995,0.40207265,10.03220295,9e-08,0.0,0.0,0.0,9e-08,0.0,0.0,0.0,9e-08
1536693448769219320,5962,1536693448768048920,base_link,-0.0940985558011,-0.0122107112963,-0.00406527499018,-0.995479700378,1.0,0.0,0.0,0.0,1.0,0.0,0.0,0.0,1.0,0.0905260592699,-0.024363361299,-0.0352981388569,1.21846967915e-07,0.0,0.0,0.0,1.21846967915e-07,0.0,0.0,0.0,1.21846967915e-07,0.24516625,0.61781895,9.4339973,9e-08,0.0,0.0,0.0,9e-08,0.0,0.0,0.0,9e-08
1536693449203086584,5963,1536693449202835544,base_link,-0.130576994483,-0.0101502434657,0.02020477524,-0.991180300514,1.0,0.0,0.0,0.0,1.0,0.0,0.0,0.0,1.0,0.274998813868,-0.0602111667395,-0.148388057947,1.21846967915e-07,0.0,0.0,0.0,1.21846967915e-07,0.0,0.0,0.0,1.21846967915e-07,0.22555295,0.75511205,10.6500219,9e-08,0.0,0.0,0.0,9e-08,0.0,0.0,0.0,9e-08
1536693449501318008,5964,1536693449501003256,base_link,-0.177553665363,-0.00291221107007,0.040375111347,-0.983278223763,1.0,0.0,0.0,0.0,1.0,0.0,0.0,0.0,1.0,0.38268661499,-0.0504085570574,-0.114011637866,1.21846967915e-07,0.0,0.0,0.0,1.21846967915e-07,0.0,0.0,0.0,1.21846967915e-07,0.18632635,0.46091255,10.4146623,9e-08,0.0,0.0,0.0,9e-08,0.0,0.0,0.0,9e-08
1536693450022127256,5965,1536693450020935224,base_link,-0.258558518221,0.0142538998745,0.0805598209725,-0.962525030448,1.0,0.0,0.0,0.0,1.0,0.0,0.0,0.0,1.0,0.293152183294,-0.0955635309219,-0.171773046255,1.21846967915e-07,0.0,0.0,0.0,1.21846967915e-07,0.0,0.0,0.0,1.21846967915e-07,0.38245935,0.87279185,10.36562905,9e-08,0.0,0.0,0.0,9e-08,0.0,0.0,0.0,9e-08
1536693450401159384,5966,1536693450400903768,base_link,-0.298036626503,0.0297668987999,0.127589517263,-0.945520500086,1.0,0.0,0.0,0.0,1.0,0.0,0.0,0.0,1.0,0.224821776152,-0.148684546351,-0.262229859829,1.21846967915e-07,0.0,0.0,0.0,1.21846967915e-07,0.0,0.0,0.0,1.21846967915e-07,0.3530394,0.980665,10.67944185,9e-08,0.0,0.0,0.0,9e-08,0.0,0.0,0.0,9e-08
1536693450911889496,5967,1536693450911544664,base_link,-0.34151506288,0.0654113936901,0.202509900705,-0.915466302776,1.0,0.0,0.0,0.0,1.0,0.0,0.0,0.0,1.0,0.215967714787,-0.260367572308,-0.257144451141,1.21846967915e-07,0.0,0.0,0.0,1.21846967915e-07,0.0,0.0,0.0,1.21846967915e-07,0.6472389,1.16699135,12.4152189,9e-08,0.0,0.0,0.0,9e-08,0.0,0.0,0.0,9e-08
1536693451272342840,5968,1536693451271541336,base_link,-0.358214019579,0.0997516945216,0.262717657328,-0.890343612402,1.0,0.0,0.0,0.0,1.0,0.0,0.0,0.0,1.0,-0.0372176133096,-0.287362784147,-0.292971134186,1.21846967915e-07,0.0,0.0,0.0,1.21846967915e-07,0.0,0.0,0.0,1.21846967915e-07,1.01008495,0.9610517,12.91535805,9e-08,0.0,0.0,0.0,9e-08,0.0,0.0,0.0,9e-08
1536693451728034072,5969,1536693451727636568,base_link,-0.339966371252,0.137419566164,0.338295714855,-0.866657220915,1.0,0.0,0.0,0.0,1.0,0.0,0.0,0.0,1.0,0.0512859150767,-0.319103598595,-0.253125369549,1.21846967915e-07,0.0,0.0,0.0,1.21846967915e-07,0.0,0.0,0.0,1.21846967915e-07,0.93163175,0.8237586,13.4154972,9e-08,0.0,0.0,0.0,9e-08,0.0,0.0,0.0,9e-08
1536693452003671416,5970,1536693452003372440,base_link,-0.326772122533,0.155045497881,0.386243743819,-0.84852615981,1.0,0.0,0.0,0.0,1.0,0.0,0.0,0.0,1.0,-0.0281489752233,-0.214865028858,-0.291998594999,1.21846967915e-07,0.0,0.0,0.0,1.21846967915e-07,0.0,0.0,0.0,1.21846967915e-07,0.6276256,1.24544455,11.69933345,9e-08,0.0,0.0,0.0,9e-08,0.0,0.0,0.0,9e-08
1536693452402133752,5971,1536693452401826264,base_link,-0.317494764079,0.174489785357,0.451526926361,-0.815397954596,1.0,0.0,0.0,0.0,1.0,0.0,0.0,0.0,1.0,-0.0856448411942,-0.210513949394,-0.284718453884,1.21846967915e-07,0.0,0.0,0.0,1.21846967915e-07,0.0,0.0,0.0,1.21846967915e-07,0.69627215,0.8629852,10.1793027,9e-08,0.0,0.0,0.0,9e-08,0.0,0.0,0.0,9e-08
1536693452741606584,5972,1536693452741259896,base_link,-0.325286603201,0.20656518469,0.498728501609,-0.776395087526,1.0,0.0,0.0,0.0,1.0,0.0,0.0,0.0,1.0,0.0831576436758,-0.278183847666,-0.271541774273,1.21846967915e-07,0.0,0.0,0.0,1.21846967915e-07,0.0,0.0,0.0,1.21846967915e-07,0.7256921,1.06892485,12.42502555,9e-08,0.0,0.0,0.0,9e-08,0.0,0.0,0.0,9e-08
1536693453102795064,5973,1536693453101779096,base_link,-0.287530133846,0.210437177547,0.560442139154,-0.747627731626,1.0,0.0,0.0,0.0,1.0,0.0,0.0,0.0,1.0,-0.319828271866,-0.277204692364,-0.305900484324,1.21846967915e-07,0.0,0.0,0.0,1.21846967915e-07,0.0,0.0,0.0,1.21846967915e-07,1.20621795,1.3140911,15.40624715,9e-08,0.0,0.0,0.0,9e-08,0.0,0.0,0.0,9e-08
1536693453389632344,5974,1536693453389345560,base_link,-0.251478328551,0.207545404177,0.611016607772,-0.721347531014,1.0,0.0,0.0,0.0,1.0,0.0,0.0,0.0,1.0,-0.150932013988,-0.258212000132,-0.310190141201,1.21846967915e-07,0.0,0.0,0.0,1.21846967915e-07,0.0,0.0,0.0,1.21846967915e-07,0.8825985,0.79433865,12.52309205,9e-08,0.0,0.0,0.0,9e-08,0.0,0.0,0.0,9e-08
1536693453841686520,5975,1536693453841474648,base_link,-0.198569914335,0.207388724228,0.673865224605,-0.680783053,1.0,0.0,0.0,0.0,1.0,0.0,0.0,0.0,1.0,-0.369912803173,-0.215666055679,-0.216691538692,1.21846967915e-07,0.0,0.0,0.0,1.21846967915e-07,0.0,0.0,0.0,1.21846967915e-07,0.57859235,0.85317855,13.03303785,9e-08,0.0,0.0,0.0,9e-08,0.0,0.0,0.0,9e-08
1536693454284835288,5976,1536693454284522264,base_link,0.131525809262,-0.167899642286,-0.724577444729,0.655361120459,1.0,0.0,0.0,0.0,1.0,0.0,0.0,0.0,1.0,-0.3436024189,-0.0833200216293,-0.206982165575,1.21846967915e-07,0.0,0.0,0.0,1.21846967915e-07,0.0,0.0,0.0,1.21846967915e-07,0.20593965,0.85317855,12.8074849,9e-08,0.0,0.0,0.0,9e-08,0.0,0.0,0.0,9e-08
1536693454546863544,5977,1536693454546533528,base_link,0.0930645790617,-0.132627641863,-0.749442846026,0.64193793569,1.0,0.0,0.0,0.0,1.0,0.0,0.0,0.0,1.0,-0.396964609623,-0.0554000660777,-0.157357051969,1.21846967915e-07,0.0,0.0,0.0,1.21846967915e-07,0.0,0.0,0.0,1.21846967915e-07,0.0392266,0.93163175,11.32668075,9e-08,0.0,0.0,0.0,9e-08,0.0,0.0,0.0,9e-08
1536693454863301400,5978,1536693454862916920,base_link,0.0523829690489,-0.094134359376,-0.766413610369,0.633249496471,1.0,0.0,0.0,0.0,1.0,0.0,0.0,0.0,1.0,-0.38181489706,-0.0235507749021,-0.0665073394775,1.21846967915e-07,0.0,0.0,0.0,1.21846967915e-07,0.0,0.0,0.0,1.21846967915e-07,-0.22555295,0.4118793,9.7478101,9e-08,0.0,0.0,0.0,9e-08,0.0,0.0,0.0,9e-08
1536693455247720408,5979,1536693455247404248,base_link,0.0153007685211,-0.0459239924264,-0.776165240278,0.628668746787,1.0,0.0,0.0,0.0,1.0,0.0,0.0,0.0,1.0,-0.190512210131,0.0576550439,-0.0362841971219,1.21846967915e-07,0.0,0.0,0.0,1.21846967915e-07,0.0,0.0,0.0,1.21846967915e-07,-0.5687857,0.20593965,8.433719,9e-08,0.0,0.0,0.0,9e-08,0.0,0.0,0.0,9e-08
1536693455584231544,5980,1536693455583864984,base_link,0.0116767972837,-0.0360543119789,-0.77591989321,0.629692034501,1.0,0.0,0.0,0.0,1.0,0.0,0.0,0.0,1.0,-0.032867833972,0.00702213589102,0.0158056747168,1.21846967915e-07,0.0,0.0,0.0,1.21846967915e-07,0.0,0.0,0.0,1.21846967915e-07,-0.6276256,0.75511205,9.9243298,9e-08,0.0,0.0,0.0,9e-08,0.0,0.0,0.0,9e-08
1536693456069705624,5981,1536693456068458200,base_link,-0.0115351463665,0.0173947955647,-0.777818414703,0.628142400443,1.0,0.0,0.0,0.0,1.0,0.0,0.0,0.0,1.0,-0.193637132645,0.0945189297199,-0.0107745472342,1.21846967915e-07,0.0,0.0,0.0,1.21846967915e-07,0.0,0.0,0.0,1.21846967915e-07,-0.57859235,0.392266,9.24767095,9e-08,0.0,0.0,0.0,9e-08,0.0,0.0,0.0,9e-08
1536693456446443704,5982,1536693456445906008,base_link,-0.0194752442292,0.0563450615132,-0.775078925811,0.629045791392,1.0,0.0,0.0,0.0,1.0,0.0,0.0,0.0,1.0,-0.0856981426477,0.12688729167,0.00985872652382,1.21846967915e-07,0.0,0.0,0.0,1.21846967915e-07,0.0,0.0,0.0,1.21846967915e-07,-0.588399,0.38245935,8.4729456,9e-08,0.0,0.0,0.0,9e-08,0.0,0.0,0.0,9e-08
1536693456851459512,5983,1536693456851224216,base_link,-0.0106210014484,0.0807781857153,-0.764526650564,0.639422457862,1.0,0.0,0.0,0.0,1.0,0.0,0.0,0.0,1.0,0.0134429950267,0.0780331119895,0.103061810136,1.21846967915e-07,0.0,0.0,0.0,1.21846967915e-07,0.0,0.0,0.0,1.21846967915e-07,-0.65704555,0.16671305,7.14904785,9e-08,0.0,0.0,0.0,9e-08,0.0,0.0,0.0,9e-08
1536693457317403384,5984,1536693457316525688,base_link,-0.00618778046841,0.0952822392172,-0.746617277042,0.658365892103,1.0,0.0,0.0,0.0,1.0,0.0,0.0,0.0,1.0,-0.178448945284,0.027647299692,0.109820738435,1.21846967915e-07,0.0,0.0,0.0,1.21846967915e-07,0.0,0.0,0.0,1.21846967915e-07,-0.6080123,0.3530394,9.38496405,9e-08,0.0,0.0,0.0,9e-08,0.0,0.0,0.0,9e-08
1536693457706436632,5985,1536693457700705112,base_link,-0.00341053595559,0.102342751495,-0.733242847978,0.672212210057,1.0,0.0,0.0,0.0,1.0,0.0,0.0,0.0,1.0,0.125329688191,0.0223131403327,0.118079632521,1.21846967915e-07,0.0,0.0,0.0,1.21846967915e-07,0.0,0.0,0.0,1.21846967915e-07,-0.48052585,0.3138128,8.60043205,9e-08,0.0,0.0,0.0,9e-08,0.0,0.0,0.0,9e-08
1536693458016735800,5986,1536693458002078520,base_link,0.00936299821042,0.0868291752961,-0.721061138214,0.687345519764,1.0,0.0,0.0,0.0,1.0,0.0,0.0,0.0,1.0,0.110777556896,-0.0427140779793,0.125824272633,1.21846967915e-07,0.0,0.0,0.0,1.21846967915e-07,0.0,0.0,0.0,1.21846967915e-07,-0.196133,0.3138128,10.0223963,9e-08,0.0,0.0,0.0,9e-08,0.0,0.0,0.0,9e-08
1536693458300802520,5987,1536693458296551320,base_link,0.0170642962898,0.0685265610565,-0.709470715285,0.701187724062,1.0,0.0,0.0,0.0,1.0,0.0,0.0,0.0,1.0,0.0237599033862,-0.045651819557,0.0866530537605,1.21846967915e-07,0.0,0.0,0.0,1.21846967915e-07,0.0,0.0,0.0,1.21846967915e-07,-0.0980665,0.5491724,11.11093445,9e-08,0.0,0.0,0.0,9e-08,0.0,0.0,0.0,9e-08
1536693458720432216,5988,1536693458718086360,base_link,-0.0132916117431,-0.0563996061672,0.70355348679,-0.70827601167,1.0,0.0,0.0,0.0,1.0,0.0,0.0,0.0,1.0,0.0766289234161,-0.0628724098206,0.0182587951422,1.21846967915e-07,0.0,0.0,0.0,1.21846967915e-07,0.0,0.0,0.0,1.21846967915e-07,0.0392266,0.42168595,10.67944185,9e-08,0.0,0.0,0.0,9e-08,0.0,0.0,0.0,9e-08
1536693459107714456,5989,1536693459106316984,base_link,-0.00810209365724,-0.0384706236851,0.698430683021,-0.714597053035,1.0,0.0,0.0,0.0,1.0,0.0,0.0,0.0,1.0,0.0948974788189,-0.0773400142789,0.0419520661235,1.21846967915e-07,0.0,0.0,0.0,1.21846967915e-07,0.0,0.0,0.0,1.21846967915e-07,0.18632635,0.26477955,11.36590735,9e-08,0.0,0.0,0.0,9e-08,0.0,0.0,0.0,9e-08
1536693459546191128,5990,1536693459545960024,base_link,-0.019459663186,0.00163228655359,0.692919729501,-0.720750238028,1.0,0.0,0.0,0.0,1.0,0.0,0.0,0.0,1.0,0.230919569731,-0.093805462122,0.04418457672,1.21846967915e-07,0.0,0.0,0.0,1.21846967915e-07,0.0,0.0,0.0,1.21846967915e-07,0.4903325,0.4511059,13.54298365,9e-08,0.0,0.0,0.0,9e-08,0.0,0.0,0.0,9e-08
1536693460044038392,5991,1536693460043766296,base_link,-0.0364111882913,0.0436105703274,0.687936619182,-0.723543745403,1.0,0.0,0.0,0.0,1.0,0.0,0.0,0.0,1.0,0.128110051155,-0.0648150444031,-0.0288613606244,1.21846967915e-07,0.0,0.0,0.0,1.21846967915e-07,0.0,0.0,0.0,1.21846967915e-07,0.42168595,0.55897905,11.4149406,9e-08,0.0,0.0,0.0,9e-08,0.0,0.0,0.0,9e-08
1536693460439980056,5992,1536693460439531768,base_link,-0.0553433473639,0.0680247254549,0.692103549645,-0.71645127343,1.0,0.0,0.0,0.0,1.0,0.0,0.0,0.0,1.0,0.238376066089,-0.00394482724369,-0.0605164915323,1.21846967915e-07,0.0,0.0,0.0,1.21846967915e-07,0.0,0.0,0.0,1.21846967915e-07,0.42168595,0.65704555,10.787315,9e-08,0.0,0.0,0.0,9e-08,0.0,0.0,0.0,9e-08
1536693460940441016,5993,1536693460940169752,base_link,0.0812812185105,-0.0912348891725,-0.705237590624,0.698362011628,1.0,0.0,0.0,0.0,1.0,0.0,0.0,0.0,1.0,0.241005837917,-0.00770329963416,-0.108682475984,1.21846967915e-07,0.0,0.0,0.0,1.21846967915e-07,0.0,0.0,0.0,1.21846967915e-07,0.1765197,0.51975245,8.87501825,9e-08,0.0,0.0,0.0,9e-08,0.0,0.0,0.0,9e-08
1536693461246195736,5994,1536693461243310680,base_link,0.110398045531,-0.11944389012,-0.70854543259,0.686664982806,1.0,0.0,0.0,0.0,1.0,0.0,0.0,0.0,1.0,0.263381719589,-0.00816062651575,-0.0614782199264,1.21846967915e-07,0.0,0.0,0.0,1.21846967915e-07,0.0,0.0,0.0,1.21846967915e-07,0.0196133,0.44129925,9.1986377,9e-08,0.0,0.0,0.0,9e-08,0.0,0.0,0.0,9e-08
1536693461687861496,5995,1536693461685722680,base_link,0.148252354885,-0.152154620003,-0.717198767806,0.663698831052,1.0,0.0,0.0,0.0,1.0,0.0,0.0,0.0,1.0,0.154965668917,0.00851887557656,-0.167976215482,1.21846967915e-07,0.0,0.0,0.0,1.21846967915e-07,0.0,0.0,0.0,1.21846967915e-07,0.2745862,0.91201845,9.0613446,9e-08,0.0,0.0,0.0,9e-08,0.0,0.0,0.0,9e-08
1536693462144264984,5996,1536693462143990712,base_link,0.183329015852,-0.187155446941,-0.739637866625,0.619918653438,1.0,0.0,0.0,0.0,1.0,0.0,0.0,0.0,1.0,0.207436516881,-0.0909710302949,-0.238892018795,1.21846967915e-07,0.0,0.0,0.0,1.21846967915e-07,0.0,0.0,0.0,1.21846967915e-07,0.44129925,0.53936575,9.60071035,9e-08,0.0,0.0,0.0,9e-08,0.0,0.0,0.0,9e-08
1536693462411763640,5997,1536693462411177912,base_link,0.196739530583,-0.219257848042,-0.755096840778,0.585703264653,1.0,0.0,0.0,0.0,1.0,0.0,0.0,0.0,1.0,0.219119489193,-0.165147870779,-0.213432401419,1.21846967915e-07,0.0,0.0,0.0,1.21846967915e-07,0.0,0.0,0.0,1.21846967915e-07,0.4707192,0.59820565,11.05209455,9e-08,0.0,0.0,0.0,9e-08,0.0,0.0,0.0,9e-08
1536693462724216408,5998,1536693462723243768,base_link,0.203022529251,-0.249182994639,-0.771108147603,0.549619789036,1.0,0.0,0.0,0.0,1.0,0.0,0.0,0.0,1.0,0.181883305311,-0.190000087023,-0.221007719636,1.21846967915e-07,0.0,0.0,0.0,1.21846967915e-07,0.0,0.0,0.0,1.21846967915e-07,0.8041453,0.85317855,11.24822755,9e-08,0.0,0.0,0.0,9e-08,0.0,0.0,0.0,9e-08
1536693463132859544,5999,1536693463126711768,base_link,0.194656337693,-0.28419632481,-0.801247968615,0.489226994299,1.0,0.0,0.0,0.0,1.0,0.0,0.0,0.0,1.0,0.0727505087852,-0.238139003515,-0.296079486609,1.21846967915e-07,0.0,0.0,0.0,1.21846967915e-07,0.0,0.0,0.0,1.21846967915e-07,1.1375714,1.0198916,12.67999845,9e-08,0.0,0.0,0.0,9e-08,0.0,0.0,0.0,9e-08
1536693463588905080,6000,1536693463588382712,base_link,0.171748836531,-0.315986705377,-0.83946008631,0.407383729018,1.0,0.0,0.0,0.0,1.0,0.0,0.0,0.0,1.0,0.0387631729245,-0.316156804562,-0.301067262888,1.21846967915e-07,0.0,0.0,0.0,1.21846967915e-07,0.0,0.0,0.0,1.21846967915e-07,1.569064,1.01008495,13.8077632,9e-08,0.0,0.0,0.0,9e-08,0.0,0.0,0.0,9e-08
1536693463944119288,6001,1536693463943806104,base_link,0.145243566162,-0.343842693465,-0.860617119182,0.346431353677,1.0,0.0,0.0,0.0,1.0,0.0,0.0,0.0,1.0,0.0201689433306,-0.321301430464,-0.257587432861,1.21846967915e-07,0.0,0.0,0.0,1.21846967915e-07,0.0,0.0,0.0,1.21846967915e-07,1.61809725,1.18660465,14.73939495,9e-08,0.0,0.0,0.0,9e-08,0.0,0.0,0.0,9e-08
1536693464355045560,6002,1536693464354807512,base_link,0.103812699527,-0.358041781068,-0.887151796653,0.272012308768,1.0,0.0,0.0,0.0,1.0,0.0,0.0,0.0,1.0,-0.0110320877284,-0.328837960958,-0.277268260717,1.21846967915e-07,0.0,0.0,0.0,1.21846967915e-07,0.0,0.0,0.0,1.21846967915e-07,1.44157755,1.01008495,13.64105015,9e-08,0.0,0.0,0.0,9e-08,0.0,0.0,0.0,9e-08
1536693464830456024,6003,1536693464830118744,base_link,0.049553799139,-0.37706673917,-0.906523004264,0.183251570094,1.0,0.0,0.0,0.0,1.0,0.0,0.0,0.0,1.0,0.0138175729662,-0.378300875425,-0.225441560149,1.21846967915e-07,0.0,0.0,0.0,1.21846967915e-07,0.0,0.0,0.0,1.21846967915e-07,1.34351105,1.176798,15.24934075,9e-08,0.0,0.0,0.0,9e-08,0.0,0.0,0.0,9e-08
1536693465285796824,6004,1536693465285524952,base_link,-0.00294330635207,-0.383688924877,-0.918265737823,0.0977864030152,1.0,0.0,0.0,0.0,1.0,0.0,0.0,0.0,1.0,-0.139061719179,-0.3131095469,-0.294966846704,1.21846967915e-07,0.0,0.0,0.0,1.21846967915e-07,0.0,0.0,0.0,1.21846967915e-07,1.1375714,1.20621795,13.925443,9e-08,0.0,0.0,0.0,9e-08,0.0,0.0,0.0,9e-08
1536693465712758936,6005,1536693465711994104,base_link,-0.0383623928764,-0.337670666381,-0.940330376041,0.016900644141,1.0,0.0,0.0,0.0,1.0,0.0,0.0,0.0,1.0,-0.28029307723,-0.213121429086,-0.270532816648,1.21846967915e-07,0.0,0.0,0.0,1.21846967915e-07,0.0,0.0,0.0,1.21846967915e-07,0.73549875,0.8433719,12.1014061,9e-08,0.0,0.0,0.0,9e-08,0.0,0.0,0.0,9e-08
1536693466112001656,6006,1536693466111790904,base_link,-0.0581650569896,-0.268003429898,-0.960216685603,-0.052677361352,1.0,0.0,0.0,0.0,1.0,0.0,0.0,0.0,1.0,-0.377603828907,-0.123686484993,-0.238810822368,1.21846967915e-07,0.0,0.0,0.0,1.21846967915e-07,0.0,0.0,0.0,1.21846967915e-07,0.1372931,1.0591182,12.552512,9e-08,0.0,0.0,0.0,9e-08,0.0,0.0,0.0,9e-08
1536693466513272120,6007,1536693466512687096,base_link,-0.0533854787262,-0.197121343745,-0.97357251592,-0.102223885403,1.0,0.0,0.0,0.0,1.0,0.0,0.0,0.0,1.0,-0.337211638689,0.000622475519776,-0.180913642049,1.21846967915e-07,0.0,0.0,0.0,1.21846967915e-07,0.0,0.0,0.0,1.21846967915e-07,-0.1569064,0.4314926,9.63993695,9e-08,0.0,0.0,0.0,9e-08,0.0,0.0,0.0,9e-08
1536693467097256024,6008,1536693467096460984,base_link,-0.0223477392278,-0.102724059584,-0.983336518848,-0.148316003296,1.0,0.0,0.0,0.0,1.0,0.0,0.0,0.0,1.0,-0.383182138205,0.0886767208576,-0.142261996865,1.21846967915e-07,0.0,0.0,0.0,1.21846967915e-07,0.0,0.0,0.0,1.21846967915e-07,-0.53936575,0.6276256,8.56120545,9e-08,0.0,0.0,0.0,9e-08,0.0,0.0,0.0,9e-08
1536693467462345624,6009,1536693467461025016,base_link,0.00250897282306,-0.0463285733071,-0.984601419786,-0.168544986597,1.0,0.0,0.0,0.0,1.0,0.0,0.0,0.0,1.0,-0.295652747154,0.0552708096802,-0.0790746286511,1.21846967915e-07,0.0,0.0,0.0,1.21846967915e-07,0.0,0.0,0.0,1.21846967915e-07,-0.63743225,0.4118793,7.8649333,9e-08,0.0,0.0,0.0,9e-08,0.0,0.0,0.0,9e-08
1536693467925602680,6010,1536693467923798264,base_link,0.0207936457135,-0.0045545402188,-0.985463665542,-0.168547454318,1.0,0.0,0.0,0.0,1.0,0.0,0.0,0.0,1.0,-0.213528871536,0.0350449755788,0.0589892044663,1.21846967915e-07,0.0,0.0,0.0,1.21846967915e-07,0.0,0.0,0.0,1.21846967915e-07,-0.6080123,0.24516625,9.56148375,9e-08,0.0,0.0,0.0,9e-08,0.0,0.0,0.0,9e-08
1536693468261675160,6011,1536693468261403224,base_link,0.0314137639233,0.0251146796843,-0.986540512682,-0.158493675385,1.0,0.0,0.0,0.0,1.0,0.0,0.0,0.0,1.0,-0.204781800508,0.0409022197127,0.0337490923703,1.21846967915e-07,0.0,0.0,0.0,1.21846967915e-07,0.0,0.0,0.0,1.21846967915e-07,-0.59820565,0.34323275,9.07115125,9e-08,0.0,0.0,0.0,9e-08,0.0,0.0,0.0,9e-08
1536693468546172440,6012,1536693468540399576,base_link,0.0403019489094,0.0479753493413,-0.986085880887,-0.153976473152,1.0,0.0,0.0,0.0,1.0,0.0,0.0,0.0,1.0,-0.122375763953,0.0480075888336,0.00171119254082,1.21846967915e-07,0.0,0.0,0.0,1.21846967915e-07,0.0,0.0,0.0,1.21846967915e-07,-0.61781895,0.42168595,9.26728425,9e-08,0.0,0.0,0.0,9e-08,0.0,0.0,0.0,9e-08
1536693468941219992,6013,1536693468940904568,base_link,0.0562525012069,0.0459559363534,-0.986408111035,-0.147386385078,1.0,0.0,0.0,0.0,1.0,0.0,0.0,0.0,1.0,-0.0545460879803,0.0986815094948,0.0802651271224,1.21846967915e-07,0.0,0.0,0.0,1.21846967915e-07,0.0,0.0,0.0,1.21846967915e-07,-0.7060788,0.4118793,8.6690786,9e-08,0.0,0.0,0.0,9e-08,0.0,0.0,0.0,9e-08
1536693469350971960,6014,1536693469350616088,base_link,0.0734044169226,0.0502817989928,-0.987385540295,-0.130970710784,1.0,0.0,0.0,0.0,1.0,0.0,0.0,0.0,1.0,0.0731391459703,0.0476968847215,0.100177593529,1.21846967915e-07,0.0,0.0,0.0,1.21846967915e-07,0.0,0.0,0.0,1.21846967915e-07,-0.6864655,0.02941995,8.26700595,9e-08,0.0,0.0,0.0,9e-08,0.0,0.0,0.0,9e-08
1536693469713641944,6015,1536693469713163704,base_link,0.0771078251549,0.0357057941253,-0.99032182436,-0.109736793109,1.0,0.0,0.0,0.0,1.0,0.0,0.0,0.0,1.0,-0.00741684623063,0.0267382375896,0.106537207961,1.21846967915e-07,0.0,0.0,0.0,1.21846967915e-07,0.0,0.0,0.0,1.21846967915e-07,-0.6080123,0.2157463,8.629852,9e-08,0.0,0.0,0.0,9e-08,0.0,0.0,0.0,9e-08
1536693470150118616,6016,1536693470147783256,base_link,0.0735999830015,0.044993055526,-0.992644921749,-0.0849395478094,1.0,0.0,0.0,0.0,1.0,0.0,0.0,0.0,1.0,-0.204406231642,-0.0282051898539,0.0917292162776,1.21846967915e-07,0.0,0.0,0.0,1.21846967915e-07,0.0,0.0,0.0,1.21846967915e-07,-0.5295591,0.51975245,10.4538889,9e-08,0.0,0.0,0.0,9e-08,0.0,0.0,0.0,9e-08
1536693470552771160,6017,1536693470552330136,base_link,0.0720581745845,0.0532580219746,-0.993299332041,-0.0729906811754,1.0,0.0,0.0,0.0,1.0,0.0,0.0,0.0,1.0,0.114089101553,-0.0319924764335,0.0380170606077,1.21846967915e-07,0.0,0.0,0.0,1.21846967915e-07,0.0,0.0,0.0,1.21846967915e-07,-0.4314926,0.196133,9.30651085,9e-08,0.0,0.0,0.0,9e-08,0.0,0.0,0.0,9e-08
1536693470895931896,6018,1536693470895610264,base_link,0.0601300371969,0.0282197917189,-0.996058566147,-0.0587822659287,1.0,0.0,0.0,0.0,1.0,0.0,0.0,0.0,1.0,0.138921707869,-0.0774883851409,0.115987218916,1.21846967915e-07,0.0,0.0,0.0,1.21846967915e-07,0.0,0.0,0.0,1.21846967915e-07,-0.3530394,0.2745862,10.591182,9e-08,0.0,0.0,0.0,9e-08,0.0,0.0,0.0,9e-08
1536693471339075800,6019,1536693471338703832,base_link,0.0356086429492,0.00396516402291,-0.998797807632,-0.0334550667558,1.0,0.0,0.0,0.0,1.0,0.0,0.0,0.0,1.0,0.0641127154231,-0.098079867661,0.06605912745,1.21846967915e-07,0.0,0.0,0.0,1.21846967915e-07,0.0,0.0,0.0,1.21846967915e-07,-0.0392266,0.5687857,11.60126695,9e-08,0.0,0.0,0.0,9e-08,0.0,0.0,0.0,9e-08
1536693471778698520,6020,1536693471778365272,base_link,0.0192560166188,-0.0132332924559,-0.999350998811,-0.0274165455528,1.0,0.0,0.0,0.0,1.0,0.0,0.0,0.0,1.0,0.0704717114568,-0.068019233644,0.00327893905342,1.21846967915e-07,0.0,0.0,0.0,1.21846967915e-07,0.0,0.0,0.0,1.21846967915e-07,-0.1372931,0.4511059,11.1991943,9e-08,0.0,0.0,0.0,9e-08,0.0,0.0,0.0,9e-08
1536693472208908152,6021,1536693472207680248,base_link,0.00452060316168,-0.0371534924935,-0.999029155479,-0.023236364713,1.0,0.0,0.0,0.0,1.0,0.0,0.0,0.0,1.0,0.118914060295,-0.0458175353706,0.0074767023325,1.21846967915e-07,0.0,0.0,0.0,1.21846967915e-07,0.0,0.0,0.0,1.21846967915e-07,-0.20593965,0.588399,10.2381426,9e-08,0.0,0.0,0.0,9e-08,0.0,0.0,0.0,9e-08
1536693472592095000,6022,1536693472591522264,base_link,-0.000289852459705,-0.0558185268828,-0.99814493092,-0.0243085359571,1.0,0.0,0.0,0.0,1.0,0.0,0.0,0.0,1.0,0.0848717689514,-0.00991735421121,-0.0244287848473,1.21846967915e-07,0.0,0.0,0.0,1.21846967915e-07,0.0,0.0,0.0,1.21846967915e-07,-0.08825985,0.5687857,10.34601575,9e-08,0.0,0.0,0.0,9e-08,0.0,0.0,0.0,9e-08
1536693472951480312,6023,1536693472951185208,base_link,-0.00548189003798,-0.0673516487081,-0.997260608461,-0.0300829372023,1.0,0.0,0.0,0.0,1.0,0.0,0.0,0.0,1.0,0.0297621935606,-0.0255531594157,-0.0314983092248,1.21846967915e-07,0.0,0.0,0.0,1.21846967915e-07,0.0,0.0,0.0,1.21846967915e-07,0.02941995,0.59820565,10.2577559,9e-08,0.0,0.0,0.0,9e-08,0.0,0.0,0.0,9e-08
1536693473307130488,6024,1536693473306657272,base_link,-0.00234325605196,-0.0682342978549,-0.997088347474,-0.0339619946215,1.0,0.0,0.0,0.0,1.0,0.0,0.0,0.0,1.0,-0.00789284519851,0.0294934753329,-0.0262851454318,1.21846967915e-07,0.0,0.0,0.0,1.21846967915e-07,0.0,0.0,0.0,1.21846967915e-07,0.0784532,0.57859235,9.7674234,9e-08,0.0,0.0,0.0,9e-08,0.0,0.0,0.0,9e-08
1536693473740893560,6025,1536693473740578776,base_link,0.00536217743586,-0.0677474227673,-0.996764956621,-0.0429086822679,1.0,0.0,0.0,0.0,1.0,0.0,0.0,0.0,1.0,0.00139943510294,0.0167361162603,-0.0521020740271,1.21846967915e-07,0.0,0.0,0.0,1.21846967915e-07,0.0,0.0,0.0,1.21846967915e-07,0.1765197,0.5491724,9.24767095,9e-08,0.0,0.0,0.0,9e-08,0.0,0.0,0.0,9e-08
1536693474111578904,6026,1536693474111318808,base_link,0.00952645026747,-0.0651329089594,-0.996646298785,-0.0486117890327,1.0,0.0,0.0,0.0,1.0,0.0,0.0,0.0,1.0,-0.0378997325897,-0.0150074698031,-0.0269607137889,1.21846967915e-07,0.0,0.0,0.0,1.21846967915e-07,0.0,0.0,0.0,1.21846967915e-07,0.196133,0.6864655,9.30651085,9e-08,0.0,0.0,0.0,9e-08,0.0,0.0,0.0,9e-08
1536693474401672792,6027,1536693474401417784,base_link,0.00239221159833,-0.0604438668296,-0.996790744638,-0.0524311709855,1.0,0.0,0.0,0.0,1.0,0.0,0.0,0.0,1.0,-0.0360265299678,-0.0485127493739,-0.0205573663116,1.21846967915e-07,0.0,0.0,0.0,1.21846967915e-07,0.0,0.0,0.0,1.21846967915e-07,0.1569064,0.48052585,10.787315,9e-08,0.0,0.0,0.0,9e-08,0.0,0.0,0.0,9e-08
1536693474887973272,6028,1536693474887443512,base_link,-0.00933399305346,-0.0481756666724,-0.997238576709,-0.0557422894853,1.0,0.0,0.0,0.0,1.0,0.0,0.0,0.0,1.0,-0.0597337260842,-0.0465410277247,-0.00046123797074,1.21846967915e-07,0.0,0.0,0.0,1.21846967915e-07,0.0,0.0,0.0,1.21846967915e-07,0.22555295,0.46091255,11.48358715,9e-08,0.0,0.0,0.0,9e-08,0.0,0.0,0.0,9e-08
1536693475285899352,6029,1536693475285570392,base_link,-0.0151960585971,-0.0447229909653,-0.994221177817,-0.0964011590281,1.0,0.0,0.0,0.0,1.0,0.0,0.0,0.0,1.0,0.139306008816,-0.0269341208041,-0.761749923229,1.21846967915e-07,0.0,0.0,0.0,1.21846967915e-07,0.0,0.0,0.0,1.21846967915e-07,0.16671305,0.980665,10.8069283,9e-08,0.0,0.0,0.0,9e-08,0.0,0.0,0.0,9e-08
1536693475739056088,6030,1536693475738682584,base_link,0.00072332331974,-0.160460645291,-0.952677808361,-0.258179882198,1.0,0.0,0.0,0.0,1.0,0.0,0.0,0.0,1.0,0.407980680466,0.235759824514,-0.328904032707,1.21846967915e-07,0.0,0.0,0.0,1.21846967915e-07,0.0,0.0,0.0,1.21846967915e-07,0.59820565,-3.4715541,10.2185293,9e-08,0.0,0.0,0.0,9e-08,0.0,0.0,0.0,9e-08
1536693476210246040,6031,1536693476210026424,base_link,0.0286454268282,-0.150741732356,-0.944836317436,-0.289379859184,1.0,0.0,0.0,0.0,1.0,0.0,0.0,0.0,1.0,-0.403149694204,-0.11787994206,-0.28780734539,1.21846967915e-07,0.0,0.0,0.0,1.21846967915e-07,0.0,0.0,0.0,1.21846967915e-07,0.57859235,-2.06920315,8.6494653,9e-08,0.0,0.0,0.0,9e-08,0.0,0.0,0.0,9e-08
1536693476704358104,6032,1536693476703758456,base_link,0.0405881091513,-0.0466805690773,-0.928920649557,-0.365075275377,1.0,0.0,0.0,0.0,1.0,0.0,0.0,0.0,1.0,-0.382590800524,-0.102739840746,-0.287388324738,1.21846967915e-07,0.0,0.0,0.0,1.21846967915e-07,0.0,0.0,0.0,1.21846967915e-07,0.83356525,-3.16754795,10.002783,9e-08,0.0,0.0,0.0,9e-08,0.0,0.0,0.0,9e-08
1536693477066097880,6033,1536693477065882840,base_link,0.0525855597072,0.0342863893465,-0.91923846133,-0.388664191336,1.0,0.0,0.0,0.0,1.0,0.0,0.0,0.0,1.0,-0.447780251503,-0.114579841495,-0.106805734336,1.21846967915e-07,0.0,0.0,0.0,1.21846967915e-07,0.0,0.0,0.0,1.21846967915e-07,0.91201845,-3.30484105,9.5124505,9e-08,0.0,0.0,0.0,9e-08,0.0,0.0,0.0,9e-08
1536693477566940440,6034,1536693477566443544,base_link,0.0610339168628,0.141290041326,-0.906125599797,-0.394015713655,1.0,0.0,0.0,0.0,1.0,0.0,0.0,0.0,1.0,-0.346981704235,-0.122245550156,-0.0679185464978,1.21846967915e-07,0.0,0.0,0.0,1.21846967915e-07,0.0,0.0,0.0,1.21846967915e-07,1.2944778,-3.2558078,9.65955025,9e-08,0.0,0.0,0.0,9e-08,0.0,0.0,0.0,9e-08
1536693478034255192,6035,1536693478033943160,base_link,0.0546024239534,0.211076089014,-0.897012193784,-0.384492632111,1.0,0.0,0.0,0.0,1.0,0.0,0.0,0.0,1.0,-0.222561046481,-0.136595711112,0.0326304957271,1.21846967915e-07,0.0,0.0,0.0,1.21846967915e-07,0.0,0.0,0.0,1.21846967915e-07,1.85345685,-3.6480738,10.26756255,9e-08,0.0,0.0,0.0,9e-08,0.0,0.0,0.0,9e-08
1536693478536315288,6036,1536693478535885400,base_link,0.0371260917994,0.254891147345,-0.896966923766,-0.359308355013,1.0,0.0,0.0,0.0,1.0,0.0,0.0,0.0,1.0,-0.0880652219057,-0.162774950266,0.0435244366527,1.21846967915e-07,0.0,0.0,0.0,1.21846967915e-07,0.0,0.0,0.0,1.21846967915e-07,2.0986231,-3.73633365,11.11093445,9e-08,0.0,0.0,0.0,9e-08,0.0,0.0,0.0,9e-08
1536693478903869976,6037,1536693478903570776,base_link,0.0162982878974,0.279155054884,-0.898335488994,-0.338821738319,1.0,0.0,0.0,0.0,1.0,0.0,0.0,0.0,1.0,-0.0068083461374,-0.169301122427,0.0558452121913,1.21846967915e-07,0.0,0.0,0.0,1.21846967915e-07,0.0,0.0,0.0,1.21846967915e-07,2.20649625,-4.10898635,11.30706745,9e-08,0.0,0.0,0.0,9e-08,0.0,0.0,0.0,9e-08
1536693479243426360,6038,1536693479243131992,base_link,0.000987822451366,0.284699382993,-0.904753490575,-0.316806576355,1.0,0.0,0.0,0.0,1.0,0.0,0.0,0.0,1.0,0.033487200737,-0.059310529381,0.0996513143182,1.21846967915e-07,0.0,0.0,0.0,1.21846967915e-07,0.0,0.0,0.0,1.21846967915e-07,2.1770763,-4.1972462,10.2185293,9e-08,0.0,0.0,0.0,9e-08,0.0,0.0,0.0,9e-08
1536693479607676792,6039,1536693479607372280,base_link,-0.00257493914224,0.294923782282,-0.908777309406,-0.295189996851,1.0,0.0,0.0,0.0,1.0,0.0,0.0,0.0,1.0,-0.00777211226523,-0.0624806955457,0.0517666563392,1.21846967915e-07,0.0,0.0,0.0,1.21846967915e-07,0.0,0.0,0.0,1.21846967915e-07,2.06920315,-4.0403398,8.67888525,9e-08,0.0,0.0,0.0,9e-08,0.0,0.0,0.0,9e-08
1536693479923281496,6040,1536693479923051736,base_link,-0.00852525708387,0.295272277071,-0.912385564853,-0.283362283012,1.0,0.0,0.0,0.0,1.0,0.0,0.0,0.0,1.0,0.0203268453479,-0.0224256440997,0.0675972700119,1.21846967915e-07,0.0,0.0,0.0,1.21846967915e-07,0.0,0.0,0.0,1.21846967915e-07,1.85345685,-4.14821295,8.8063717,9e-08,0.0,0.0,0.0,9e-08,0.0,0.0,0.0,9e-08
1536693480451892280,6041,1536693480451533176,base_link,-0.0104293231204,0.298275277229,-0.917867086195,-0.261616322681,1.0,0.0,0.0,0.0,1.0,0.0,0.0,0.0,1.0,0.0464354380965,-0.0163960438222,0.0812587440014,1.21846967915e-07,0.0,0.0,0.0,1.21846967915e-07,0.0,0.0,0.0,1.21846967915e-07,2.0201699,-4.3541526,8.6102387,9e-08,0.0,0.0,0.0,9e-08,0.0,0.0,0.0,9e-08
1536693480934158616,6042,1536693480933454648,base_link,-0.0119357345965,0.302421358609,-0.924195100486,-0.232942646021,1.0,0.0,0.0,0.0,1.0,0.0,0.0,0.0,1.0,-0.01078928262,-0.0579874999821,0.0838732197881,1.21846967915e-07,0.0,0.0,0.0,1.21846967915e-07,0.0,0.0,0.0,1.21846967915e-07,1.9221034,-4.05014645,8.73772515,9e-08,0.0,0.0,0.0,9e-08,0.0,0.0,0.0,9e-08
1536693481218254456,6043,1536693481218022648,base_link,-0.0187531879708,0.309653834858,-0.925299648528,-0.218136152282,1.0,0.0,0.0,0.0,1.0,0.0,0.0,0.0,1.0,-0.0347069911659,-0.0695214495063,0.0733321905136,1.21846967915e-07,0.0,0.0,0.0,1.21846967915e-07,0.0,0.0,0.0,1.21846967915e-07,1.9221034,-4.48163905,8.3552658,9e-08,0.0,0.0,0.0,9e-08,0.0,0.0,0.0,9e-08
1536693481601245016,6044,1536693481600779672,base_link,-0.0287274696393,0.316066241834,-0.927080756369,-0.199494697754,1.0,0.0,0.0,0.0,1.0,0.0,0.0,0.0,1.0,0.0371405109763,-0.0774936303496,0.0645778998733,1.21846967915e-07,0.0,0.0,0.0,1.21846967915e-07,0.0,0.0,0.0,1.21846967915e-07,1.63771055,-4.4129925,8.77695175,9e-08,0.0,0.0,0.0,9e-08,0.0,0.0,0.0,9e-08
1536693481834478968,6045,1536693481834234840,base_link,-0.0358581535861,0.303549393208,-0.93397774193,-0.185087915014,1.0,0.0,0.0,0.0,1.0,0.0,0.0,0.0,1.0,0.154192477465,-0.0755880475044,0.0795891731977,1.21846967915e-07,0.0,0.0,0.0,1.21846967915e-07,0.0,0.0,0.0,1.21846967915e-07,1.9809433,-4.40318585,9.3359308,9e-08,0.0,0.0,0.0,9e-08,0.0,0.0,0.0,9e-08
1536693482190561240,6046,1536693482190270456,base_link,-0.0522672904641,0.285323310362,-0.942556940511,-0.16566578647,1.0,0.0,0.0,0.0,1.0,0.0,0.0,0.0,1.0,0.159713357687,-0.108780533075,0.0479572191834,1.21846967915e-07,0.0,0.0,0.0,1.21846967915e-07,0.0,0.0,0.0,1.21846967915e-07,1.83384355,-4.2756994,11.571847,9e-08,0.0,0.0,0.0,9e-08,0.0,0.0,0.0,9e-08
1536693482651765496,6047,1536693482651531224,base_link,-0.0672529472863,0.199304603146,-0.967218778599,-0.142276317678,1.0,0.0,0.0,0.0,1.0,0.0,0.0,0.0,1.0,0.661719381809,0.0547747015953,0.0764857381582,1.21846967915e-07,0.0,0.0,0.0,1.21846967915e-07,0.0,0.0,0.0,1.21846967915e-07,1.4121576,-3.8834334,10.87557485,9e-08,0.0,0.0,0.0,9e-08,0.0,0.0,0.0,9e-08
1536693482924960152,6048,1536693482924657208,base_link,-0.068614162436,0.103110358056,-0.984381458297,-0.125113929422,1.0,0.0,0.0,0.0,1.0,0.0,0.0,0.0,1.0,0.744911015034,0.099596478045,0.0727386698127,1.21846967915e-07,0.0,0.0,0.0,1.21846967915e-07,0.0,0.0,0.0,1.21846967915e-07,1.24544455,-3.24600115,11.8660465,9e-08,0.0,0.0,0.0,9e-08,0.0,0.0,0.0,9e-08
1536693483389139512,6049,1536693483387397112,base_link,-0.073472488008,-0.115148983825,-0.984462044239,-0.110349392766,1.0,0.0,0.0,0.0,1.0,0.0,0.0,0.0,1.0,1.01851379871,0.0581931769848,-0.119433306158,1.21846967915e-07,0.0,0.0,0.0,1.21846967915e-07,0.0,0.0,0.0,1.21846967915e-07,0.59820565,-2.08881645,12.73883835,9e-08,0.0,0.0,0.0,9e-08,0.0,0.0,0.0,9e-08
1536693483842689112,6050,1536693483842428088,base_link,-0.0800208458334,-0.283651450286,-0.942540484054,-0.15734025201,1.0,0.0,0.0,0.0,1.0,0.0,0.0,0.0,1.0,0.512382924557,-0.0447146743536,-0.42332971096,1.21846967915e-07,0.0,0.0,0.0,1.21846967915e-07,0.0,0.0,0.0,1.21846967915e-07,0.6080123,-1.8044236,11.1403544,9e-08,0.0,0.0,0.0,9e-08,0.0,0.0,0.0,9e-08
1536693484210391480,6051,1536693484210190776,base_link,-0.0884438682481,-0.352874629671,-0.900152935619,-0.239545132284,1.0,0.0,0.0,0.0,1.0,0.0,0.0,0.0,1.0,0.322164565325,-0.200476169586,-0.540077805519,1.21846967915e-07,0.0,0.0,0.0,1.21846967915e-07,0.0,0.0,0.0,1.21846967915e-07,0.9414384,-2.1182364,12.6113519,9e-08,0.0,0.0,0.0,9e-08,0.0,0.0,0.0,9e-08
1536693484643583064,6052,1536693484643243032,base_link,-0.11280404223,-0.390361603673,-0.840835295921,-0.357615815601,1.0,0.0,0.0,0.0,1.0,0.0,0.0,0.0,1.0,0.20858412981,-0.332230895758,-0.513062357903,1.21846967915e-07,0.0,0.0,0.0,1.21846967915e-07,0.0,0.0,0.0,1.21846967915e-07,1.10815145,-2.08881645,12.160246,9e-08,0.0,0.0,0.0,9e-08,0.0,0.0,0.0,9e-08
1536693485078497880,6053,1536693485078183576,base_link,-0.160407379722,-0.392507465674,-0.762913822907,-0.488026495938,1.0,0.0,0.0,0.0,1.0,0.0,0.0,0.0,1.0,0.019666550681,-0.481603384018,-0.585163354874,1.21846967915e-07,0.0,0.0,0.0,1.21846967915e-07,0.0,0.0,0.0,1.21846967915e-07,1.3925443,-1.59848395,14.42558215,9e-08,0.0,0.0,0.0,9e-08,0.0,0.0,0.0,9e-08
1536693485601653176,6054,1536693485601013528,base_link,-0.195696772612,-0.320528266849,-0.657279922668,-0.65341220267,1.0,0.0,0.0,0.0,1.0,0.0,0.0,0.0,1.0,-0.182225003839,-0.507890045643,-0.566462635994,1.21846967915e-07,0.0,0.0,0.0,1.21846967915e-07,0.0,0.0,0.0,1.21846967915e-07,1.4513842,-2.24572285,15.1610809,9e-08,0.0,0.0,0.0,9e-08,0.0,0.0,0.0,9e-08
1536693485954038264,6055,1536693485953656344,base_link,-0.183027529999,-0.240594205669,-0.587466632795,-0.750665242843,1.0,0.0,0.0,0.0,1.0,0.0,0.0,0.0,1.0,-0.497363954782,-0.377767503262,-0.487889498472,1.21846967915e-07,0.0,0.0,0.0,1.21846967915e-07,0.0,0.0,0.0,1.21846967915e-07,1.01008495,-2.01036325,13.5135637,9e-08,0.0,0.0,0.0,9e-08,0.0,0.0,0.0,9e-08
1536693486341464184,6056,1536693486341204760,base_link,-0.10719610866,-0.135648977569,-0.524780958246,-0.833494628078,1.0,0.0,0.0,0.0,1.0,0.0,0.0,0.0,1.0,-0.6809040308,-0.180382817984,-0.367185652256,1.21846967915e-07,0.0,0.0,0.0,1.21846967915e-07,0.0,0.0,0.0,1.21846967915e-07,0.55897905,-2.3143694,10.62060195,9e-08,0.0,0.0,0.0,9e-08,0.0,0.0,0.0,9e-08
1536693486791759000,6057,1536693486791435288,base_link,0.0295959248477,-0.0345627394708,-0.485415638458,-0.873098594784,1.0,0.0,0.0,0.0,1.0,0.0,0.0,0.0,1.0,-0.846845626831,-0.0222068503499,-0.150992646813,1.21846967915e-07,0.0,0.0,0.0,1.21846967915e-07,0.0,0.0,0.0,1.21846967915e-07,0.12748645,-2.14765635,7.58054045,9e-08,0.0,0.0,0.0,9e-08,0.0,0.0,0.0,9e-08
1536693487150874360,6058,1536693487150620984,base_link,0.128119211539,0.0250730575149,-0.469726871203,-0.873105649902,1.0,0.0,0.0,0.0,1.0,0.0,0.0,0.0,1.0,-0.501545965672,0.0289318226278,-0.0486051104963,1.21846967915e-07,0.0,0.0,0.0,1.21846967915e-07,0.0,0.0,0.0,1.21846967915e-07,0.16671305,-2.28494945,6.9823348,9e-08,0.0,0.0,0.0,9e-08,0.0,0.0,0.0,9e-08
1536693487567308888,6059,1536693487567025688,base_link,0.20711943233,0.0634082144473,-0.467970477841,-0.856787354576,1.0,0.0,0.0,0.0,1.0,0.0,0.0,0.0,1.0,-0.369988650084,0.00298858713359,0.0767895206809,1.21846967915e-07,0.0,0.0,0.0,1.21846967915e-07,0.0,0.0,0.0,1.21846967915e-07,0.16671305,-2.46146915,6.95291485,9e-08,0.0,0.0,0.0,9e-08,0.0,0.0,0.0,9e-08
1536693487924997688,6060,1536693487919635864,base_link,0.248504125327,0.0989872648642,-0.479927176575,-0.835534036575,1.0,0.0,0.0,0.0,1.0,0.0,0.0,0.0,1.0,-0.273879855871,-0.132365718484,0.0816026777029,1.21846967915e-07,0.0,0.0,0.0,1.21846967915e-07,0.0,0.0,0.0,1.21846967915e-07,0.55897905,-2.5693423,8.0022264,9e-08,0.0,0.0,0.0,9e-08,0.0,0.0,0.0,9e-08
1536693488205842488,6061,1536693488205623064,base_link,0.259445590397,0.12769770265,-0.492228672557,-0.821031190805,1.0,0.0,0.0,0.0,1.0,0.0,0.0,0.0,1.0,-0.155311986804,-0.154377445579,0.0710935220122,1.21846967915e-07,0.0,0.0,0.0,1.21846967915e-07,0.0,0.0,0.0,1.21846967915e-07,0.89240515,-3.22638785,10.3165958,9e-08,0.0,0.0,0.0,9e-08,0.0,0.0,0.0,9e-08
1536693488581279544,6062,1536693488580188024,base_link,0.261563299889,0.167361093671,-0.513651463835,-0.79983565698,1.0,0.0,0.0,0.0,1.0,0.0,0.0,0.0,1.0,-0.0386924222112,-0.230120584369,0.100800938904,1.21846967915e-07,0.0,0.0,0.0,1.21846967915e-07,0.0,0.0,0.0,1.21846967915e-07,1.24544455,-3.63826715,11.11093445,9e-08,0.0,0.0,0.0,9e-08,0.0,0.0,0.0,9e-08
1536693489018710872,6063,1536693489014206360,base_link,0.23455959813,0.207015099223,-0.553397878685,-0.771930911083,1.0,0.0,0.0,0.0,1.0,0.0,0.0,0.0,1.0,0.0357694476843,-0.295035511255,0.0914234593511,1.21846967915e-07,0.0,0.0,0.0,1.21846967915e-07,0.0,0.0,0.0,1.21846967915e-07,1.5494507,-3.7069137,12.3759923,9e-08,0.0,0.0,0.0,9e-08,0.0,0.0,0.0,9e-08
1536693489450172504,6064,1536693489449967384,base_link,0.182644176937,0.23316561375,-0.589595048982,-0.751433682644,1.0,0.0,0.0,0.0,1.0,0.0,0.0,0.0,1.0,0.223296180367,-0.284235864878,0.0750830322504,1.21846967915e-07,0.0,0.0,0.0,1.21846967915e-07,0.0,0.0,0.0,1.21846967915e-07,1.95152335,-3.65788045,13.79795655,9e-08,0.0,0.0,0.0,9e-08,0.0,0.0,0.0,9e-08
