%time,field.header.seq,field.header.stamp,field.header.frame_id,field.orientation.x,field.orientation.y,field.orientation.z,field.orientation.w,field.orientation_covariance0,field.orientation_covariance1,field.orientation_covariance2,field.orientation_covariance3,field.orientation_covariance4,field.orientation_covariance5,field.orientation_covariance6,field.orientation_covariance7,field.orientation_covariance8,field.angular_velocity.x,field.angular_velocity.y,field.angular_velocity.z,field.angular_velocity_covariance0,field.angular_velocity_covariance1,field.angular_velocity_covariance2,field.angular_velocity_covariance3,field.angular_velocity_covariance4,field.angular_velocity_covariance5,field.angular_velocity_covariance6,field.angular_velocity_covariance7,field.angular_velocity_covariance8,field.linear_acceleration.x,field.linear_acceleration.y,field.linear_acceleration.z,field.linear_acceleration_covariance0,field.linear_acceleration_covariance1,field.linear_acceleration_covariance2,field.linear_acceleration_covariance3,field.linear_acceleration_covariance4,field.linear_acceleration_covariance5,field.linear_acceleration_covariance6,field.linear_acceleration_covariance7,field.linear_acceleration_covariance8
1532134949028679376,14547,1532134949028312368,base_link,0.0,0.0,0.0,0.0,-1.0,0.0,0.0,0.0,0.0,0.0,0.0,0.0,0.0,0.818,-0.599,0.037,1.21846967915e-07,0.0,0.0,0.0,1.21846967915e-07,0.0,0.0,0.0,1.21846967915e-07,0.3530394,0.48052585,18.17172245,9e-08,0.0,0.0,0.0,9e-08,0.0,0.0,0.0,9e-08
1532134949120417328,14548,1532134949119885648,base_link,0.0,0.0,0.0,0.0,-1.0,0.0,0.0,0.0,0.0,0.0,0.0,0.0,0.0,0.556,-0.565,0.039,1.21846967915e-07,0.0,0.0,0.0,1.21846967915e-07,0.0,0.0,0.0,1.21846967915e-07,0.08825985,0.9218251,17.97558945,9e-08,0.0,0.0,0.0,9e-08,0.0,0.0,0.0,9e-08
1532134949219038992,14549,1532134949208348016,base_link,0.0,0.0,0.0,0.0,-1.0,0.0,0.0,0.0,0.0,0.0,0.0,0.0,0.0,0.331,-0.497,-0.052,1.21846967915e-07,0.0,0.0,0.0,1.21846967915e-07,0.0,0.0,0.0,1.21846967915e-07,-0.10787315,1.10815145,16.34768555,9e-08,0.0,0.0,0.0,9e-08,0.0,0.0,0.0,9e-08
1532134949317441136,14550,1532134949316853072,base_link,0.0,0.0,0.0,0.0,-1.0,0.0,0.0,0.0,0.0,0.0,0.0,0.0,0.0,0.192,-0.469,-0.164,1.21846967915e-07,0.0,0.0,0.0,1.21846967915e-07,0.0,0.0,0.0,1.21846967915e-07,-0.2549729,1.06892485,16.5536252,9e-08,0.0,0.0,0.0,9e-08,0.0,0.0,0.0,9e-08
1532134949414824272,14551,1532134949412272720,base_link,0.0,0.0,0.0,0.0,-1.0,0.0,0.0,0.0,0.0,0.0,0.0,0.0,0.0,0.185,-0.398,-0.237,1.21846967915e-07,0.0,0.0,0.0,1.21846967915e-07,0.0,0.0,0.0,1.21846967915e-07,-0.38245935,1.5102241,14.2980957,9e-08,0.0,0.0,0.0,9e-08,0.0,0.0,0.0,9e-08
1532134949491110480,14552,1532134949490694768,base_link,0.0,0.0,0.0,0.0,-1.0,0.0,0.0,0.0,0.0,0.0,0.0,0.0,0.0,0.081,-0.326,-0.326,1.21846967915e-07,0.0,0.0,0.0,1.21846967915e-07,0.0,0.0,0.0,1.21846967915e-07,-0.46091255,1.53964405,12.83690485,9e-08,0.0,0.0,0.0,9e-08,0.0,0.0,0.0,9e-08
1532134949609826736,14553,1532134949606427312,base_link,0.0,0.0,0.0,0.0,-1.0,0.0,0.0,0.0,0.0,0.0,0.0,0.0,0.0,-0.094,-0.304,-0.353,1.21846967915e-07,0.0,0.0,0.0,1.21846967915e-07,0.0,0.0,0.0,1.21846967915e-07,-0.34323275,1.0198916,13.3762706,9e-08,0.0,0.0,0.0,9e-08,0.0,0.0,0.0,9e-08
1532134949705911600,14554,1532134949705440688,base_link,0.0,0.0,0.0,0.0,-1.0,0.0,0.0,0.0,0.0,0.0,0.0,0.0,0.0,0.086,-0.229,-0.421,1.21846967915e-07,0.0,0.0,0.0,1.21846967915e-07,0.0,0.0,0.0,1.21846967915e-07,-0.2941995,0.40207265,12.30734575,9e-08,0.0,0.0,0.0,9e-08,0.0,0.0,0.0,9e-08
1532134949811070576,14555,1532134949806621232,base_link,0.0,0.0,0.0,0.0,-1.0,0.0,0.0,0.0,0.0,0.0,0.0,0.0,0.0,0.05,-0.218,-0.423,1.21846967915e-07,0.0,0.0,0.0,1.21846967915e-07,0.0,0.0,0.0,1.21846967915e-07,-0.36284605,0.5687857,11.4737805,9e-08,0.0,0.0,0.0,9e-08,0.0,0.0,0.0,9e-08
1532134949915678480,14556,1532134949914409840,base_link,0.0,0.0,0.0,0.0,-1.0,0.0,0.0,0.0,0.0,0.0,0.0,0.0,0.0,0.041,-0.166,-0.43,1.21846967915e-07,0.0,0.0,0.0,1.21846967915e-07,0.0,0.0,0.0,1.21846967915e-07,-0.44129925,0.55897905,9.3947707,9e-08,0.0,0.0,0.0,9e-08,0.0,0.0,0.0,9e-08
1532134950004372048,14557,1532134950003168112,base_link,0.0,0.0,0.0,0.0,-1.0,0.0,0.0,0.0,0.0,0.0,0.0,0.0,0.0,0.105,-0.154,-0.438,1.21846967915e-07,0.0,0.0,0.0,1.21846967915e-07,0.0,0.0,0.0,1.21846967915e-07,-0.3726527,0.7453054,8.12971285,9e-08,0.0,0.0,0.0,9e-08,0.0,0.0,0.0,9e-08
1532134950118554448,14558,1532134950116639344,base_link,0.0,0.0,0.0,0.0,-1.0,0.0,0.0,0.0,0.0,0.0,0.0,0.0,0.0,0.164,-0.132,-0.458,1.21846967915e-07,0.0,0.0,0.0,1.21846967915e-07,0.0,0.0,0.0,1.21846967915e-07,-0.5099458,0.2353596,7.26672765,9e-08,0.0,0.0,0.0,9e-08,0.0,0.0,0.0,9e-08
1532134950225823760,14559,1532134950216651984,base_link,0.0,0.0,0.0,0.0,-1.0,0.0,0.0,0.0,0.0,0.0,0.0,0.0,0.0,0.017,-0.109,-0.455,1.21846967915e-07,0.0,0.0,0.0,1.21846967915e-07,0.0,0.0,0.0,1.21846967915e-07,-0.4903325,0.28439285,6.4527757,9e-08,0.0,0.0,0.0,9e-08,0.0,0.0,0.0,9e-08
1532134950315658288,14560,1532134950312401072,base_link,0.0,0.0,0.0,0.0,-1.0,0.0,0.0,0.0,0.0,0.0,0.0,0.0,0.0,0.01,-0.091,-0.458,1.21846967915e-07,0.0,0.0,0.0,1.21846967915e-07,0.0,0.0,0.0,1.21846967915e-07,-0.4118793,0.4511059,6.3743225,9e-08,0.0,0.0,0.0,9e-08,0.0,0.0,0.0,9e-08
1532134950418316560,14561,1532134950417853008,base_link,0.0,0.0,0.0,0.0,-1.0,0.0,0.0,0.0,0.0,0.0,0.0,0.0,0.0,-0.048,-0.102,-0.465,1.21846967915e-07,0.0,0.0,0.0,1.21846967915e-07,0.0,0.0,0.0,1.21846967915e-07,-0.28439285,0.4314926,7.09020795,9e-08,0.0,0.0,0.0,9e-08,0.0,0.0,0.0,9e-08
1532134950517686352,14562,1532134950515900784,base_link,0.0,0.0,0.0,0.0,-1.0,0.0,0.0,0.0,0.0,0.0,0.0,0.0,0.0,-0.11,-0.041,-0.479,1.21846967915e-07,0.0,0.0,0.0,1.21846967915e-07,0.0,0.0,0.0,1.21846967915e-07,-0.32361945,0.4707192,5.9232166,9e-08,0.0,0.0,0.0,9e-08,0.0,0.0,0.0,9e-08
1532134950631927792,14563,1532134950630918800,base_link,0.0,0.0,0.0,0.0,-1.0,0.0,0.0,0.0,0.0,0.0,0.0,0.0,0.0,-0.099,0.005,-0.497,1.21846967915e-07,0.0,0.0,0.0,1.21846967915e-07,0.0,0.0,0.0,1.21846967915e-07,-0.3726527,0.588399,5.12887795,9e-08,0.0,0.0,0.0,9e-08,0.0,0.0,0.0,9e-08
1532134950729664976,14564,1532134950729090064,base_link,0.0,0.0,0.0,0.0,-1.0,0.0,0.0,0.0,0.0,0.0,0.0,0.0,0.0,-0.155,-0.003,-0.521,1.21846967915e-07,0.0,0.0,0.0,1.21846967915e-07,0.0,0.0,0.0,1.21846967915e-07,-0.24516625,0.6080123,6.080123,9e-08,0.0,0.0,0.0,9e-08,0.0,0.0,0.0,9e-08
1532134950842301968,14565,1532134950841284528,base_link,0.0,0.0,0.0,0.0,-1.0,0.0,0.0,0.0,0.0,0.0,0.0,0.0,0.0,-0.058,0.001,-0.547,1.21846967915e-07,0.0,0.0,0.0,1.21846967915e-07,0.0,0.0,0.0,1.21846967915e-07,-0.28439285,0.55897905,5.83495675,9e-08,0.0,0.0,0.0,9e-08,0.0,0.0,0.0,9e-08
1532134950914181072,14566,1532134950911009680,base_link,0.0,0.0,0.0,0.0,-1.0,0.0,0.0,0.0,0.0,0.0,0.0,0.0,0.0,-0.013,-0.025,-0.569,1.21846967915e-07,0.0,0.0,0.0,1.21846967915e-07,0.0,0.0,0.0,1.21846967915e-07,-0.2353596,0.4903325,5.97224985,9e-08,0.0,0.0,0.0,9e-08,0.0,0.0,0.0,9e-08
1532134951048572784,14567,1532134951044623312,base_link,0.0,0.0,0.0,0.0,-1.0,0.0,0.0,0.0,0.0,0.0,0.0,0.0,0.0,-0.061,-0.055,-0.593,1.21846967915e-07,0.0,0.0,0.0,1.21846967915e-07,0.0,0.0,0.0,1.21846967915e-07,-0.2157463,0.53936575,6.36451585,9e-08,0.0,0.0,0.0,9e-08,0.0,0.0,0.0,9e-08
1532134951106773328,14568,1532134951102893776,base_link,0.0,0.0,0.0,0.0,-1.0,0.0,0.0,0.0,0.0,0.0,0.0,0.0,0.0,-0.058,-0.055,-0.601,1.21846967915e-07,0.0,0.0,0.0,1.21846967915e-07,0.0,0.0,0.0,1.21846967915e-07,-0.196133,0.5491724,6.24683605,9e-08,0.0,0.0,0.0,9e-08,0.0,0.0,0.0,9e-08
1532134951212080976,14569,1532134951211683408,base_link,0.0,0.0,0.0,0.0,-1.0,0.0,0.0,0.0,0.0,0.0,0.0,0.0,0.0,-0.039,-0.112,-0.608,1.21846967915e-07,0.0,0.0,0.0,1.21846967915e-07,0.0,0.0,0.0,1.21846967915e-07,-0.08825985,0.2745862,6.7665885,9e-08,0.0,0.0,0.0,9e-08,0.0,0.0,0.0,9e-08
1532134951311318096,14570,1532134951310066096,base_link,0.0,0.0,0.0,0.0,-1.0,0.0,0.0,0.0,0.0,0.0,0.0,0.0,0.0,-0.019,-0.133,-0.607,1.21846967915e-07,0.0,0.0,0.0,1.21846967915e-07,0.0,0.0,0.0,1.21846967915e-07,0.0,0.3530394,6.5312289,9e-08,0.0,0.0,0.0,9e-08,0.0,0.0,0.0,9e-08
1532134951436194032,14571,1532134951433939088,base_link,0.0,0.0,0.0,0.0,-1.0,0.0,0.0,0.0,0.0,0.0,0.0,0.0,0.0,-0.042,-0.151,-0.6,1.21846967915e-07,0.0,0.0,0.0,1.21846967915e-07,0.0,0.0,0.0,1.21846967915e-07,0.0,0.6080123,6.16838285,9e-08,0.0,0.0,0.0,9e-08,0.0,0.0,0.0,9e-08
1532134951529859120,14572,1532134951529039568,base_link,0.0,0.0,0.0,0.0,-1.0,0.0,0.0,0.0,0.0,0.0,0.0,0.0,0.0,-0.084,-0.17,-0.611,1.21846967915e-07,0.0,0.0,0.0,1.21846967915e-07,0.0,0.0,0.0,1.21846967915e-07,0.2157463,0.784532,6.40374245,9e-08,0.0,0.0,0.0,9e-08,0.0,0.0,0.0,9e-08
1532134951629837488,14573,1532134951629125168,base_link,0.0,0.0,0.0,0.0,-1.0,0.0,0.0,0.0,0.0,0.0,0.0,0.0,0.0,-0.099,-0.238,-0.595,1.21846967915e-07,0.0,0.0,0.0,1.21846967915e-07,0.0,0.0,0.0,1.21846967915e-07,0.28439285,1.0395049,7.63938035,9e-08,0.0,0.0,0.0,9e-08,0.0,0.0,0.0,9e-08
1532134951706916048,14574,1532134951706487920,base_link,0.0,0.0,0.0,0.0,-1.0,0.0,0.0,0.0,0.0,0.0,0.0,0.0,0.0,-0.124,-0.243,-0.607,1.21846967915e-07,0.0,0.0,0.0,1.21846967915e-07,0.0,0.0,0.0,1.21846967915e-07,0.196133,0.2157463,8.1395195,9e-08,0.0,0.0,0.0,9e-08,0.0,0.0,0.0,9e-08
1532134951815621648,14575,1532134951814615824,base_link,0.0,0.0,0.0,0.0,-1.0,0.0,0.0,0.0,0.0,0.0,0.0,0.0,0.0,-0.151,-0.238,-0.629,1.21846967915e-07,0.0,0.0,0.0,1.21846967915e-07,0.0,0.0,0.0,1.21846967915e-07,0.2157463,0.0588399,8.6494653,9e-08,0.0,0.0,0.0,9e-08,0.0,0.0,0.0,9e-08
1532134951917711536,14576,1532134951915536912,base_link,0.0,0.0,0.0,0.0,-1.0,0.0,0.0,0.0,0.0,0.0,0.0,0.0,0.0,-0.134,-0.278,-0.624,1.21846967915e-07,0.0,0.0,0.0,1.21846967915e-07,0.0,0.0,0.0,1.21846967915e-07,0.40207265,0.89240515,8.99269805,9e-08,0.0,0.0,0.0,9e-08,0.0,0.0,0.0,9e-08
1532134952013571024,14577,1532134952012929392,base_link,0.0,0.0,0.0,0.0,-1.0,0.0,0.0,0.0,0.0,0.0,0.0,0.0,0.0,-0.119,-0.335,-0.581,1.21846967915e-07,0.0,0.0,0.0,1.21846967915e-07,0.0,0.0,0.0,1.21846967915e-07,0.3530394,0.83356525,10.62060195,9e-08,0.0,0.0,0.0,9e-08,0.0,0.0,0.0,9e-08
1532134952117628432,14578,1532134952115986000,base_link,0.0,0.0,0.0,0.0,-1.0,0.0,0.0,0.0,0.0,0.0,0.0,0.0,0.0,-0.066,-0.326,-0.562,1.21846967915e-07,0.0,0.0,0.0,1.21846967915e-07,0.0,0.0,0.0,1.21846967915e-07,0.18632635,-0.1569064,10.69905515,9e-08,0.0,0.0,0.0,9e-08,0.0,0.0,0.0,9e-08
1532134952214336816,14579,1532134952213747376,base_link,0.0,0.0,0.0,0.0,-1.0,0.0,0.0,0.0,0.0,0.0,0.0,0.0,0.0,0.027,-0.359,-0.498,1.21846967915e-07,0.0,0.0,0.0,1.21846967915e-07,0.0,0.0,0.0,1.21846967915e-07,0.0980665,0.1372931,11.24822755,9e-08,0.0,0.0,0.0,9e-08,0.0,0.0,0.0,9e-08
1532134952305815504,14580,1532134952305325872,base_link,0.0,0.0,0.0,0.0,-1.0,0.0,0.0,0.0,0.0,0.0,0.0,0.0,0.0,0.171,-0.37,-0.455,1.21846967915e-07,0.0,0.0,0.0,1.21846967915e-07,0.0,0.0,0.0,1.21846967915e-07,0.2353596,0.44129925,10.7677017,9e-08,0.0,0.0,0.0,9e-08,0.0,0.0,0.0,9e-08
1532134952441119152,14581,1532134952440689360,base_link,0.0,0.0,0.0,0.0,-1.0,0.0,0.0,0.0,0.0,0.0,0.0,0.0,0.0,0.289,-0.426,-0.388,1.21846967915e-07,0.0,0.0,0.0,1.21846967915e-07,0.0,0.0,0.0,1.21846967915e-07,0.20593965,-0.0392266,12.8663248,9e-08,0.0,0.0,0.0,9e-08,0.0,0.0,0.0,9e-08
1532134952542360976,14582,1532134952541708656,base_link,0.0,0.0,0.0,0.0,-1.0,0.0,0.0,0.0,0.0,0.0,0.0,0.0,0.0,0.265,-0.406,-0.338,1.21846967915e-07,0.0,0.0,0.0,1.21846967915e-07,0.0,0.0,0.0,1.21846967915e-07,0.1176798,0.30400615,12.62115855,9e-08,0.0,0.0,0.0,9e-08,0.0,0.0,0.0,9e-08
1532134952624444304,14583,1532134952623451536,base_link,0.0,0.0,0.0,0.0,-1.0,0.0,0.0,0.0,0.0,0.0,0.0,0.0,0.0,0.128,-0.413,-0.327,1.21846967915e-07,0.0,0.0,0.0,1.21846967915e-07,0.0,0.0,0.0,1.21846967915e-07,0.16671305,0.46091255,12.5917386,9e-08,0.0,0.0,0.0,9e-08,0.0,0.0,0.0,9e-08
1532134952711074160,14584,1532134952706683152,base_link,0.0,0.0,0.0,0.0,-1.0,0.0,0.0,0.0,0.0,0.0,0.0,0.0,0.0,0.101,-0.462,-0.339,1.21846967915e-07,0.0,0.0,0.0,1.21846967915e-07,0.0,0.0,0.0,1.21846967915e-07,0.20593965,0.44129925,13.15071765,9e-08,0.0,0.0,0.0,9e-08,0.0,0.0,0.0,9e-08
1532134952848164624,14585,1532134952847775248,base_link,0.0,0.0,0.0,0.0,-1.0,0.0,0.0,0.0,0.0,0.0,0.0,0.0,0.0,-0.01,-0.442,-0.35,1.21846967915e-07,0.0,0.0,0.0,1.21846967915e-07,0.0,0.0,0.0,1.21846967915e-07,0.24516625,0.63743225,12.97419795,9e-08,0.0,0.0,0.0,9e-08,0.0,0.0,0.0,9e-08
1532134952923413008,14586,1532134952922214448,base_link,0.0,0.0,0.0,0.0,-1.0,0.0,0.0,0.0,0.0,0.0,0.0,0.0,0.0,-0.042,-0.471,-0.364,1.21846967915e-07,0.0,0.0,0.0,1.21846967915e-07,0.0,0.0,0.0,1.21846967915e-07,0.2549729,0.5491724,13.925443,9e-08,0.0,0.0,0.0,9e-08,0.0,0.0,0.0,9e-08
1532134953012294224,14587,1532134953010438000,base_link,0.0,0.0,0.0,0.0,-1.0,0.0,0.0,0.0,0.0,0.0,0.0,0.0,0.0,-0.079,-0.477,-0.379,1.21846967915e-07,0.0,0.0,0.0,1.21846967915e-07,0.0,0.0,0.0,1.21846967915e-07,0.196133,0.53936575,14.81784815,9e-08,0.0,0.0,0.0,9e-08,0.0,0.0,0.0,9e-08
1532134953108226384,14588,1532134953107679184,base_link,0.0,0.0,0.0,0.0,-1.0,0.0,0.0,0.0,0.0,0.0,0.0,0.0,0.0,-0.136,-0.411,-0.421,1.21846967915e-07,0.0,0.0,0.0,1.21846967915e-07,0.0,0.0,0.0,1.21846967915e-07,0.12748645,0.67665885,13.5527903,9e-08,0.0,0.0,0.0,9e-08,0.0,0.0,0.0,9e-08
1532134953246023856,14589,1532134953243140080,base_link,0.0,0.0,0.0,0.0,-1.0,0.0,0.0,0.0,0.0,0.0,0.0,0.0,0.0,-0.071,-0.416,-0.448,1.21846967915e-07,0.0,0.0,0.0,1.21846967915e-07,0.0,0.0,0.0,1.21846967915e-07,-0.04903325,0.12748645,13.6312435,9e-08,0.0,0.0,0.0,9e-08,0.0,0.0,0.0,9e-08
1532134953314529008,14590,1532134953314045936,base_link,0.0,0.0,0.0,0.0,-1.0,0.0,0.0,0.0,0.0,0.0,0.0,0.0,0.0,0.014,-0.418,-0.446,1.21846967915e-07,0.0,0.0,0.0,1.21846967915e-07,0.0,0.0,0.0,1.21846967915e-07,-0.10787315,0.16671305,13.3566573,9e-08,0.0,0.0,0.0,9e-08,0.0,0.0,0.0,9e-08
1532134953414374096,14591,1532134953413934384,base_link,0.0,0.0,0.0,0.0,-1.0,0.0,0.0,0.0,0.0,0.0,0.0,0.0,0.0,0.111,-0.449,-0.439,1.21846967915e-07,0.0,0.0,0.0,1.21846967915e-07,0.0,0.0,0.0,1.21846967915e-07,-0.0588399,0.1569064,13.79795655,9e-08,0.0,0.0,0.0,9e-08,0.0,0.0,0.0,9e-08
1532134953522413008,14592,1532134953521376848,base_link,0.0,0.0,0.0,0.0,-1.0,0.0,0.0,0.0,0.0,0.0,0.0,0.0,0.0,0.098,-0.454,-0.426,1.21846967915e-07,0.0,0.0,0.0,1.21846967915e-07,0.0,0.0,0.0,1.21846967915e-07,0.04903325,0.2353596,14.0823494,9e-08,0.0,0.0,0.0,9e-08,0.0,0.0,0.0,9e-08
1532134953633812304,14593,1532134953628546896,base_link,0.0,0.0,0.0,0.0,-1.0,0.0,0.0,0.0,0.0,0.0,0.0,0.0,0.0,0.117,-0.458,-0.397,1.21846967915e-07,0.0,0.0,0.0,1.21846967915e-07,0.0,0.0,0.0,1.21846967915e-07,0.0980665,0.3530394,15.1218543,9e-08,0.0,0.0,0.0,9e-08,0.0,0.0,0.0,9e-08
1532134953718615344,14594,1532134953718169872,base_link,0.0,0.0,0.0,0.0,-1.0,0.0,0.0,0.0,0.0,0.0,0.0,0.0,0.0,0.091,-0.491,-0.373,1.21846967915e-07,0.0,0.0,0.0,1.21846967915e-07,0.0,0.0,0.0,1.21846967915e-07,0.0784532,0.1372931,15.9652262,9e-08,0.0,0.0,0.0,9e-08,0.0,0.0,0.0,9e-08
1532134953808005008,14595,1532134953807598480,base_link,0.0,0.0,0.0,0.0,-1.0,0.0,0.0,0.0,0.0,0.0,0.0,0.0,0.0,0.134,-0.482,-0.365,1.21846967915e-07,0.0,0.0,0.0,1.21846967915e-07,0.0,0.0,0.0,1.21846967915e-07,0.2745862,0.34323275,16.3574922,9e-08,0.0,0.0,0.0,9e-08,0.0,0.0,0.0,9e-08
1532134953901636560,14596,1532134953900725776,base_link,0.0,0.0,0.0,0.0,-1.0,0.0,0.0,0.0,0.0,0.0,0.0,0.0,0.0,0.171,-0.482,-0.36,1.21846967915e-07,0.0,0.0,0.0,1.21846967915e-07,0.0,0.0,0.0,1.21846967915e-07,0.18632635,0.22555295,16.6320784,9e-08,0.0,0.0,0.0,9e-08,0.0,0.0,0.0,9e-08
1532134954014444400,14597,1532134954014079024,base_link,0.0,0.0,0.0,0.0,-1.0,0.0,0.0,0.0,0.0,0.0,0.0,0.0,0.0,0.08,-0.483,-0.367,1.21846967915e-07,0.0,0.0,0.0,1.21846967915e-07,0.0,0.0,0.0,1.21846967915e-07,0.2353596,0.2745862,16.3574922,9e-08,0.0,0.0,0.0,9e-08,0.0,0.0,0.0,9e-08
1532134954105647984,14598,1532134954104999600,base_link,0.0,0.0,0.0,0.0,-1.0,0.0,0.0,0.0,0.0,0.0,0.0,0.0,0.0,-0.014,-0.458,-0.352,1.21846967915e-07,0.0,0.0,0.0,1.21846967915e-07,0.0,0.0,0.0,1.21846967915e-07,0.34323275,0.50013915,15.95541955,9e-08,0.0,0.0,0.0,9e-08,0.0,0.0,0.0,9e-08
1532134954214449936,14599,1532134954213815600,base_link,0.0,0.0,0.0,0.0,-1.0,0.0,0.0,0.0,0.0,0.0,0.0,0.0,0.0,-0.193,-0.427,-0.356,1.21846967915e-07,0.0,0.0,0.0,1.21846967915e-07,0.0,0.0,0.0,1.21846967915e-07,0.42168595,0.588399,16.19077915,9e-08,0.0,0.0,0.0,9e-08,0.0,0.0,0.0,9e-08
1532134954308683728,14600,1532134954305942992,base_link,0.0,0.0,0.0,0.0,-1.0,0.0,0.0,0.0,0.0,0.0,0.0,0.0,0.0,-0.049,-0.43,-0.405,1.21846967915e-07,0.0,0.0,0.0,1.21846967915e-07,0.0,0.0,0.0,1.21846967915e-07,0.75511205,0.588399,16.95569785,9e-08,0.0,0.0,0.0,9e-08,0.0,0.0,0.0,9e-08
1532134954441546704,14601,1532134954440917840,base_link,0.0,0.0,0.0,0.0,-1.0,0.0,0.0,0.0,0.0,0.0,0.0,0.0,0.0,0.063,-0.389,-0.446,1.21846967915e-07,0.0,0.0,0.0,1.21846967915e-07,0.0,0.0,0.0,1.21846967915e-07,0.3334261,0.2353596,15.9652262,9e-08,0.0,0.0,0.0,9e-08,0.0,0.0,0.0,9e-08
1532134954515651728,14602,1532134954514840624,base_link,0.0,0.0,0.0,0.0,-1.0,0.0,0.0,0.0,0.0,0.0,0.0,0.0,0.0,0.089,-0.379,-0.444,1.21846967915e-07,0.0,0.0,0.0,1.21846967915e-07,0.0,0.0,0.0,1.21846967915e-07,0.1765197,0.28439285,15.102241,9e-08,0.0,0.0,0.0,9e-08,0.0,0.0,0.0,9e-08
1532134954625441232,14603,1532134954624994832,base_link,0.0,0.0,0.0,0.0,-1.0,0.0,0.0,0.0,0.0,0.0,0.0,0.0,0.0,0.153,-0.373,-0.432,1.21846967915e-07,0.0,0.0,0.0,1.21846967915e-07,0.0,0.0,0.0,1.21846967915e-07,0.0392266,0.36284605,13.9842829,9e-08,0.0,0.0,0.0,9e-08,0.0,0.0,0.0,9e-08
1532134954720892304,14604,1532134954719821264,base_link,0.0,0.0,0.0,0.0,-1.0,0.0,0.0,0.0,0.0,0.0,0.0,0.0,0.0,0.129,-0.357,-0.402,1.21846967915e-07,0.0,0.0,0.0,1.21846967915e-07,0.0,0.0,0.0,1.21846967915e-07,-0.2549729,0.2353596,13.36646395,9e-08,0.0,0.0,0.0,9e-08,0.0,0.0,0.0,9e-08
1532134954853567152,14605,1532134954849484560,base_link,0.0,0.0,0.0,0.0,-1.0,0.0,0.0,0.0,0.0,0.0,0.0,0.0,0.0,0.141,-0.384,-0.391,1.21846967915e-07,0.0,0.0,0.0,1.21846967915e-07,0.0,0.0,0.0,1.21846967915e-07,-0.32361945,0.08825985,13.15071765,9e-08,0.0,0.0,0.0,9e-08,0.0,0.0,0.0,9e-08
1532134954903449264,14606,1532134954902983536,base_link,0.0,0.0,0.0,0.0,-1.0,0.0,0.0,0.0,0.0,0.0,0.0,0.0,0.0,0.08,-0.38,-0.374,1.21846967915e-07,0.0,0.0,0.0,1.21846967915e-07,0.0,0.0,0.0,1.21846967915e-07,-0.34323275,0.0588399,12.52309205,9e-08,0.0,0.0,0.0,9e-08,0.0,0.0,0.0,9e-08
1532134955019717936,14607,1532134955019101168,base_link,0.0,0.0,0.0,0.0,-1.0,0.0,0.0,0.0,0.0,0.0,0.0,0.0,0.0,0.172,-0.399,-0.353,1.21846967915e-07,0.0,0.0,0.0,1.21846967915e-07,0.0,0.0,0.0,1.21846967915e-07,-0.3334261,0.2941995,12.62115855,9e-08,0.0,0.0,0.0,9e-08,0.0,0.0,0.0,9e-08
1532134955110359088,14608,1532134955108391536,base_link,0.0,0.0,0.0,0.0,-1.0,0.0,0.0,0.0,0.0,0.0,0.0,0.0,0.0,0.218,-0.43,-0.347,1.21846967915e-07,0.0,0.0,0.0,1.21846967915e-07,0.0,0.0,0.0,1.21846967915e-07,-0.20593965,0.34323275,13.9646696,9e-08,0.0,0.0,0.0,9e-08,0.0,0.0,0.0,9e-08
1532134955254158800,14609,1532134955253537456,base_link,0.0,0.0,0.0,0.0,-1.0,0.0,0.0,0.0,0.0,0.0,0.0,0.0,0.0,-0.116,-0.456,-0.358,1.21846967915e-07,0.0,0.0,0.0,1.21846967915e-07,0.0,0.0,0.0,1.21846967915e-07,0.1569064,0.5099458,15.8279331,9e-08,0.0,0.0,0.0,9e-08,0.0,0.0,0.0,9e-08
1532134955315010448,14610,1532134955314344592,base_link,0.0,0.0,0.0,0.0,-1.0,0.0,0.0,0.0,0.0,0.0,0.0,0.0,0.0,-0.137,-0.407,-0.386,1.21846967915e-07,0.0,0.0,0.0,1.21846967915e-07,0.0,0.0,0.0,1.21846967915e-07,0.1765197,0.1569064,15.81812645,9e-08,0.0,0.0,0.0,9e-08,0.0,0.0,0.0,9e-08
1532134955412284912,14611,1532134955410913904,base_link,0.0,0.0,0.0,0.0,-1.0,0.0,0.0,0.0,0.0,0.0,0.0,0.0,0.0,-0.182,-0.38,-0.402,1.21846967915e-07,0.0,0.0,0.0,1.21846967915e-07,0.0,0.0,0.0,1.21846967915e-07,0.10787315,-0.0392266,15.4356671,9e-08,0.0,0.0,0.0,9e-08,0.0,0.0,0.0,9e-08
1532134955522945488,14612,1532134955522444752,base_link,0.0,0.0,0.0,0.0,-1.0,0.0,0.0,0.0,0.0,0.0,0.0,0.0,0.0,-0.172,-0.364,-0.402,1.21846967915e-07,0.0,0.0,0.0,1.21846967915e-07,0.0,0.0,0.0,1.21846967915e-07,0.0,-0.196133,14.6511351,9e-08,0.0,0.0,0.0,9e-08,0.0,0.0,0.0,9e-08
1532134955625814128,14613,1532134955625346480,base_link,0.0,0.0,0.0,0.0,-1.0,0.0,0.0,0.0,0.0,0.0,0.0,0.0,0.0,-0.195,-0.334,-0.36,1.21846967915e-07,0.0,0.0,0.0,1.21846967915e-07,0.0,0.0,0.0,1.21846967915e-07,-0.2549729,-0.06864655,13.11149105,9e-08,0.0,0.0,0.0,9e-08,0.0,0.0,0.0,9e-08
1532134955736743408,14614,1532134955732107216,base_link,0.0,0.0,0.0,0.0,-1.0,0.0,0.0,0.0,0.0,0.0,0.0,0.0,0.0,-0.298,-0.338,-0.33,1.21846967915e-07,0.0,0.0,0.0,1.21846967915e-07,0.0,0.0,0.0,1.21846967915e-07,-0.2941995,0.4314926,12.1994726,9e-08,0.0,0.0,0.0,9e-08,0.0,0.0,0.0,9e-08
1532134955830503728,14615,1532134955830035248,base_link,0.0,0.0,0.0,0.0,-1.0,0.0,0.0,0.0,0.0,0.0,0.0,0.0,0.0,-0.457,-0.323,-0.305,1.21846967915e-07,0.0,0.0,0.0,1.21846967915e-07,0.0,0.0,0.0,1.21846967915e-07,-0.2157463,0.4903325,11.6503002,9e-08,0.0,0.0,0.0,9e-08,0.0,0.0,0.0,9e-08
1532134955913843568,14616,1532134955912853264,base_link,0.0,0.0,0.0,0.0,-1.0,0.0,0.0,0.0,0.0,0.0,0.0,0.0,0.0,-0.522,-0.29,-0.291,1.21846967915e-07,0.0,0.0,0.0,1.21846967915e-07,0.0,0.0,0.0,1.21846967915e-07,-0.26477955,0.40207265,11.60126695,9e-08,0.0,0.0,0.0,9e-08,0.0,0.0,0.0,9e-08
1532134956019874384,14617,1532134956019432688,base_link,0.0,0.0,0.0,0.0,-1.0,0.0,0.0,0.0,0.0,0.0,0.0,0.0,0.0,-0.505,-0.237,-0.292,1.21846967915e-07,0.0,0.0,0.0,1.21846967915e-07,0.0,0.0,0.0,1.21846967915e-07,-0.18632635,0.44129925,11.3364874,9e-08,0.0,0.0,0.0,9e-08,0.0,0.0,0.0,9e-08
1532134956137500976,14618,1532134956136976528,base_link,0.0,0.0,0.0,0.0,-1.0,0.0,0.0,0.0,0.0,0.0,0.0,0.0,0.0,-0.512,-0.195,-0.285,1.21846967915e-07,0.0,0.0,0.0,1.21846967915e-07,0.0,0.0,0.0,1.21846967915e-07,-0.42168595,-0.08825985,11.87585315,9e-08,0.0,0.0,0.0,9e-08,0.0,0.0,0.0,9e-08
1532134956242188592,14619,1532134956241329104,base_link,0.0,0.0,0.0,0.0,-1.0,0.0,0.0,0.0,0.0,0.0,0.0,0.0,0.0,-0.676,-0.155,-0.281,1.21846967915e-07,0.0,0.0,0.0,1.21846967915e-07,0.0,0.0,0.0,1.21846967915e-07,-0.14709975,0.0196133,11.571847,9e-08,0.0,0.0,0.0,9e-08,0.0,0.0,0.0,9e-08
1532134956298612176,14620,1532134956298047024,base_link,0.0,0.0,0.0,0.0,-1.0,0.0,0.0,0.0,0.0,0.0,0.0,0.0,0.0,-0.646,-0.13,-0.269,1.21846967915e-07,0.0,0.0,0.0,1.21846967915e-07,0.0,0.0,0.0,1.21846967915e-07,-0.26477955,-0.16671305,11.2188076,9e-08,0.0,0.0,0.0,9e-08,0.0,0.0,0.0,9e-08
1532134956419281264,14621,1532134956418686256,base_link,0.0,0.0,0.0,0.0,-1.0,0.0,0.0,0.0,0.0,0.0,0.0,0.0,0.0,-0.555,-0.123,-0.194,1.21846967915e-07,0.0,0.0,0.0,1.21846967915e-07,0.0,0.0,0.0,1.21846967915e-07,-0.3334261,-0.3138128,11.34629405,9e-08,0.0,0.0,0.0,9e-08,0.0,0.0,0.0,9e-08
1532134956504880976,14622,1532134956503555536,base_link,0.0,0.0,0.0,0.0,-1.0,0.0,0.0,0.0,0.0,0.0,0.0,0.0,0.0,-0.453,-0.066,-0.174,1.21846967915e-07,0.0,0.0,0.0,1.21846967915e-07,0.0,0.0,0.0,1.21846967915e-07,-0.4903325,-0.30400615,10.42446895,9e-08,0.0,0.0,0.0,9e-08,0.0,0.0,0.0,9e-08
1532134956641800656,14623,1532134956640974832,base_link,0.0,0.0,0.0,0.0,-1.0,0.0,0.0,0.0,0.0,0.0,0.0,0.0,0.0,-0.402,-0.028,-0.103,1.21846967915e-07,0.0,0.0,0.0,1.21846967915e-07,0.0,0.0,0.0,1.21846967915e-07,-0.50013915,-0.4511059,9.6693569,9e-08,0.0,0.0,0.0,9e-08,0.0,0.0,0.0,9e-08
1532134956701933744,14624,1532134956701495280,base_link,0.0,0.0,0.0,0.0,-1.0,0.0,0.0,0.0,0.0,0.0,0.0,0.0,0.0,-0.439,0.005,-0.04,1.21846967915e-07,0.0,0.0,0.0,1.21846967915e-07,0.0,0.0,0.0,1.21846967915e-07,-0.59820565,-0.28439285,9.218251,9e-08,0.0,0.0,0.0,9e-08,0.0,0.0,0.0,9e-08
1532134956825681040,14625,1532134956824358384,base_link,0.0,0.0,0.0,0.0,-1.0,0.0,0.0,0.0,0.0,0.0,0.0,0.0,0.0,-0.421,0.015,0.011,1.21846967915e-07,0.0,0.0,0.0,1.21846967915e-07,0.0,0.0,0.0,1.21846967915e-07,-0.53936575,-0.2745862,9.07115125,9e-08,0.0,0.0,0.0,9e-08,0.0,0.0,0.0,9e-08
1532134956924656560,14626,1532134956924170384,base_link,0.0,0.0,0.0,0.0,-1.0,0.0,0.0,0.0,0.0,0.0,0.0,0.0,0.0,-0.374,0.065,0.044,1.21846967915e-07,0.0,0.0,0.0,1.21846967915e-07,0.0,0.0,0.0,1.21846967915e-07,-0.5491724,-0.00980665,8.12971285,9e-08,0.0,0.0,0.0,9e-08,0.0,0.0,0.0,9e-08
1532134957007683344,14627,1532134957007027568,base_link,0.0,0.0,0.0,0.0,-1.0,0.0,0.0,0.0,0.0,0.0,0.0,0.0,0.0,-0.387,0.099,0.066,1.21846967915e-07,0.0,0.0,0.0,1.21846967915e-07,0.0,0.0,0.0,1.21846967915e-07,-0.4314926,0.3138128,7.79628675,9e-08,0.0,0.0,0.0,9e-08,0.0,0.0,0.0,9e-08
1532134957154750224,14628,1532134957154200176,base_link,0.0,0.0,0.0,0.0,-1.0,0.0,0.0,0.0,0.0,0.0,0.0,0.0,0.0,-0.358,0.086,0.055,1.21846967915e-07,0.0,0.0,0.0,1.21846967915e-07,0.0,0.0,0.0,1.21846967915e-07,-0.3530394,1.06886174542e-15,8.7279185,9e-08,0.0,0.0,0.0,9e-08,0.0,0.0,0.0,9e-08
1532134957242150640,14629,1532134957241452912,base_link,0.0,0.0,0.0,0.0,-1.0,0.0,0.0,0.0,0.0,0.0,0.0,0.0,0.0,-0.362,0.143,0.044,1.21846967915e-07,0.0,0.0,0.0,1.21846967915e-07,0.0,0.0,0.0,1.21846967915e-07,-0.28439285,-0.0588399,7.9041599,9e-08,0.0,0.0,0.0,9e-08,0.0,0.0,0.0,9e-08
1532134957321587184,14630,1532134957320738896,base_link,0.0,0.0,0.0,0.0,-1.0,0.0,0.0,0.0,0.0,0.0,0.0,0.0,0.0,-0.358,0.151,0.062,1.21846967915e-07,0.0,0.0,0.0,1.21846967915e-07,0.0,0.0,0.0,1.21846967915e-07,-0.24516625,0.6472389,7.60015375,9e-08,0.0,0.0,0.0,9e-08,0.0,0.0,0.0,9e-08
1532134957419458800,14631,1532134957417050480,base_link,0.0,0.0,0.0,0.0,-1.0,0.0,0.0,0.0,0.0,0.0,0.0,0.0,0.0,-0.379,0.171,0.089,1.21846967915e-07,0.0,0.0,0.0,1.21846967915e-07,0.0,0.0,0.0,1.21846967915e-07,-0.16671305,0.46091255,6.83523505,9e-08,0.0,0.0,0.0,9e-08,0.0,0.0,0.0,9e-08
1532134957513286672,14632,1532134957512714288,base_link,0.0,0.0,0.0,0.0,-1.0,0.0,0.0,0.0,0.0,0.0,0.0,0.0,0.0,-0.36,0.157,0.114,1.21846967915e-07,0.0,0.0,0.0,1.21846967915e-07,0.0,0.0,0.0,1.21846967915e-07,0.0588399,0.63743225,7.5707338,9e-08,0.0,0.0,0.0,9e-08,0.0,0.0,0.0,9e-08
1532134957604792336,14633,1532134957603709680,base_link,0.0,0.0,0.0,0.0,-1.0,0.0,0.0,0.0,0.0,0.0,0.0,0.0,0.0,-0.305,0.087,0.072,1.21846967915e-07,0.0,0.0,0.0,1.21846967915e-07,0.0,0.0,0.0,1.21846967915e-07,0.59820565,-0.2157463,10.50292215,9e-08,0.0,0.0,0.0,9e-08,0.0,0.0,0.0,9e-08
1532134957711360880,14634,1532134957710923792,base_link,0.0,0.0,0.0,0.0,-1.0,0.0,0.0,0.0,0.0,0.0,0.0,0.0,0.0,-0.066,0.15,0.086,1.21846967915e-07,0.0,0.0,0.0,1.21846967915e-07,0.0,0.0,0.0,1.21846967915e-07,0.5491724,-0.30400615,9.2967042,9e-08,0.0,0.0,0.0,9e-08,0.0,0.0,0.0,9e-08
1532134957812724496,14635,1532134957812076496,base_link,0.0,0.0,0.0,0.0,-1.0,0.0,0.0,0.0,0.0,0.0,0.0,0.0,0.0,0.071,0.162,0.162,1.21846967915e-07,0.0,0.0,0.0,1.21846967915e-07,0.0,0.0,0.0,1.21846967915e-07,0.38245935,-0.0196133,8.1199062,9e-08,0.0,0.0,0.0,9e-08,0.0,0.0,0.0,9e-08
1532134957915950640,14636,1532134957915466032,base_link,0.0,0.0,0.0,0.0,-1.0,0.0,0.0,0.0,0.0,0.0,0.0,0.0,0.0,0.138,0.124,0.176,1.21846967915e-07,0.0,0.0,0.0,1.21846967915e-07,0.0,0.0,0.0,1.21846967915e-07,0.5295591,0.08825985,8.6886919,9e-08,0.0,0.0,0.0,9e-08,0.0,0.0,0.0,9e-08
1532134958029234064,14637,1532134958028651248,base_link,0.0,0.0,0.0,0.0,-1.0,0.0,0.0,0.0,0.0,0.0,0.0,0.0,0.0,-0.034,0.1,0.234,1.21846967915e-07,0.0,0.0,0.0,1.21846967915e-07,0.0,0.0,0.0,1.21846967915e-07,0.5687857,0.2353596,9.50264385,9e-08,0.0,0.0,0.0,9e-08,0.0,0.0,0.0,9e-08
1532134958118353520,14638,1532134958117620816,base_link,0.0,0.0,0.0,0.0,-1.0,0.0,0.0,0.0,0.0,0.0,0.0,0.0,0.0,-0.238,0.124,0.244,1.21846967915e-07,0.0,0.0,0.0,1.21846967915e-07,0.0,0.0,0.0,1.21846967915e-07,0.40207265,0.2745862,8.60043205,9e-08,0.0,0.0,0.0,9e-08,0.0,0.0,0.0,9e-08
1532134958220532688,14639,1532134958220025712,base_link,0.0,0.0,0.0,0.0,-1.0,0.0,0.0,0.0,0.0,0.0,0.0,0.0,0.0,-0.334,0.136,0.184,1.21846967915e-07,0.0,0.0,0.0,1.21846967915e-07,0.0,0.0,0.0,1.21846967915e-07,0.4118793,-0.1176798,7.44324735,9e-08,0.0,0.0,0.0,9e-08,0.0,0.0,0.0,9e-08
1532134958313441040,14640,1532134958312004816,base_link,0.0,0.0,0.0,0.0,-1.0,0.0,0.0,0.0,0.0,0.0,0.0,0.0,0.0,-0.061,0.092,0.192,1.21846967915e-07,0.0,0.0,0.0,1.21846967915e-07,0.0,0.0,0.0,1.21846967915e-07,0.6276256,-0.14709975,7.1392412,9e-08,0.0,0.0,0.0,9e-08,0.0,0.0,0.0,9e-08
1532134958426573488,14641,1532134958425656272,base_link,0.0,0.0,0.0,0.0,-1.0,0.0,0.0,0.0,0.0,0.0,0.0,0.0,0.0,0.237,0.099,0.194,1.21846967915e-07,0.0,0.0,0.0,1.21846967915e-07,0.0,0.0,0.0,1.21846967915e-07,0.784532,-0.06864655,8.1591328,9e-08,0.0,0.0,0.0,9e-08,0.0,0.0,0.0,9e-08
1532134958537907280,14642,1532134958536294736,base_link,0.0,0.0,0.0,0.0,-1.0,0.0,0.0,0.0,0.0,0.0,0.0,0.0,0.0,0.353,0.111,0.192,1.21846967915e-07,0.0,0.0,0.0,1.21846967915e-07,0.0,0.0,0.0,1.21846967915e-07,0.81395195,0.2549729,7.20788775,9e-08,0.0,0.0,0.0,9e-08,0.0,0.0,0.0,9e-08
1532134958618678224,14643,1532134958617921008,base_link,0.0,0.0,0.0,0.0,-1.0,0.0,0.0,0.0,0.0,0.0,0.0,0.0,0.0,0.369,0.07,0.15,1.21846967915e-07,0.0,0.0,0.0,1.21846967915e-07,0.0,0.0,0.0,1.21846967915e-07,0.83356525,0.2549729,8.40429905,9e-08,0.0,0.0,0.0,9e-08,0.0,0.0,0.0,9e-08
1532134958746564304,14644,1532134958745728528,base_link,0.0,0.0,0.0,0.0,-1.0,0.0,0.0,0.0,0.0,0.0,0.0,0.0,0.0,0.239,0.068,0.116,1.21846967915e-07,0.0,0.0,0.0,1.21846967915e-07,0.0,0.0,0.0,1.21846967915e-07,0.81395195,0.24516625,7.7276402,9e-08,0.0,0.0,0.0,9e-08,0.0,0.0,0.0,9e-08
1532134958813685520,14645,1532134958812976272,base_link,0.0,0.0,0.0,0.0,-1.0,0.0,0.0,0.0,0.0,0.0,0.0,0.0,0.0,0.195,0.061,0.095,1.21846967915e-07,0.0,0.0,0.0,1.21846967915e-07,0.0,0.0,0.0,1.21846967915e-07,1.0002783,0.1765197,7.77667345,9e-08,0.0,0.0,0.0,9e-08,0.0,0.0,0.0,9e-08
1532134958922675472,14646,1532134958921732368,base_link,0.0,0.0,0.0,0.0,-1.0,0.0,0.0,0.0,0.0,0.0,0.0,0.0,0.0,0.206,0.037,0.071,1.21846967915e-07,0.0,0.0,0.0,1.21846967915e-07,0.0,0.0,0.0,1.21846967915e-07,1.30428445,0.0980665,7.2765343,9e-08,0.0,0.0,0.0,9e-08,0.0,0.0,0.0,9e-08
1532134959007732560,14647,1532134959007150896,base_link,0.0,0.0,0.0,0.0,-1.0,0.0,0.0,0.0,0.0,0.0,0.0,0.0,0.0,0.282,0.005,0.033,1.21846967915e-07,0.0,0.0,0.0,1.21846967915e-07,0.0,0.0,0.0,1.21846967915e-07,1.22583125,0.22555295,7.1196279,9e-08,0.0,0.0,0.0,9e-08,0.0,0.0,0.0,9e-08
1532134959108657584,14648,1532134959106972080,base_link,0.0,0.0,0.0,0.0,-1.0,0.0,0.0,0.0,0.0,0.0,0.0,0.0,0.0,0.338,-0.022,-0.018,1.21846967915e-07,0.0,0.0,0.0,1.21846967915e-07,0.0,0.0,0.0,1.21846967915e-07,1.3337044,0.08825985,8.22777935,9e-08,0.0,0.0,0.0,9e-08,0.0,0.0,0.0,9e-08
1532134959239826512,14649,1532134959237733200,base_link,0.0,0.0,0.0,0.0,-1.0,0.0,0.0,0.0,0.0,0.0,0.0,0.0,0.0,0.368,-0.116,-0.031,1.21846967915e-07,0.0,0.0,0.0,1.21846967915e-07,0.0,0.0,0.0,1.21846967915e-07,1.2160246,0.0784532,10.36562905,9e-08,0.0,0.0,0.0,9e-08,0.0,0.0,0.0,9e-08
1532134959314294992,14650,1532134959313764272,base_link,0.0,0.0,0.0,0.0,-1.0,0.0,0.0,0.0,0.0,0.0,0.0,0.0,0.0,0.323,-0.175,-0.014,1.21846967915e-07,0.0,0.0,0.0,1.21846967915e-07,0.0,0.0,0.0,1.21846967915e-07,1.3925443,-0.02941995,11.0815145,9e-08,0.0,0.0,0.0,9e-08,0.0,0.0,0.0,9e-08
1532134959410989520,14651,1532134959407865648,base_link,0.0,0.0,0.0,0.0,-1.0,0.0,0.0,0.0,0.0,0.0,0.0,0.0,0.0,0.203,-0.201,0.012,1.21846967915e-07,0.0,0.0,0.0,1.21846967915e-07,0.0,0.0,0.0,1.21846967915e-07,1.44157755,0.2353596,12.3171524,9e-08,0.0,0.0,0.0,9e-08,0.0,0.0,0.0,9e-08
1532134959527912784,14652,1532134959525338800,base_link,0.0,0.0,0.0,0.0,-1.0,0.0,0.0,0.0,0.0,0.0,0.0,0.0,0.0,0.081,-0.244,0.049,1.21846967915e-07,0.0,0.0,0.0,1.21846967915e-07,0.0,0.0,0.0,1.21846967915e-07,1.372931,0.20593965,13.24878415,9e-08,0.0,0.0,0.0,9e-08,0.0,0.0,0.0,9e-08
1532134959616814704,14653,1532134959616145776,base_link,0.0,0.0,0.0,0.0,-1.0,0.0,0.0,0.0,0.0,0.0,0.0,0.0,0.0,0.055,-0.261,0.055,1.21846967915e-07,0.0,0.0,0.0,1.21846967915e-07,0.0,0.0,0.0,1.21846967915e-07,1.176798,0.3334261,13.17033095,9e-08,0.0,0.0,0.0,9e-08,0.0,0.0,0.0,9e-08
1532134959744234960,14654,1532134959743421296,base_link,0.0,0.0,0.0,0.0,-1.0,0.0,0.0,0.0,0.0,0.0,0.0,0.0,0.0,0.028,-0.293,0.058,1.21846967915e-07,0.0,0.0,0.0,1.21846967915e-07,0.0,0.0,0.0,1.21846967915e-07,0.87279185,0.4903325,14.2588691,9e-08,0.0,0.0,0.0,9e-08,0.0,0.0,0.0,9e-08
1532134959836635088,14655,1532134959829046224,base_link,0.0,0.0,0.0,0.0,-1.0,0.0,0.0,0.0,0.0,0.0,0.0,0.0,0.0,-0.077,-0.308,0.063,1.21846967915e-07,0.0,0.0,0.0,1.21846967915e-07,0.0,0.0,0.0,1.21846967915e-07,0.99047165,0.40207265,14.91591465,9e-08,0.0,0.0,0.0,9e-08,0.0,0.0,0.0,9e-08
1532134959915492176,14656,1532134959914072208,base_link,0.0,0.0,0.0,0.0,-1.0,0.0,0.0,0.0,0.0,0.0,0.0,0.0,0.0,-0.157,-0.291,0.054,1.21846967915e-07,0.0,0.0,0.0,1.21846967915e-07,0.0,0.0,0.0,1.21846967915e-07,0.8433719,0.55897905,15.15127425,9e-08,0.0,0.0,0.0,9e-08,0.0,0.0,0.0,9e-08
1532134960034612880,14657,1532134960032186416,base_link,0.0,0.0,0.0,0.0,-1.0,0.0,0.0,0.0,0.0,0.0,0.0,0.0,0.0,-0.073,-0.269,0.027,1.21846967915e-07,0.0,0.0,0.0,1.21846967915e-07,0.0,0.0,0.0,1.21846967915e-07,0.784532,0.4314926,15.38663385,9e-08,0.0,0.0,0.0,9e-08,0.0,0.0,0.0,9e-08
1532134960110928112,14658,1532134960110429424,base_link,0.0,0.0,0.0,0.0,-1.0,0.0,0.0,0.0,0.0,0.0,0.0,0.0,0.0,0.011,-0.259,0.009,1.21846967915e-07,0.0,0.0,0.0,1.21846967915e-07,0.0,0.0,0.0,1.21846967915e-07,0.5295591,0.50013915,15.26895405,9e-08,0.0,0.0,0.0,9e-08,0.0,0.0,0.0,9e-08
1532134960211622256,14659,1532134960209639056,base_link,0.0,0.0,0.0,0.0,-1.0,0.0,0.0,0.0,0.0,0.0,0.0,0.0,0.0,0.135,-0.201,-0.017,1.21846967915e-07,0.0,0.0,0.0,1.21846967915e-07,0.0,0.0,0.0,1.21846967915e-07,0.34323275,0.59820565,14.2196425,9e-08,0.0,0.0,0.0,9e-08,0.0,0.0,0.0,9e-08
1532134960322109808,14660,1532134960320740848,base_link,0.0,0.0,0.0,0.0,-1.0,0.0,0.0,0.0,0.0,0.0,0.0,0.0,0.0,0.044,-0.186,-0.064,1.21846967915e-07,0.0,0.0,0.0,1.21846967915e-07,0.0,0.0,0.0,1.21846967915e-07,0.08825985,0.61781895,13.9058297,9e-08,0.0,0.0,0.0,9e-08,0.0,0.0,0.0,9e-08
1532134960431238256,14661,1532134960429996464,base_link,0.0,0.0,0.0,0.0,-1.0,0.0,0.0,0.0,0.0,0.0,0.0,0.0,0.0,0.037,-0.171,-0.091,1.21846967915e-07,0.0,0.0,0.0,1.21846967915e-07,0.0,0.0,0.0,1.21846967915e-07,-0.0392266,0.4707192,13.17033095,9e-08,0.0,0.0,0.0,9e-08,0.0,0.0,0.0,9e-08
1532134960512741168,14662,1532134960512065776,base_link,0.0,0.0,0.0,0.0,-1.0,0.0,0.0,0.0,0.0,0.0,0.0,0.0,0.0,0.065,-0.164,-0.117,1.21846967915e-07,0.0,0.0,0.0,1.21846967915e-07,0.0,0.0,0.0,1.21846967915e-07,-0.04903325,0.5295591,13.1605243,9e-08,0.0,0.0,0.0,9e-08,0.0,0.0,0.0,9e-08
1532134960616019408,14663,1532134960615625296,base_link,0.0,0.0,0.0,0.0,-1.0,0.0,0.0,0.0,0.0,0.0,0.0,0.0,0.0,0.065,-0.136,-0.112,1.21846967915e-07,0.0,0.0,0.0,1.21846967915e-07,0.0,0.0,0.0,1.21846967915e-07,-0.1569064,0.4903325,12.7682583,9e-08,0.0,0.0,0.0,9e-08,0.0,0.0,0.0,9e-08
1532134960708621168,14664,1532134960708040976,base_link,0.0,0.0,0.0,0.0,-1.0,0.0,0.0,0.0,0.0,0.0,0.0,0.0,0.0,0.033,-0.126,-0.111,1.21846967915e-07,0.0,0.0,0.0,1.21846967915e-07,0.0,0.0,0.0,1.21846967915e-07,-0.10787315,0.14709975,12.26811915,9e-08,0.0,0.0,0.0,9e-08,0.0,0.0,0.0,9e-08
1532134960865542448,14665,1532134960865180112,base_link,0.0,0.0,0.0,0.0,-1.0,0.0,0.0,0.0,0.0,0.0,0.0,0.0,0.0,0.023,-0.071,-0.081,1.21846967915e-07,0.0,0.0,0.0,1.21846967915e-07,0.0,0.0,0.0,1.21846967915e-07,-0.1372931,0.20593965,11.46397385,9e-08,0.0,0.0,0.0,9e-08,0.0,0.0,0.0,9e-08
1532134960906477264,14666,1532134960905965648,base_link,0.0,0.0,0.0,0.0,-1.0,0.0,0.0,0.0,0.0,0.0,0.0,0.0,0.0,0.004,-0.068,-0.067,1.21846967915e-07,0.0,0.0,0.0,1.21846967915e-07,0.0,0.0,0.0,1.21846967915e-07,-0.16671305,0.36284605,11.2972608,9e-08,0.0,0.0,0.0,9e-08,0.0,0.0,0.0,9e-08
1532134961012538416,14667,1532134961009622768,base_link,0.0,0.0,0.0,0.0,-1.0,0.0,0.0,0.0,0.0,0.0,0.0,0.0,0.0,-0.079,-0.045,-0.048,1.21846967915e-07,0.0,0.0,0.0,1.21846967915e-07,0.0,0.0,0.0,1.21846967915e-07,-0.14709975,0.08825985,10.6500219,9e-08,0.0,0.0,0.0,9e-08,0.0,0.0,0.0,9e-08
1532134961156146160,14668,1532134961155541936,base_link,0.0,0.0,0.0,0.0,-1.0,0.0,0.0,0.0,0.0,0.0,0.0,0.0,0.0,-0.001,-0.033,-0.032,1.21846967915e-07,0.0,0.0,0.0,1.21846967915e-07,0.0,0.0,0.0,1.21846967915e-07,-0.1569064,0.2941995,10.9049948,9e-08,0.0,0.0,0.0,9e-08,0.0,0.0,0.0,9e-08
1532134961235468432,14669,1532134961230347920,base_link,0.0,0.0,0.0,0.0,-1.0,0.0,0.0,0.0,0.0,0.0,0.0,0.0,0.0,0.016,-0.024,-0.027,1.21846967915e-07,0.0,0.0,0.0,1.21846967915e-07,0.0,0.0,0.0,1.21846967915e-07,-0.10787315,0.3530394,10.4735022,9e-08,0.0,0.0,0.0,9e-08,0.0,0.0,0.0,9e-08
1532134961337584048,14670,1532134961337056112,base_link,0.0,0.0,0.0,0.0,-1.0,0.0,0.0,0.0,0.0,0.0,0.0,0.0,0.0,-0.053,0.008,-0.023,1.21846967915e-07,0.0,0.0,0.0,1.21846967915e-07,0.0,0.0,0.0,1.21846967915e-07,0.0,0.1569064,9.40457735,9e-08,0.0,0.0,0.0,9e-08,0.0,0.0,0.0,9e-08
1532134961417366160,14671,1532134961414211248,base_link,0.0,0.0,0.0,0.0,-1.0,0.0,0.0,0.0,0.0,0.0,0.0,0.0,0.0,-0.053,0.024,-0.018,1.21846967915e-07,0.0,0.0,0.0,1.21846967915e-07,0.0,0.0,0.0,1.21846967915e-07,-0.0196133,0.02941995,9.01231135,9e-08,0.0,0.0,0.0,9e-08,0.0,0.0,0.0,9e-08
1532134961505577392,14672,1532134961504873008,base_link,0.0,0.0,0.0,0.0,-1.0,0.0,0.0,0.0,0.0,0.0,0.0,0.0,0.0,-0.026,0.021,-0.007,1.21846967915e-07,0.0,0.0,0.0,1.21846967915e-07,0.0,0.0,0.0,1.21846967915e-07,-0.0392266,0.3334261,9.65955025,9e-08,0.0,0.0,0.0,9e-08,0.0,0.0,0.0,9e-08
1532134961629622384,14673,1532134961628658736,base_link,0.0,0.0,0.0,0.0,-1.0,0.0,0.0,0.0,0.0,0.0,0.0,0.0,0.0,-0.124,0.041,-0.015,1.21846967915e-07,0.0,0.0,0.0,1.21846967915e-07,0.0,0.0,0.0,1.21846967915e-07,0.0196133,0.26477955,9.5516771,9e-08,0.0,0.0,0.0,9e-08,0.0,0.0,0.0,9e-08
1532134961756902576,14674,1532134961756111728,base_link,0.0,0.0,0.0,0.0,-1.0,0.0,0.0,0.0,0.0,0.0,0.0,0.0,0.0,-0.1,0.055,-0.028,1.21846967915e-07,0.0,0.0,0.0,1.21846967915e-07,0.0,0.0,0.0,1.21846967915e-07,0.2353596,0.3334261,10.09104285,9e-08,0.0,0.0,0.0,9e-08,0.0,0.0,0.0,9e-08
1532134961837608592,14675,1532134961836316848,base_link,0.0,0.0,0.0,0.0,-1.0,0.0,0.0,0.0,0.0,0.0,0.0,0.0,0.0,-0.109,0.073,-0.038,1.21846967915e-07,0.0,0.0,0.0,1.21846967915e-07,0.0,0.0,0.0,1.21846967915e-07,0.196133,0.2941995,9.610517,9e-08,0.0,0.0,0.0,9e-08,0.0,0.0,0.0,9e-08
1532134961925578896,14676,1532134961924056848,base_link,0.0,0.0,0.0,0.0,-1.0,0.0,0.0,0.0,0.0,0.0,0.0,0.0,0.0,-0.099,0.089,-0.03,1.21846967915e-07,0.0,0.0,0.0,1.21846967915e-07,0.0,0.0,0.0,1.21846967915e-07,0.12748645,0.2745862,8.6886919,9e-08,0.0,0.0,0.0,9e-08,0.0,0.0,0.0,9e-08
1532134962017043472,14677,1532134962015657776,base_link,0.0,0.0,0.0,0.0,-1.0,0.0,0.0,0.0,0.0,0.0,0.0,0.0,0.0,-0.097,0.09,-0.026,1.21846967915e-07,0.0,0.0,0.0,1.21846967915e-07,0.0,0.0,0.0,1.21846967915e-07,0.14709975,0.00980665,8.3356525,9e-08,0.0,0.0,0.0,9e-08,0.0,0.0,0.0,9e-08
1532134962133623920,14678,1532134962133077744,base_link,0.0,0.0,0.0,0.0,-1.0,0.0,0.0,0.0,0.0,0.0,0.0,0.0,0.0,-0.008,0.076,-0.021,1.21846967915e-07,0.0,0.0,0.0,1.21846967915e-07,0.0,0.0,0.0,1.21846967915e-07,0.16671305,0.1569064,8.62004535,9e-08,0.0,0.0,0.0,9e-08,0.0,0.0,0.0,9e-08
1532134962235453008,14679,1532134962230087376,base_link,0.0,0.0,0.0,0.0,-1.0,0.0,0.0,0.0,0.0,0.0,0.0,0.0,0.0,0.11,0.088,-0.019,1.21846967915e-07,0.0,0.0,0.0,1.21846967915e-07,0.0,0.0,0.0,1.21846967915e-07,0.26477955,-0.08825985,8.6886919,9e-08,0.0,0.0,0.0,9e-08,0.0,0.0,0.0,9e-08
1532134962371179568,14680,1532134962368942864,base_link,0.0,0.0,0.0,0.0,-1.0,0.0,0.0,0.0,0.0,0.0,0.0,0.0,0.0,-0.03,0.058,0.034,1.21846967915e-07,0.0,0.0,0.0,1.21846967915e-07,0.0,0.0,0.0,1.21846967915e-07,0.18632635,0.2745862,9.11037785,9e-08,0.0,0.0,0.0,9e-08,0.0,0.0,0.0,9e-08
1532134962456897232,14681,1532134962453832368,base_link,0.0,0.0,0.0,0.0,-1.0,0.0,0.0,0.0,0.0,0.0,0.0,0.0,0.0,-0.104,0.083,0.039,1.21846967915e-07,0.0,0.0,0.0,1.21846967915e-07,0.0,0.0,0.0,1.21846967915e-07,0.2941995,0.2549729,8.9828914,9e-08,0.0,0.0,0.0,9e-08,0.0,0.0,0.0,9e-08
1532134962514272496,14682,1532134962513694864,base_link,0.0,0.0,0.0,0.0,-1.0,0.0,0.0,0.0,0.0,0.0,0.0,0.0,0.0,-0.045,0.108,0.039,1.21846967915e-07,0.0,0.0,0.0,1.21846967915e-07,0.0,0.0,0.0,1.21846967915e-07,0.196133,0.02941995,7.85512665,9e-08,0.0,0.0,0.0,9e-08,0.0,0.0,0.0,9e-08
1532134962607466864,14683,1532134962607009008,base_link,0.0,0.0,0.0,0.0,-1.0,0.0,0.0,0.0,0.0,0.0,0.0,0.0,0.0,-0.089,0.102,0.044,1.21846967915e-07,0.0,0.0,0.0,1.21846967915e-07,0.0,0.0,0.0,1.21846967915e-07,0.22555295,0.2745862,7.71783355,9e-08,0.0,0.0,0.0,9e-08,0.0,0.0,0.0,9e-08
1532134962716530576,14684,1532134962715844144,base_link,0.0,0.0,0.0,0.0,-1.0,0.0,0.0,0.0,0.0,0.0,0.0,0.0,0.0,-0.079,0.095,0.024,1.21846967915e-07,0.0,0.0,0.0,1.21846967915e-07,0.0,0.0,0.0,1.21846967915e-07,0.22555295,0.44129925,7.60015375,9e-08,0.0,0.0,0.0,9e-08,0.0,0.0,0.0,9e-08
1532134962864256272,14685,1532134962855563824,base_link,0.0,0.0,0.0,0.0,-1.0,0.0,0.0,0.0,0.0,0.0,0.0,0.0,0.0,-0.111,0.089,-0.007,1.21846967915e-07,0.0,0.0,0.0,1.21846967915e-07,0.0,0.0,0.0,1.21846967915e-07,0.34323275,0.2157463,8.38468575,9e-08,0.0,0.0,0.0,9e-08,0.0,0.0,0.0,9e-08
1532134962921627376,14686,1532134962919589808,base_link,0.0,0.0,0.0,0.0,-1.0,0.0,0.0,0.0,0.0,0.0,0.0,0.0,0.0,-0.112,0.079,-9.67470971326e-18,1.21846967915e-07,0.0,0.0,0.0,1.21846967915e-07,0.0,0.0,0.0,1.21846967915e-07,0.2941995,0.14709975,8.7083052,9e-08,0.0,0.0,0.0,9e-08,0.0,0.0,0.0,9e-08
1532134963032941008,14687,1532134963032394288,base_link,0.0,0.0,0.0,0.0,-1.0,0.0,0.0,0.0,0.0,0.0,0.0,0.0,0.0,-0.07,0.094,0.002,1.21846967915e-07,0.0,0.0,0.0,1.21846967915e-07,0.0,0.0,0.0,1.21846967915e-07,0.2941995,0.2549729,7.81590005,9e-08,0.0,0.0,0.0,9e-08,0.0,0.0,0.0,9e-08
1532134963111430768,14688,1532134963101040624,base_link,0.0,0.0,0.0,0.0,-1.0,0.0,0.0,0.0,0.0,0.0,0.0,0.0,0.0,-0.027,0.111,-0.002,1.21846967915e-07,0.0,0.0,0.0,1.21846967915e-07,0.0,0.0,0.0,1.21846967915e-07,0.42168595,0.26477955,7.4726673,9e-08,0.0,0.0,0.0,9e-08,0.0,0.0,0.0,9e-08
1532134963213571344,14689,1532134963213085840,base_link,0.0,0.0,0.0,0.0,-1.0,0.0,0.0,0.0,0.0,0.0,0.0,0.0,0.0,-0.032,0.094,-0.012,1.21846967915e-07,0.0,0.0,0.0,1.21846967915e-07,0.0,0.0,0.0,1.21846967915e-07,0.38245935,0.1176798,7.7276402,9e-08,0.0,0.0,0.0,9e-08,0.0,0.0,0.0,9e-08
1532134963322917904,14690,1532134963322483824,base_link,0.0,0.0,0.0,0.0,-1.0,0.0,0.0,0.0,0.0,0.0,0.0,0.0,0.0,-0.076,0.061,-0.009,1.21846967915e-07,0.0,0.0,0.0,1.21846967915e-07,0.0,0.0,0.0,1.21846967915e-07,0.50013915,0.0588399,9.09076455,9e-08,0.0,0.0,0.0,9e-08,0.0,0.0,0.0,9e-08
1532134963409535600,14691,1532134963407990000,base_link,0.0,0.0,0.0,0.0,-1.0,0.0,0.0,0.0,0.0,0.0,0.0,0.0,0.0,-0.05,0.07,0.01,1.21846967915e-07,0.0,0.0,0.0,1.21846967915e-07,0.0,0.0,0.0,1.21846967915e-07,0.6668522,-0.02941995,9.22805765,9e-08,0.0,0.0,0.0,9e-08,0.0,0.0,0.0,9e-08
1532134963557951056,14692,1532134963557406320,base_link,0.0,0.0,0.0,0.0,-1.0,0.0,0.0,0.0,0.0,0.0,0.0,0.0,0.0,0.232,0.083,0.029,1.21846967915e-07,0.0,0.0,0.0,1.21846967915e-07,0.0,0.0,0.0,1.21846967915e-07,0.57859235,-0.02941995,7.77667345,9e-08,0.0,0.0,0.0,9e-08,0.0,0.0,0.0,9e-08
1532134963623160976,14693,1532134963622250064,base_link,0.0,0.0,0.0,0.0,-1.0,0.0,0.0,0.0,0.0,0.0,0.0,0.0,0.0,0.216,0.068,0.054,1.21846967915e-07,0.0,0.0,0.0,1.21846967915e-07,0.0,0.0,0.0,1.21846967915e-07,0.5491724,0.2353596,8.16893945,9e-08,0.0,0.0,0.0,9e-08,0.0,0.0,0.0,9e-08
1532134963722030800,14694,1532134963721144656,base_link,0.0,0.0,0.0,0.0,-1.0,0.0,0.0,0.0,0.0,0.0,0.0,0.0,0.0,0.105,0.014,0.071,1.21846967915e-07,0.0,0.0,0.0,1.21846967915e-07,0.0,0.0,0.0,1.21846967915e-07,0.51975245,0.26477955,8.44352565,9e-08,0.0,0.0,0.0,9e-08,0.0,0.0,0.0,9e-08
1532134963822196880,14695,1532134963821585808,base_link,0.0,0.0,0.0,0.0,-1.0,0.0,0.0,0.0,0.0,0.0,0.0,0.0,0.0,0.033,0.023,0.056,1.21846967915e-07,0.0,0.0,0.0,1.21846967915e-07,0.0,0.0,0.0,1.21846967915e-07,0.73549875,0.18632635,8.30623255,9e-08,0.0,0.0,0.0,9e-08,0.0,0.0,0.0,9e-08
1532134963925938192,14696,1532134963923864336,base_link,0.0,0.0,0.0,0.0,-1.0,0.0,0.0,0.0,0.0,0.0,0.0,0.0,0.0,0.033,0.011,0.044,1.21846967915e-07,0.0,0.0,0.0,1.21846967915e-07,0.0,0.0,0.0,1.21846967915e-07,0.77472535,0.1765197,9.0809579,9e-08,0.0,0.0,0.0,9e-08,0.0,0.0,0.0,9e-08
1532134964030474896,14697,1532134964028190896,base_link,0.0,0.0,0.0,0.0,-1.0,0.0,0.0,0.0,0.0,0.0,0.0,0.0,0.0,0.071,0.003,0.043,1.21846967915e-07,0.0,0.0,0.0,1.21846967915e-07,0.0,0.0,0.0,1.21846967915e-07,0.8237586,0.38245935,9.6301303,9e-08,0.0,0.0,0.0,9e-08,0.0,0.0,0.0,9e-08
1532134964109150224,14698,1532134964107676688,base_link,0.0,0.0,0.0,0.0,-1.0,0.0,0.0,0.0,0.0,0.0,0.0,0.0,0.0,0.027,-0.002,0.021,1.21846967915e-07,0.0,0.0,0.0,1.21846967915e-07,0.0,0.0,0.0,1.21846967915e-07,0.8041453,0.4118793,9.80665,9e-08,0.0,0.0,0.0,9e-08,0.0,0.0,0.0,9e-08
1532134964217631824,14699,1532134964217063056,base_link,0.0,0.0,0.0,0.0,-1.0,0.0,0.0,0.0,0.0,0.0,0.0,0.0,0.0,-0.013,-0.008,-0.01,1.21846967915e-07,0.0,0.0,0.0,1.21846967915e-07,0.0,0.0,0.0,1.21846967915e-07,0.6472389,0.40207265,9.67916355,9e-08,0.0,0.0,0.0,9e-08,0.0,0.0,0.0,9e-08
1532134964318818704,14700,1532134964317717872,base_link,0.0,0.0,0.0,0.0,-1.0,0.0,0.0,0.0,0.0,0.0,0.0,0.0,0.0,0.049,-0.011,-0.017,1.21846967915e-07,0.0,0.0,0.0,1.21846967915e-07,0.0,0.0,0.0,1.21846967915e-07,0.59820565,0.4707192,10.13026945,9e-08,0.0,0.0,0.0,9e-08,0.0,0.0,0.0,9e-08
1532134964414384560,14701,1532134964413174672,base_link,0.0,0.0,0.0,0.0,-1.0,0.0,0.0,0.0,0.0,0.0,0.0,0.0,0.0,0.076,-0.022,-0.029,1.21846967915e-07,0.0,0.0,0.0,1.21846967915e-07,0.0,0.0,0.0,1.21846967915e-07,0.7256921,0.2549729,9.5712904,9e-08,0.0,0.0,0.0,9e-08,0.0,0.0,0.0,9e-08
1532134964484703952,14702,1532134964484192176,base_link,0.0,0.0,0.0,0.0,-1.0,0.0,0.0,0.0,0.0,0.0,0.0,0.0,0.0,-0.034,-0.088,-0.016,1.21846967915e-07,0.0,0.0,0.0,1.21846967915e-07,0.0,0.0,0.0,1.21846967915e-07,0.85317855,0.4903325,11.58165365,9e-08,0.0,0.0,0.0,9e-08,0.0,0.0,0.0,9e-08
1532134964625411728,14703,1532134964624769712,base_link,0.0,0.0,0.0,0.0,-1.0,0.0,0.0,0.0,0.0,0.0,0.0,0.0,0.0,-0.085,-0.076,-0.036,1.21846967915e-07,0.0,0.0,0.0,1.21846967915e-07,0.0,0.0,0.0,1.21846967915e-07,0.8041453,0.06864655,11.5326204,9e-08,0.0,0.0,0.0,9e-08,0.0,0.0,0.0,9e-08
1532134964714118032,14704,1532134964710256240,base_link,0.0,0.0,0.0,0.0,-1.0,0.0,0.0,0.0,0.0,0.0,0.0,0.0,0.0,-0.092,-0.076,0.002,1.21846967915e-07,0.0,0.0,0.0,1.21846967915e-07,0.0,0.0,0.0,1.21846967915e-07,0.5295591,0.10787315,11.38552065,9e-08,0.0,0.0,0.0,9e-08,0.0,0.0,0.0,9e-08
1532134964824567856,14705,1532134964823310192,base_link,0.0,0.0,0.0,0.0,-1.0,0.0,0.0,0.0,0.0,0.0,0.0,0.0,0.0,-0.078,-0.079,0.051,1.21846967915e-07,0.0,0.0,0.0,1.21846967915e-07,0.0,0.0,0.0,1.21846967915e-07,0.4903325,0.14709975,10.9638347,9e-08,0.0,0.0,0.0,9e-08,0.0,0.0,0.0,9e-08
1532134964911969264,14706,1532134964911558736,base_link,0.0,0.0,0.0,0.0,-1.0,0.0,0.0,0.0,0.0,0.0,0.0,0.0,0.0,-0.068,-0.065,0.057,1.21846967915e-07,0.0,0.0,0.0,1.21846967915e-07,0.0,0.0,0.0,1.21846967915e-07,0.51975245,0.16671305,10.5323421,9e-08,0.0,0.0,0.0,9e-08,0.0,0.0,0.0,9e-08
1532134965019224880,14707,1532134965017443408,base_link,0.0,0.0,0.0,0.0,-1.0,0.0,0.0,0.0,0.0,0.0,0.0,0.0,0.0,-0.045,-0.084,0.041,1.21846967915e-07,0.0,0.0,0.0,1.21846967915e-07,0.0,0.0,0.0,1.21846967915e-07,0.46091255,0.2157463,10.79712165,9e-08,0.0,0.0,0.0,9e-08,0.0,0.0,0.0,9e-08
1532134965106232592,14708,1532134965105536112,base_link,0.0,0.0,0.0,0.0,-1.0,0.0,0.0,0.0,0.0,0.0,0.0,0.0,0.0,0.031,-0.069,0.051,1.21846967915e-07,0.0,0.0,0.0,1.21846967915e-07,0.0,0.0,0.0,1.21846967915e-07,0.34323275,0.26477955,10.67944185,9e-08,0.0,0.0,0.0,9e-08,0.0,0.0,0.0,9e-08
1532134965211362384,14709,1532134965210427952,base_link,0.0,0.0,0.0,0.0,-1.0,0.0,0.0,0.0,0.0,0.0,0.0,0.0,0.0,-0.001,-0.066,0.053,1.21846967915e-07,0.0,0.0,0.0,1.21846967915e-07,0.0,0.0,0.0,1.21846967915e-07,0.4903325,0.20593965,10.52253545,9e-08,0.0,0.0,0.0,9e-08,0.0,0.0,0.0,9e-08
1532134965306477872,14710,1532134965306055760,base_link,0.0,0.0,0.0,0.0,-1.0,0.0,0.0,0.0,0.0,0.0,0.0,0.0,0.0,0.016,-0.063,0.059,1.21846967915e-07,0.0,0.0,0.0,1.21846967915e-07,0.0,0.0,0.0,1.21846967915e-07,0.5099458,0.18632635,10.5127288,9e-08,0.0,0.0,0.0,9e-08,0.0,0.0,0.0,9e-08
1532134965433070128,14711,1532134965432644528,base_link,0.0,0.0,0.0,0.0,-1.0,0.0,0.0,0.0,0.0,0.0,0.0,0.0,0.0,-0.072,-0.062,0.05,1.21846967915e-07,0.0,0.0,0.0,1.21846967915e-07,0.0,0.0,0.0,1.21846967915e-07,0.55897905,0.2157463,11.0619012,9e-08,0.0,0.0,0.0,9e-08,0.0,0.0,0.0,9e-08
1532134965549381840,14712,1532134965549005904,base_link,0.0,0.0,0.0,0.0,-1.0,0.0,0.0,0.0,0.0,0.0,0.0,0.0,0.0,-0.001,-0.018,0.036,1.21846967915e-07,0.0,0.0,0.0,1.21846967915e-07,0.0,0.0,0.0,1.21846967915e-07,0.48052585,0.48052585,9.7674234,9e-08,0.0,0.0,0.0,9e-08,0.0,0.0,0.0,9e-08
1532134965614696976,14713,1532134965614192752,base_link,0.0,0.0,0.0,0.0,-1.0,0.0,0.0,0.0,0.0,0.0,0.0,0.0,0.0,0.033,-0.02,0.004,1.21846967915e-07,0.0,0.0,0.0,1.21846967915e-07,0.0,0.0,0.0,1.21846967915e-07,0.30400615,0.53936575,9.87529655,9e-08,0.0,0.0,0.0,9e-08,0.0,0.0,0.0,9e-08
1532134965711322448,14714,1532134965710939920,base_link,0.0,0.0,0.0,0.0,-1.0,0.0,0.0,0.0,0.0,0.0,0.0,0.0,0.0,-0.084,-0.031,-0.023,1.21846967915e-07,0.0,0.0,0.0,1.21846967915e-07,0.0,0.0,0.0,1.21846967915e-07,0.4903325,0.5099458,10.44408225,9e-08,0.0,0.0,0.0,9e-08,0.0,0.0,0.0,9e-08
1532134965824664080,14715,1532134965813656560,base_link,0.0,0.0,0.0,0.0,-1.0,0.0,0.0,0.0,0.0,0.0,0.0,0.0,0.0,-0.09,0.025,-0.021,1.21846967915e-07,0.0,0.0,0.0,1.21846967915e-07,0.0,0.0,0.0,1.21846967915e-07,0.38245935,0.48052585,8.77695175,9e-08,0.0,0.0,0.0,9e-08,0.0,0.0,0.0,9e-08
1532134965895865040,14716,1532134965895207632,base_link,0.0,0.0,0.0,0.0,-1.0,0.0,0.0,0.0,0.0,0.0,0.0,0.0,0.0,0.009,0.034,-0.064,1.21846967915e-07,0.0,0.0,0.0,1.21846967915e-07,0.0,0.0,0.0,1.21846967915e-07,0.51975245,0.4511059,8.7671451,9e-08,0.0,0.0,0.0,9e-08,0.0,0.0,0.0,9e-08
1532134966061298384,14717,1532134966058255024,base_link,0.0,0.0,0.0,0.0,-1.0,0.0,0.0,0.0,0.0,0.0,0.0,0.0,0.0,0.215,0.031,-0.104,1.21846967915e-07,0.0,0.0,0.0,1.21846967915e-07,0.0,0.0,0.0,1.21846967915e-07,0.46091255,0.36284605,8.24739265,9e-08,0.0,0.0,0.0,9e-08,0.0,0.0,0.0,9e-08
1532134966116066704,14718,1532134966112968208,base_link,0.0,0.0,0.0,0.0,-1.0,0.0,0.0,0.0,0.0,0.0,0.0,0.0,0.0,0.21,0.035,-0.105,1.21846967915e-07,0.0,0.0,0.0,1.21846967915e-07,0.0,0.0,0.0,1.21846967915e-07,0.6472389,0.3138128,8.58081875,9e-08,0.0,0.0,0.0,9e-08,0.0,0.0,0.0,9e-08
1532134966233288400,14719,1532134966232599152,base_link,0.0,0.0,0.0,0.0,-1.0,0.0,0.0,0.0,0.0,0.0,0.0,0.0,0.0,0.121,0.027,-0.081,1.21846967915e-07,0.0,0.0,0.0,1.21846967915e-07,0.0,0.0,0.0,1.21846967915e-07,0.5687857,0.2941995,9.1201845,9e-08,0.0,0.0,0.0,9e-08,0.0,0.0,0.0,9e-08
1532134966311974160,14720,1532134966311439984,base_link,0.0,0.0,0.0,0.0,-1.0,0.0,0.0,0.0,0.0,0.0,0.0,0.0,0.0,0.097,0.013,-0.066,1.21846967915e-07,0.0,0.0,0.0,1.21846967915e-07,0.0,0.0,0.0,1.21846967915e-07,0.61781895,0.30400615,9.54187045,9e-08,0.0,0.0,0.0,9e-08,0.0,0.0,0.0,9e-08
1532134966413290256,14721,1532134966412764016,base_link,0.0,0.0,0.0,0.0,-1.0,0.0,0.0,0.0,0.0,0.0,0.0,0.0,0.0,0.133,0.001,-0.044,1.21846967915e-07,0.0,0.0,0.0,1.21846967915e-07,0.0,0.0,0.0,1.21846967915e-07,0.7649187,0.30400615,9.7870367,9e-08,0.0,0.0,0.0,9e-08,0.0,0.0,0.0,9e-08
1532134966525178832,14722,1532134966523794960,base_link,0.0,0.0,0.0,0.0,-1.0,0.0,0.0,0.0,0.0,0.0,0.0,0.0,0.0,0.162,0.033,-0.029,1.21846967915e-07,0.0,0.0,0.0,1.21846967915e-07,0.0,0.0,0.0,1.21846967915e-07,0.65704555,0.1569064,8.5906254,9e-08,0.0,0.0,0.0,9e-08,0.0,0.0,0.0,9e-08
1532134966674811344,14723,1532134966674374800,base_link,0.0,0.0,0.0,0.0,-1.0,0.0,0.0,0.0,0.0,0.0,0.0,0.0,0.0,0.193,-0.002,-0.002,1.21846967915e-07,0.0,0.0,0.0,1.21846967915e-07,0.0,0.0,0.0,1.21846967915e-07,0.81395195,0.1569064,9.46341725,9e-08,0.0,0.0,0.0,9e-08,0.0,0.0,0.0,9e-08
1532134966726484816,14724,1532134966725930736,base_link,0.0,0.0,0.0,0.0,-1.0,0.0,0.0,0.0,0.0,0.0,0.0,0.0,0.0,0.105,-0.013,0.011,1.21846967915e-07,0.0,0.0,0.0,1.21846967915e-07,0.0,0.0,0.0,1.21846967915e-07,0.980665,0.1765197,9.73800345,9e-08,0.0,0.0,0.0,9e-08,0.0,0.0,0.0,9e-08
1532134966843375056,14725,1532134966837050832,base_link,0.0,0.0,0.0,0.0,-1.0,0.0,0.0,0.0,0.0,0.0,0.0,0.0,0.0,0.024,-0.022,0.025,1.21846967915e-07,0.0,0.0,0.0,1.21846967915e-07,0.0,0.0,0.0,1.21846967915e-07,0.9414384,0.3334261,10.1400761,9e-08,0.0,0.0,0.0,9e-08,0.0,0.0,0.0,9e-08
1532134966912297840,14726,1532134966911750128,base_link,0.0,0.0,0.0,0.0,-1.0,0.0,0.0,0.0,0.0,0.0,0.0,0.0,0.0,0.072,-0.002,0.012,1.21846967915e-07,0.0,0.0,0.0,1.21846967915e-07,0.0,0.0,0.0,1.21846967915e-07,0.95124505,0.4118793,10.0223963,9e-08,0.0,0.0,0.0,9e-08,0.0,0.0,0.0,9e-08
1532134967015841648,14727,1532134967015234256,base_link,0.0,0.0,0.0,0.0,-1.0,0.0,0.0,0.0,0.0,0.0,0.0,0.0,0.0,0.117,-0.007,-0.008,1.21846967915e-07,0.0,0.0,0.0,1.21846967915e-07,0.0,0.0,0.0,1.21846967915e-07,0.95124505,0.32361945,10.0812362,9e-08,0.0,0.0,0.0,9e-08,0.0,0.0,0.0,9e-08
1532134967109137008,14728,1532134967108322160,base_link,0.0,0.0,0.0,0.0,-1.0,0.0,0.0,0.0,0.0,0.0,0.0,0.0,0.0,0.14,0.01,-0.026,1.21846967915e-07,0.0,0.0,0.0,1.21846967915e-07,0.0,0.0,0.0,1.21846967915e-07,1.0787315,0.3138128,9.26728425,9e-08,0.0,0.0,0.0,9e-08,0.0,0.0,0.0,9e-08
1532134967267100528,14729,1532134967266382000,base_link,0.0,0.0,0.0,0.0,-1.0,0.0,0.0,0.0,0.0,0.0,0.0,0.0,0.0,0.171,-0.014,-0.024,1.21846967915e-07,0.0,0.0,0.0,1.21846967915e-07,0.0,0.0,0.0,1.21846967915e-07,1.1179581,0.3138128,9.67916355,9e-08,0.0,0.0,0.0,9e-08,0.0,0.0,0.0,9e-08
1532134967313530544,14730,1532134967313055120,base_link,0.0,0.0,0.0,0.0,-1.0,0.0,0.0,0.0,0.0,0.0,0.0,0.0,0.0,0.214,-0.023,-0.013,1.21846967915e-07,0.0,0.0,0.0,1.21846967915e-07,0.0,0.0,0.0,1.21846967915e-07,1.1571847,0.32361945,9.610517,9e-08,0.0,0.0,0.0,9e-08,0.0,0.0,0.0,9e-08
1532134967415389744,14731,1532134967414437040,base_link,0.0,0.0,0.0,0.0,-1.0,0.0,0.0,0.0,0.0,0.0,0.0,0.0,0.0,0.213,-0.016,-0.018,1.21846967915e-07,0.0,0.0,0.0,1.21846967915e-07,0.0,0.0,0.0,1.21846967915e-07,0.7649187,0.5491724,9.3751574,9e-08,0.0,0.0,0.0,9e-08,0.0,0.0,0.0,9e-08
1532134967502221712,14732,1532134967501530864,base_link,0.0,0.0,0.0,0.0,-1.0,0.0,0.0,0.0,0.0,0.0,0.0,0.0,0.0,0.154,-0.02,-0.034,1.21846967915e-07,0.0,0.0,0.0,1.21846967915e-07,0.0,0.0,0.0,1.21846967915e-07,0.784532,0.6080123,9.7478101,9e-08,0.0,0.0,0.0,9e-08,0.0,0.0,0.0,9e-08
1532134967615225872,14733,1532134967614692048,base_link,0.0,0.0,0.0,0.0,-1.0,0.0,0.0,0.0,0.0,0.0,0.0,0.0,0.0,0.108,-0.004,-0.092,1.21846967915e-07,0.0,0.0,0.0,1.21846967915e-07,0.0,0.0,0.0,1.21846967915e-07,1.0198916,0.6864655,9.6889702,9e-08,0.0,0.0,0.0,9e-08,0.0,0.0,0.0,9e-08
1532134967693130416,14734,1532134967692703152,base_link,0.0,0.0,0.0,0.0,-1.0,0.0,0.0,0.0,0.0,0.0,0.0,0.0,0.0,0.168,0.01,-0.147,1.21846967915e-07,0.0,0.0,0.0,1.21846967915e-07,0.0,0.0,0.0,1.21846967915e-07,0.8041453,0.6472389,9.32612415,9e-08,0.0,0.0,0.0,9e-08,0.0,0.0,0.0,9e-08
1532134967812597904,14735,1532134967811868592,base_link,0.0,0.0,0.0,0.0,-1.0,0.0,0.0,0.0,0.0,0.0,0.0,0.0,0.0,0.226,-0.052,-0.194,1.21846967915e-07,0.0,0.0,0.0,1.21846967915e-07,0.0,0.0,0.0,1.21846967915e-07,0.83356525,0.392266,10.1204628,9e-08,0.0,0.0,0.0,9e-08,0.0,0.0,0.0,9e-08
1532134967911647632,14736,1532134967906461776,base_link,0.0,0.0,0.0,0.0,-1.0,0.0,0.0,0.0,0.0,0.0,0.0,0.0,0.0,0.289,-0.062,-0.196,1.21846967915e-07,0.0,0.0,0.0,1.21846967915e-07,0.0,0.0,0.0,1.21846967915e-07,0.5687857,0.44129925,9.8851032,9e-08,0.0,0.0,0.0,9e-08,0.0,0.0,0.0,9e-08
1532134968029184880,14737,1532134968025080336,base_link,0.0,0.0,0.0,0.0,-1.0,0.0,0.0,0.0,0.0,0.0,0.0,0.0,0.0,0.282,-0.059,-0.181,1.21846967915e-07,0.0,0.0,0.0,1.21846967915e-07,0.0,0.0,0.0,1.21846967915e-07,0.59820565,0.392266,9.83606995,9e-08,0.0,0.0,0.0,9e-08,0.0,0.0,0.0,9e-08
1532134968107382800,14738,1532134968106840272,base_link,0.0,0.0,0.0,0.0,-1.0,0.0,0.0,0.0,0.0,0.0,0.0,0.0,0.0,0.228,-0.081,-0.164,1.21846967915e-07,0.0,0.0,0.0,1.21846967915e-07,0.0,0.0,0.0,1.21846967915e-07,0.87279185,0.392266,10.54214875,9e-08,0.0,0.0,0.0,9e-08,0.0,0.0,0.0,9e-08
1532134968207122448,14739,1532134968206519216,base_link,0.0,0.0,0.0,0.0,-1.0,0.0,0.0,0.0,0.0,0.0,0.0,0.0,0.0,0.217,-0.109,-0.164,1.21846967915e-07,0.0,0.0,0.0,1.21846967915e-07,0.0,0.0,0.0,1.21846967915e-07,0.7453054,0.4511059,11.13054775,9e-08,0.0,0.0,0.0,9e-08,0.0,0.0,0.0,9e-08
1532134968318189104,14740,1532134968313418832,base_link,0.0,0.0,0.0,0.0,-1.0,0.0,0.0,0.0,0.0,0.0,0.0,0.0,0.0,0.224,-0.091,-0.178,1.21846967915e-07,0.0,0.0,0.0,1.21846967915e-07,0.0,0.0,0.0,1.21846967915e-07,0.89240515,0.44129925,10.07142955,9e-08,0.0,0.0,0.0,9e-08,0.0,0.0,0.0,9e-08
1532134968423415696,14741,1532134968422272304,base_link,0.0,0.0,0.0,0.0,-1.0,0.0,0.0,0.0,0.0,0.0,0.0,0.0,0.0,0.208,-0.155,-0.182,1.21846967915e-07,0.0,0.0,0.0,1.21846967915e-07,0.0,0.0,0.0,1.21846967915e-07,0.8433719,0.46091255,11.6110736,9e-08,0.0,0.0,0.0,9e-08,0.0,0.0,0.0,9e-08
1532134968520753776,14742,1532134968520114672,base_link,0.0,0.0,0.0,0.0,-1.0,0.0,0.0,0.0,0.0,0.0,0.0,0.0,0.0,0.087,-0.124,-0.184,1.21846967915e-07,0.0,0.0,0.0,1.21846967915e-07,0.0,0.0,0.0,1.21846967915e-07,0.8629852,0.4511059,10.54214875,9e-08,0.0,0.0,0.0,9e-08,0.0,0.0,0.0,9e-08
1532134968609494896,14743,1532134968609092368,base_link,0.0,0.0,0.0,0.0,-1.0,0.0,0.0,0.0,0.0,0.0,0.0,0.0,0.0,0.111,-0.151,-0.201,1.21846967915e-07,0.0,0.0,0.0,1.21846967915e-07,0.0,0.0,0.0,1.21846967915e-07,0.7060788,0.55897905,11.2384209,9e-08,0.0,0.0,0.0,9e-08,0.0,0.0,0.0,9e-08
1532134968724361072,14744,1532134968723691760,base_link,0.0,0.0,0.0,0.0,-1.0,0.0,0.0,0.0,0.0,0.0,0.0,0.0,0.0,0.144,-0.131,-0.226,1.21846967915e-07,0.0,0.0,0.0,1.21846967915e-07,0.0,0.0,0.0,1.21846967915e-07,0.6864655,0.46091255,10.87557485,9e-08,0.0,0.0,0.0,9e-08,0.0,0.0,0.0,9e-08
1532134968830251056,14745,1532134968828737200,base_link,0.0,0.0,0.0,0.0,-1.0,0.0,0.0,0.0,0.0,0.0,0.0,0.0,0.0,0.158,-0.145,-0.234,1.21846967915e-07,0.0,0.0,0.0,1.21846967915e-07,0.0,0.0,0.0,1.21846967915e-07,0.65704555,0.4903325,11.15016105,9e-08,0.0,0.0,0.0,9e-08,0.0,0.0,0.0,9e-08
1532134968913587984,14746,1532134968913154288,base_link,0.0,0.0,0.0,0.0,-1.0,0.0,0.0,0.0,0.0,0.0,0.0,0.0,0.0,0.191,-0.138,-0.245,1.21846967915e-07,0.0,0.0,0.0,1.21846967915e-07,0.0,0.0,0.0,1.21846967915e-07,0.63743225,0.48052585,10.64021525,9e-08,0.0,0.0,0.0,9e-08,0.0,0.0,0.0,9e-08
1532134969012141904,14747,1532134969011410448,base_link,0.0,0.0,0.0,0.0,-1.0,0.0,0.0,0.0,0.0,0.0,0.0,0.0,0.0,0.173,-0.154,-0.241,1.21846967915e-07,0.0,0.0,0.0,1.21846967915e-07,0.0,0.0,0.0,1.21846967915e-07,0.65704555,0.63743225,10.7677017,9e-08,0.0,0.0,0.0,9e-08,0.0,0.0,0.0,9e-08
1532134969106369136,14748,1532134969105577136,base_link,0.0,0.0,0.0,0.0,-1.0,0.0,0.0,0.0,0.0,0.0,0.0,0.0,0.0,0.124,-0.145,-0.25,1.21846967915e-07,0.0,0.0,0.0,1.21846967915e-07,0.0,0.0,0.0,1.21846967915e-07,0.588399,0.5295591,10.14988275,9e-08,0.0,0.0,0.0,9e-08,0.0,0.0,0.0,9e-08
1532134969217371184,14749,1532134969216592048,base_link,0.0,0.0,0.0,0.0,-1.0,0.0,0.0,0.0,0.0,0.0,0.0,0.0,0.0,0.096,-0.168,-0.27,1.21846967915e-07,0.0,0.0,0.0,1.21846967915e-07,0.0,0.0,0.0,1.21846967915e-07,0.588399,0.6472389,10.5323421,9e-08,0.0,0.0,0.0,9e-08,0.0,0.0,0.0,9e-08
1532134969313562128,14750,1532134969312658736,base_link,0.0,0.0,0.0,0.0,-1.0,0.0,0.0,0.0,0.0,0.0,0.0,0.0,0.0,0.116,-0.15,-0.29,1.21846967915e-07,0.0,0.0,0.0,1.21846967915e-07,0.0,0.0,0.0,1.21846967915e-07,0.63743225,0.57859235,10.0812362,9e-08,0.0,0.0,0.0,9e-08,0.0,0.0,0.0,9e-08
1532134969417658032,14751,1532134969416941616,base_link,0.0,0.0,0.0,0.0,-1.0,0.0,0.0,0.0,0.0,0.0,0.0,0.0,0.0,0.108,-0.173,-0.307,1.21846967915e-07,0.0,0.0,0.0,1.21846967915e-07,0.0,0.0,0.0,1.21846967915e-07,0.6472389,0.63743225,10.67944185,9e-08,0.0,0.0,0.0,9e-08,0.0,0.0,0.0,9e-08
1532134969509042704,14752,1532134969508665296,base_link,0.0,0.0,0.0,0.0,-1.0,0.0,0.0,0.0,0.0,0.0,0.0,0.0,0.0,0.099,-0.18,-0.312,1.21846967915e-07,0.0,0.0,0.0,1.21846967915e-07,0.0,0.0,0.0,1.21846967915e-07,0.55897905,0.6864655,10.54214875,9e-08,0.0,0.0,0.0,9e-08,0.0,0.0,0.0,9e-08
1532134969590701872,14753,1532134969590263376,base_link,0.0,0.0,0.0,0.0,-1.0,0.0,0.0,0.0,0.0,0.0,0.0,0.0,0.0,0.06,-0.173,-0.325,1.21846967915e-07,0.0,0.0,0.0,1.21846967915e-07,0.0,0.0,0.0,1.21846967915e-07,0.73549875,0.5491724,10.38524235,9e-08,0.0,0.0,0.0,9e-08,0.0,0.0,0.0,9e-08
1532134969754117904,14754,1532134969753488400,base_link,0.0,0.0,0.0,0.0,-1.0,0.0,0.0,0.0,0.0,0.0,0.0,0.0,0.0,0.001,-0.186,-0.334,1.21846967915e-07,0.0,0.0,0.0,1.21846967915e-07,0.0,0.0,0.0,1.21846967915e-07,0.980665,0.51975245,10.5519554,9e-08,0.0,0.0,0.0,9e-08,0.0,0.0,0.0,9e-08
1532134969811134992,14755,1532134969805797456,base_link,0.0,0.0,0.0,0.0,-1.0,0.0,0.0,0.0,0.0,0.0,0.0,0.0,0.0,0.018,-0.186,-0.335,1.21846967915e-07,0.0,0.0,0.0,1.21846967915e-07,0.0,0.0,0.0,1.21846967915e-07,0.9218251,0.53936575,10.4931155,9e-08,0.0,0.0,0.0,9e-08,0.0,0.0,0.0,9e-08
1532134969900736816,14756,1532134969899322384,base_link,0.0,0.0,0.0,0.0,-1.0,0.0,0.0,0.0,0.0,0.0,0.0,0.0,0.0,0.119,-0.206,-0.339,1.21846967915e-07,0.0,0.0,0.0,1.21846967915e-07,0.0,0.0,0.0,1.21846967915e-07,0.7256921,0.61781895,10.8069283,9e-08,0.0,0.0,0.0,9e-08,0.0,0.0,0.0,9e-08
1532134970011273264,14757,1532134970010615600,base_link,0.0,0.0,0.0,0.0,-1.0,0.0,0.0,0.0,0.0,0.0,0.0,0.0,0.0,0.172,-0.199,-0.34,1.21846967915e-07,0.0,0.0,0.0,1.21846967915e-07,0.0,0.0,0.0,1.21846967915e-07,0.6276256,0.61781895,9.9243298,9e-08,0.0,0.0,0.0,9e-08,0.0,0.0,0.0,9e-08
1532134970106728336,14758,1532134970105481424,base_link,0.0,0.0,0.0,0.0,-1.0,0.0,0.0,0.0,0.0,0.0,0.0,0.0,0.0,0.147,-0.232,-0.346,1.21846967915e-07,0.0,0.0,0.0,1.21846967915e-07,0.0,0.0,0.0,1.21846967915e-07,0.8237586,0.5099458,10.30678915,9e-08,0.0,0.0,0.0,9e-08,0.0,0.0,0.0,9e-08
1532134970212579568,14759,1532134970212039568,base_link,0.0,0.0,0.0,0.0,-1.0,0.0,0.0,0.0,0.0,0.0,0.0,0.0,0.0,0.067,-0.271,-0.325,1.21846967915e-07,0.0,0.0,0.0,1.21846967915e-07,0.0,0.0,0.0,1.21846967915e-07,0.97085835,0.5099458,10.69905515,9e-08,0.0,0.0,0.0,9e-08,0.0,0.0,0.0,9e-08
1532134970339640656,14760,1532134970339196528,base_link,0.0,0.0,0.0,0.0,-1.0,0.0,0.0,0.0,0.0,0.0,0.0,0.0,0.0,-0.007,-0.276,-0.303,1.21846967915e-07,0.0,0.0,0.0,1.21846967915e-07,0.0,0.0,0.0,1.21846967915e-07,0.89240515,0.6276256,11.1011278,9e-08,0.0,0.0,0.0,9e-08,0.0,0.0,0.0,9e-08
1532134970429428592,14761,1532134970427599664,base_link,0.0,0.0,0.0,0.0,-1.0,0.0,0.0,0.0,0.0,0.0,0.0,0.0,0.0,-0.093,-0.305,-0.294,1.21846967915e-07,0.0,0.0,0.0,1.21846967915e-07,0.0,0.0,0.0,1.21846967915e-07,0.87279185,0.7649187,11.6306869,9e-08,0.0,0.0,0.0,9e-08,0.0,0.0,0.0,9e-08
1532134970518323408,14762,1532134970517917744,base_link,0.0,0.0,0.0,0.0,-1.0,0.0,0.0,0.0,0.0,0.0,0.0,0.0,0.0,-0.205,-0.303,-0.295,1.21846967915e-07,0.0,0.0,0.0,1.21846967915e-07,0.0,0.0,0.0,1.21846967915e-07,1.02969825,0.7060788,12.160246,9e-08,0.0,0.0,0.0,9e-08,0.0,0.0,0.0,9e-08
1532134970613279984,14763,1532134970612802608,base_link,0.0,0.0,0.0,0.0,-1.0,0.0,0.0,0.0,0.0,0.0,0.0,0.0,0.0,-0.171,-0.31,-0.311,1.21846967915e-07,0.0,0.0,0.0,1.21846967915e-07,0.0,0.0,0.0,1.21846967915e-07,1.3533177,0.6080123,12.7094184,9e-08,0.0,0.0,0.0,9e-08,0.0,0.0,0.0,9e-08
1532134970691636976,14764,1532134970689165008,base_link,0.0,0.0,0.0,0.0,-1.0,0.0,0.0,0.0,0.0,0.0,0.0,0.0,0.0,-0.11,-0.287,-0.311,1.21846967915e-07,0.0,0.0,0.0,1.21846967915e-07,0.0,0.0,0.0,1.21846967915e-07,1.02969825,0.6472389,12.1994726,9e-08,0.0,0.0,0.0,9e-08,0.0,0.0,0.0,9e-08
1532134970811917776,14765,1532134970811400656,base_link,0.0,0.0,0.0,0.0,-1.0,0.0,0.0,0.0,0.0,0.0,0.0,0.0,0.0,-0.078,-0.303,-0.306,1.21846967915e-07,0.0,0.0,0.0,1.21846967915e-07,0.0,0.0,0.0,1.21846967915e-07,0.89240515,0.73549875,12.40541225,9e-08,0.0,0.0,0.0,9e-08,0.0,0.0,0.0,9e-08
1532134970953218032,14766,1532134970952673552,base_link,0.0,0.0,0.0,0.0,-1.0,0.0,0.0,0.0,0.0,0.0,0.0,0.0,0.0,-0.049,-0.284,-0.304,1.21846967915e-07,0.0,0.0,0.0,1.21846967915e-07,0.0,0.0,0.0,1.21846967915e-07,1.0983448,0.6080123,12.24850585,9e-08,0.0,0.0,0.0,9e-08,0.0,0.0,0.0,9e-08
1532134971018226672,14767,1532134971017399248,base_link,0.0,0.0,0.0,0.0,-1.0,0.0,0.0,0.0,0.0,0.0,0.0,0.0,0.0,-0.06,-0.303,-0.296,1.21846967915e-07,0.0,0.0,0.0,1.21846967915e-07,0.0,0.0,0.0,1.21846967915e-07,0.99047165,0.67665885,12.944778,9e-08,0.0,0.0,0.0,9e-08,0.0,0.0,0.0,9e-08
1532134971092003216,14768,1532134971090731504,base_link,0.0,0.0,0.0,0.0,-1.0,0.0,0.0,0.0,0.0,0.0,0.0,0.0,0.0,-0.096,-0.289,-0.298,1.21846967915e-07,0.0,0.0,0.0,1.21846967915e-07,0.0,0.0,0.0,1.21846967915e-07,0.9610517,0.6472389,12.60154525,9e-08,0.0,0.0,0.0,9e-08,0.0,0.0,0.0,9e-08
1532134971214017552,14769,1532134971213041712,base_link,0.0,0.0,0.0,0.0,-1.0,0.0,0.0,0.0,0.0,0.0,0.0,0.0,0.0,-0.141,-0.284,-0.305,1.21846967915e-07,0.0,0.0,0.0,1.21846967915e-07,0.0,0.0,0.0,1.21846967915e-07,0.93163175,0.69627215,12.4544455,9e-08,0.0,0.0,0.0,9e-08,0.0,0.0,0.0,9e-08
1532134971310030512,14770,1532134971309263984,base_link,0.0,0.0,0.0,0.0,-1.0,0.0,0.0,0.0,0.0,0.0,0.0,0.0,0.0,-0.116,-0.278,-0.313,1.21846967915e-07,0.0,0.0,0.0,1.21846967915e-07,0.0,0.0,0.0,1.21846967915e-07,0.8433719,0.7060788,12.1994726,9e-08,0.0,0.0,0.0,9e-08,0.0,0.0,0.0,9e-08
1532134971415244496,14771,1532134971414413712,base_link,0.0,0.0,0.0,0.0,-1.0,0.0,0.0,0.0,0.0,0.0,0.0,0.0,0.0,-0.063,-0.258,-0.323,1.21846967915e-07,0.0,0.0,0.0,1.21846967915e-07,0.0,0.0,0.0,1.21846967915e-07,0.9022118,0.50013915,11.73856005,9e-08,0.0,0.0,0.0,9e-08,0.0,0.0,0.0,9e-08
1532134971584262320,14772,1532134971582965744,base_link,0.0,0.0,0.0,0.0,-1.0,0.0,0.0,0.0,0.0,0.0,0.0,0.0,0.0,0.0,-0.27,-0.311,1.21846967915e-07,0.0,0.0,0.0,1.21846967915e-07,0.0,0.0,0.0,1.21846967915e-07,0.9218251,0.59820565,12.552512,9e-08,0.0,0.0,0.0,9e-08,0.0,0.0,0.0,9e-08
1532134971625681808,14773,1532134971621779024,base_link,0.0,0.0,0.0,0.0,-1.0,0.0,0.0,0.0,0.0,0.0,0.0,0.0,0.0,0.003,-0.275,-0.303,1.21846967915e-07,0.0,0.0,0.0,1.21846967915e-07,0.0,0.0,0.0,1.21846967915e-07,0.9022118,0.5099458,12.48386545,9e-08,0.0,0.0,0.0,9e-08,0.0,0.0,0.0,9e-08
1532134971702716176,14774,1532134971701970448,base_link,0.0,0.0,0.0,0.0,-1.0,0.0,0.0,0.0,0.0,0.0,0.0,0.0,0.0,-0.028,-0.27,-0.288,1.21846967915e-07,0.0,0.0,0.0,1.21846967915e-07,0.0,0.0,0.0,1.21846967915e-07,0.8825985,0.44129925,12.11121275,9e-08,0.0,0.0,0.0,9e-08,0.0,0.0,0.0,9e-08
1532134971812279088,14775,1532134971811866128,base_link,0.0,0.0,0.0,0.0,-1.0,0.0,0.0,0.0,0.0,0.0,0.0,0.0,0.0,-0.161,-0.264,-0.268,1.21846967915e-07,0.0,0.0,0.0,1.21846967915e-07,0.0,0.0,0.0,1.21846967915e-07,0.97085835,0.50013915,11.6503002,9e-08,0.0,0.0,0.0,9e-08,0.0,0.0,0.0,9e-08
1532134971918801008,14776,1532134971917151536,base_link,0.0,0.0,0.0,0.0,-1.0,0.0,0.0,0.0,0.0,0.0,0.0,0.0,0.0,-0.192,-0.248,-0.259,1.21846967915e-07,0.0,0.0,0.0,1.21846967915e-07,0.0,0.0,0.0,1.21846967915e-07,0.95124505,0.5491724,11.32668075,9e-08,0.0,0.0,0.0,9e-08,0.0,0.0,0.0,9e-08
1532134972014812080,14777,1532134972014417680,base_link,0.0,0.0,0.0,0.0,-1.0,0.0,0.0,0.0,0.0,0.0,0.0,0.0,0.0,-0.097,-0.222,-0.27,1.21846967915e-07,0.0,0.0,0.0,1.21846967915e-07,0.0,0.0,0.0,1.21846967915e-07,0.9218251,0.61781895,11.1207411,9e-08,0.0,0.0,0.0,9e-08,0.0,0.0,0.0,9e-08
1532134972131102000,14778,1532134972130566416,base_link,0.0,0.0,0.0,0.0,-1.0,0.0,0.0,0.0,0.0,0.0,0.0,0.0,0.0,-0.183,-0.192,-0.26,1.21846967915e-07,0.0,0.0,0.0,1.21846967915e-07,0.0,0.0,0.0,1.21846967915e-07,1.01008495,0.5099458,10.89518815,9e-08,0.0,0.0,0.0,9e-08,0.0,0.0,0.0,9e-08
1532134972217613456,14779,1532134972216992112,base_link,0.0,0.0,0.0,0.0,-1.0,0.0,0.0,0.0,0.0,0.0,0.0,0.0,0.0,-0.206,-0.192,-0.254,1.21846967915e-07,0.0,0.0,0.0,1.21846967915e-07,0.0,0.0,0.0,1.21846967915e-07,1.24544455,0.588399,11.85623985,9e-08,0.0,0.0,0.0,9e-08,0.0,0.0,0.0,9e-08
1532134972312073040,14780,1532134972311458032,base_link,0.0,0.0,0.0,0.0,-1.0,0.0,0.0,0.0,0.0,0.0,0.0,0.0,0.0,-0.19,-0.195,-0.247,1.21846967915e-07,0.0,0.0,0.0,1.21846967915e-07,0.0,0.0,0.0,1.21846967915e-07,1.20621795,0.7256921,11.83662655,9e-08,0.0,0.0,0.0,9e-08,0.0,0.0,0.0,9e-08
1532134972409041040,14781,1532134972408267696,base_link,0.0,0.0,0.0,0.0,-1.0,0.0,0.0,0.0,0.0,0.0,0.0,0.0,0.0,-0.252,-0.15,-0.261,1.21846967915e-07,0.0,0.0,0.0,1.21846967915e-07,0.0,0.0,0.0,1.21846967915e-07,1.0395049,0.6668522,11.0815145,9e-08,0.0,0.0,0.0,9e-08,0.0,0.0,0.0,9e-08
1532134972529410192,14782,1532134972528931184,base_link,0.0,0.0,0.0,0.0,-1.0,0.0,0.0,0.0,0.0,0.0,0.0,0.0,0.0,-0.28,-0.159,-0.272,1.21846967915e-07,0.0,0.0,0.0,1.21846967915e-07,0.0,0.0,0.0,1.21846967915e-07,1.08853815,0.63743225,10.97364135,9e-08,0.0,0.0,0.0,9e-08,0.0,0.0,0.0,9e-08
1532134972617527760,14783,1532134972616954352,base_link,0.0,0.0,0.0,0.0,-1.0,0.0,0.0,0.0,0.0,0.0,0.0,0.0,0.0,-0.319,-0.153,-0.267,1.21846967915e-07,0.0,0.0,0.0,1.21846967915e-07,0.0,0.0,0.0,1.21846967915e-07,1.44157755,0.55897905,11.375714,9e-08,0.0,0.0,0.0,9e-08,0.0,0.0,0.0,9e-08
1532134972711835088,14784,1532134972711321200,base_link,0.0,0.0,0.0,0.0,-1.0,0.0,0.0,0.0,0.0,0.0,0.0,0.0,0.0,-0.258,-0.141,-0.255,1.21846967915e-07,0.0,0.0,0.0,1.21846967915e-07,0.0,0.0,0.0,1.21846967915e-07,1.3140911,0.67665885,11.66010685,9e-08,0.0,0.0,0.0,9e-08,0.0,0.0,0.0,9e-08
1532134972805686640,14785,1532134972804328336,base_link,0.0,0.0,0.0,0.0,-1.0,0.0,0.0,0.0,0.0,0.0,0.0,0.0,0.0,-0.298,-0.124,-0.261,1.21846967915e-07,0.0,0.0,0.0,1.21846967915e-07,0.0,0.0,0.0,1.21846967915e-07,1.372931,0.59820565,10.7677017,9e-08,0.0,0.0,0.0,9e-08,0.0,0.0,0.0,9e-08
1532134972913604624,14786,1532134972913216656,base_link,0.0,0.0,0.0,0.0,-1.0,0.0,0.0,0.0,0.0,0.0,0.0,0.0,0.0,-0.255,-0.133,-0.271,1.21846967915e-07,0.0,0.0,0.0,1.21846967915e-07,0.0,0.0,0.0,1.21846967915e-07,1.176798,0.6864655,11.3561007,9e-08,0.0,0.0,0.0,9e-08,0.0,0.0,0.0,9e-08
1532134973014522736,14787,1532134973013733264,base_link,0.0,0.0,0.0,0.0,-1.0,0.0,0.0,0.0,0.0,0.0,0.0,0.0,0.0,-0.278,-0.115,-0.268,1.21846967915e-07,0.0,0.0,0.0,1.21846967915e-07,0.0,0.0,0.0,1.21846967915e-07,1.1375714,0.4511059,11.1011278,9e-08,0.0,0.0,0.0,9e-08,0.0,0.0,0.0,9e-08
1532134973100535728,14788,1532134973099718576,base_link,0.0,0.0,0.0,0.0,-1.0,0.0,0.0,0.0,0.0,0.0,0.0,0.0,0.0,-0.278,-0.105,-0.254,1.21846967915e-07,0.0,0.0,0.0,1.21846967915e-07,0.0,0.0,0.0,1.21846967915e-07,1.1179581,0.392266,10.6500219,9e-08,0.0,0.0,0.0,9e-08,0.0,0.0,0.0,9e-08
1532134973220724944,14789,1532134973220174672,base_link,0.0,0.0,0.0,0.0,-1.0,0.0,0.0,0.0,0.0,0.0,0.0,0.0,0.0,-0.24,-0.094,-0.213,1.21846967915e-07,0.0,0.0,0.0,1.21846967915e-07,0.0,0.0,0.0,1.21846967915e-07,1.3337044,0.30400615,10.64021525,9e-08,0.0,0.0,0.0,9e-08,0.0,0.0,0.0,9e-08
1532134973312816112,14790,1532134973311741712,base_link,0.0,0.0,0.0,0.0,-1.0,0.0,0.0,0.0,0.0,0.0,0.0,0.0,0.0,-0.309,-0.089,-0.169,1.21846967915e-07,0.0,0.0,0.0,1.21846967915e-07,0.0,0.0,0.0,1.21846967915e-07,1.06892485,0.36284605,10.3754357,9e-08,0.0,0.0,0.0,9e-08,0.0,0.0,0.0,9e-08
1532134973424526800,14791,1532134973423196912,base_link,0.0,0.0,0.0,0.0,-1.0,0.0,0.0,0.0,0.0,0.0,0.0,0.0,0.0,-0.368,-0.052,-0.127,1.21846967915e-07,0.0,0.0,0.0,1.21846967915e-07,0.0,0.0,0.0,1.21846967915e-07,1.22583125,0.32361945,9.75761675,9e-08,0.0,0.0,0.0,9e-08,0.0,0.0,0.0,9e-08
1532134973513511312,14792,1532134973506784400,base_link,0.0,0.0,0.0,0.0,-1.0,0.0,0.0,0.0,0.0,0.0,0.0,0.0,0.0,-0.357,-0.042,-0.106,1.21846967915e-07,0.0,0.0,0.0,1.21846967915e-07,0.0,0.0,0.0,1.21846967915e-07,1.18660465,0.36284605,9.4339973,9e-08,0.0,0.0,0.0,9e-08,0.0,0.0,0.0,9e-08
1532134973613169776,14793,1532134973612764944,base_link,0.0,0.0,0.0,0.0,-1.0,0.0,0.0,0.0,0.0,0.0,0.0,0.0,0.0,-0.283,-0.039,-0.102,1.21846967915e-07,0.0,0.0,0.0,1.21846967915e-07,0.0,0.0,0.0,1.21846967915e-07,1.1375714,0.4903325,9.69877685,9e-08,0.0,0.0,0.0,9e-08,0.0,0.0,0.0,9e-08
1532134973713121008,14794,1532134973711074576,base_link,0.0,0.0,0.0,0.0,-1.0,0.0,0.0,0.0,0.0,0.0,0.0,0.0,0.0,-0.253,-0.032,-0.111,1.21846967915e-07,0.0,0.0,0.0,1.21846967915e-07,0.0,0.0,0.0,1.21846967915e-07,1.32389775,0.40207265,9.3751574,9e-08,0.0,0.0,0.0,9e-08,0.0,0.0,0.0,9e-08
1532134973804136240,14795,1532134973803746832,base_link,0.0,0.0,0.0,0.0,-1.0,0.0,0.0,0.0,0.0,0.0,0.0,0.0,0.0,-0.354,-0.023,-0.104,1.21846967915e-07,0.0,0.0,0.0,1.21846967915e-07,0.0,0.0,0.0,1.21846967915e-07,1.36312435,0.4118793,9.4339973,9e-08,0.0,0.0,0.0,9e-08,0.0,0.0,0.0,9e-08
1532134973909982480,14796,1532134973909480560,base_link,0.0,0.0,0.0,0.0,-1.0,0.0,0.0,0.0,0.0,0.0,0.0,0.0,0.0,-0.402,-0.036,-0.097,1.21846967915e-07,0.0,0.0,0.0,1.21846967915e-07,0.0,0.0,0.0,1.21846967915e-07,1.40235095,0.3138128,10.5519554,9e-08,0.0,0.0,0.0,9e-08,0.0,0.0,0.0,9e-08
1532134974040133296,14797,1532134974039542864,base_link,0.0,0.0,0.0,0.0,-1.0,0.0,0.0,0.0,0.0,0.0,0.0,0.0,0.0,-0.326,-0.019,-0.061,1.21846967915e-07,0.0,0.0,0.0,1.21846967915e-07,0.0,0.0,0.0,1.21846967915e-07,1.3337044,0.3726527,10.4342756,9e-08,0.0,0.0,0.0,9e-08,0.0,0.0,0.0,9e-08
1532134974109844144,14798,1532134974106376656,base_link,0.0,0.0,0.0,0.0,-1.0,0.0,0.0,0.0,0.0,0.0,0.0,0.0,0.0,-0.286,0.008,-0.047,1.21846967915e-07,0.0,0.0,0.0,1.21846967915e-07,0.0,0.0,0.0,1.21846967915e-07,1.34351105,0.3138128,9.6889702,9e-08,0.0,0.0,0.0,9e-08,0.0,0.0,0.0,9e-08
1532134974218554768,14799,1532134974217842864,base_link,0.0,0.0,0.0,0.0,-1.0,0.0,0.0,0.0,0.0,0.0,0.0,0.0,0.0,-0.243,-0.003,-0.026,1.21846967915e-07,0.0,0.0,0.0,1.21846967915e-07,0.0,0.0,0.0,1.21846967915e-07,1.26505785,0.3138128,9.8851032,9e-08,0.0,0.0,0.0,9e-08,0.0,0.0,0.0,9e-08
1532134974290712144,14800,1532134974289344368,base_link,0.0,0.0,0.0,0.0,-1.0,0.0,0.0,0.0,0.0,0.0,0.0,0.0,0.0,-0.272,-1.71450551881e-18,-0.014,1.21846967915e-07,0.0,0.0,0.0,1.21846967915e-07,0.0,0.0,0.0,1.21846967915e-07,1.3925443,0.1765197,9.67916355,9e-08,0.0,0.0,0.0,9e-08,0.0,0.0,0.0,9e-08
1532134974412953072,14801,1532134974412526800,base_link,0.0,0.0,0.0,0.0,-1.0,0.0,0.0,0.0,0.0,0.0,0.0,0.0,0.0,-0.261,0.026,0.032,1.21846967915e-07,0.0,0.0,0.0,1.21846967915e-07,0.0,0.0,0.0,1.21846967915e-07,1.44157755,0.20593965,8.58081875,9e-08,0.0,0.0,0.0,9e-08,0.0,0.0,0.0,9e-08
1532134974503820112,14802,1532134974503188976,base_link,0.0,0.0,0.0,0.0,-1.0,0.0,0.0,0.0,0.0,0.0,0.0,0.0,0.0,-0.255,0.028,0.044,1.21846967915e-07,0.0,0.0,0.0,1.21846967915e-07,0.0,0.0,0.0,1.21846967915e-07,1.28467115,0.36284605,8.40429905,9e-08,0.0,0.0,0.0,9e-08,0.0,0.0,0.0,9e-08
1532134974623850960,14803,1532134974623283920,base_link,0.0,0.0,0.0,0.0,-1.0,0.0,0.0,0.0,0.0,0.0,0.0,0.0,0.0,-0.222,0.012,0.04,1.21846967915e-07,0.0,0.0,0.0,1.21846967915e-07,0.0,0.0,0.0,1.21846967915e-07,1.4513842,0.1765197,9.0417313,9e-08,0.0,0.0,0.0,9e-08,0.0,0.0,0.0,9e-08
1532134974696235216,14804,1532134974694412304,base_link,0.0,0.0,0.0,0.0,-1.0,0.0,0.0,0.0,0.0,0.0,0.0,0.0,0.0,-0.157,0.025,0.042,1.21846967915e-07,0.0,0.0,0.0,1.21846967915e-07,0.0,0.0,0.0,1.21846967915e-07,1.71616375,0.2157463,8.93385815,9e-08,0.0,0.0,0.0,9e-08,0.0,0.0,0.0,9e-08
1532134974827561136,14805,1532134974826365904,base_link,0.0,0.0,0.0,0.0,-1.0,0.0,0.0,0.0,0.0,0.0,0.0,0.0,0.0,0.031,0.011,0.037,1.21846967915e-07,0.0,0.0,0.0,1.21846967915e-07,0.0,0.0,0.0,1.21846967915e-07,1.6867438,0.24516625,9.44380395,9e-08,0.0,0.0,0.0,9e-08,0.0,0.0,0.0,9e-08
1532134974907783216,14806,1532134974905591824,base_link,0.0,0.0,0.0,0.0,-1.0,0.0,0.0,0.0,0.0,0.0,0.0,0.0,0.0,0.02,0.028,0.057,1.21846967915e-07,0.0,0.0,0.0,1.21846967915e-07,0.0,0.0,0.0,1.21846967915e-07,1.85345685,0.3530394,9.34573745,9e-08,0.0,0.0,0.0,9e-08,0.0,0.0,0.0,9e-08
1532134975017310512,14807,1532134975012313488,base_link,0.0,0.0,0.0,0.0,-1.0,0.0,0.0,0.0,0.0,0.0,0.0,0.0,0.0,-0.04,0.022,0.087,1.21846967915e-07,0.0,0.0,0.0,1.21846967915e-07,0.0,0.0,0.0,1.21846967915e-07,1.79461695,0.28439285,9.7674234,9e-08,0.0,0.0,0.0,9e-08,0.0,0.0,0.0,9e-08
1532134975125393488,14808,1532134975124025008,base_link,0.0,0.0,0.0,0.0,-1.0,0.0,0.0,0.0,0.0,0.0,0.0,0.0,0.0,0.068,-0.003,0.1,1.21846967915e-07,0.0,0.0,0.0,1.21846967915e-07,0.0,0.0,0.0,1.21846967915e-07,2.06920315,0.1569064,10.1400761,9e-08,0.0,0.0,0.0,9e-08,0.0,0.0,0.0,9e-08
1532134975215340048,14809,1532134975214866864,base_link,0.0,0.0,0.0,0.0,-1.0,0.0,0.0,0.0,0.0,0.0,0.0,0.0,0.0,-0.001,0.02,0.124,1.21846967915e-07,0.0,0.0,0.0,1.21846967915e-07,0.0,0.0,0.0,1.21846967915e-07,2.06920315,0.3530394,9.50264385,9e-08,0.0,0.0,0.0,9e-08,0.0,0.0,0.0,9e-08
1532134975324638992,14810,1532134975323914192,base_link,0.0,0.0,0.0,0.0,-1.0,0.0,0.0,0.0,0.0,0.0,0.0,0.0,0.0,-0.107,0.028,0.142,1.21846967915e-07,0.0,0.0,0.0,1.21846967915e-07,0.0,0.0,0.0,1.21846967915e-07,1.7455837,0.22555295,8.60043205,9e-08,0.0,0.0,0.0,9e-08,0.0,0.0,0.0,9e-08
1532134975413263632,14811,1532134975412270224,base_link,0.0,0.0,0.0,0.0,-1.0,0.0,0.0,0.0,0.0,0.0,0.0,0.0,0.0,-0.054,0.028,0.151,1.21846967915e-07,0.0,0.0,0.0,1.21846967915e-07,0.0,0.0,0.0,1.21846967915e-07,2.0593965,0.392266,8.7475318,9e-08,0.0,0.0,0.0,9e-08,0.0,0.0,0.0,9e-08
1532134975512734864,14812,1532134975511383184,base_link,0.0,0.0,0.0,0.0,-1.0,0.0,0.0,0.0,0.0,0.0,0.0,0.0,0.0,-0.075,0.026,0.14,1.21846967915e-07,0.0,0.0,0.0,1.21846967915e-07,0.0,0.0,0.0,1.21846967915e-07,1.73577705,0.57859235,9.24767095,9e-08,0.0,0.0,0.0,9e-08,0.0,0.0,0.0,9e-08
1532134975629767472,14813,1532134975628919024,base_link,0.0,0.0,0.0,0.0,-1.0,0.0,0.0,0.0,0.0,0.0,0.0,0.0,0.0,-0.14,0.047,0.117,1.21846967915e-07,0.0,0.0,0.0,1.21846967915e-07,0.0,0.0,0.0,1.21846967915e-07,2.16726965,0.48052585,9.0417313,9e-08,0.0,0.0,0.0,9e-08,0.0,0.0,0.0,9e-08
1532134975709434064,14814,1532134975708999952,base_link,0.0,0.0,0.0,0.0,-1.0,0.0,0.0,0.0,0.0,0.0,0.0,0.0,0.0,-0.06,0.053,0.048,1.21846967915e-07,0.0,0.0,0.0,1.21846967915e-07,0.0,0.0,0.0,1.21846967915e-07,1.7848103,0.2157463,8.8455983,9e-08,0.0,0.0,0.0,9e-08,0.0,0.0,0.0,9e-08
1532134975832604624,14815,1532134975832117776,base_link,0.0,0.0,0.0,0.0,-1.0,0.0,0.0,0.0,0.0,0.0,0.0,0.0,0.0,0.026,0.008,0.055,1.21846967915e-07,0.0,0.0,0.0,1.21846967915e-07,0.0,0.0,0.0,1.21846967915e-07,2.2359162,0.0784532,9.71839015,9e-08,0.0,0.0,0.0,9e-08,0.0,0.0,0.0,9e-08
1532134975918875600,14816,1532134975918209168,base_link,0.0,0.0,0.0,0.0,-1.0,0.0,0.0,0.0,0.0,0.0,0.0,0.0,0.0,0.012,-0.007,0.09,1.21846967915e-07,0.0,0.0,0.0,1.21846967915e-07,0.0,0.0,0.0,1.21846967915e-07,2.28494945,0.0196133,9.9831697,9e-08,0.0,0.0,0.0,9e-08,0.0,0.0,0.0,9e-08
1532134976016604656,14817,1532134976015881040,base_link,0.0,0.0,0.0,0.0,-1.0,0.0,0.0,0.0,0.0,0.0,0.0,0.0,0.0,0.084,-0.017,0.121,1.21846967915e-07,0.0,0.0,0.0,1.21846967915e-07,0.0,0.0,0.0,1.21846967915e-07,2.10842975,0.28439285,10.395049,9e-08,0.0,0.0,0.0,9e-08,0.0,0.0,0.0,9e-08
1532134976118661712,14818,1532134976117574960,base_link,0.0,0.0,0.0,0.0,-1.0,0.0,0.0,0.0,0.0,0.0,0.0,0.0,0.0,0.171,0.003,0.108,1.21846967915e-07,0.0,0.0,0.0,1.21846967915e-07,0.0,0.0,0.0,1.21846967915e-07,1.87307015,0.4118793,9.24767095,9e-08,0.0,0.0,0.0,9e-08,0.0,0.0,0.0,9e-08
1532134976224001104,14819,1532134976223488112,base_link,0.0,0.0,0.0,0.0,-1.0,0.0,0.0,0.0,0.0,0.0,0.0,0.0,0.0,0.193,1.31037207509e-17,0.107,1.21846967915e-07,0.0,0.0,0.0,1.21846967915e-07,0.0,0.0,0.0,1.21846967915e-07,2.06920315,0.1372931,8.6690786,9e-08,0.0,0.0,0.0,9e-08,0.0,0.0,0.0,9e-08
1532134976318706192,14820,1532134976312856304,base_link,0.0,0.0,0.0,0.0,-1.0,0.0,0.0,0.0,0.0,0.0,0.0,0.0,0.0,0.223,0.004,0.11,1.21846967915e-07,0.0,0.0,0.0,1.21846967915e-07,0.0,0.0,0.0,1.21846967915e-07,1.65732385,0.2941995,8.67888525,9e-08,0.0,0.0,0.0,9e-08,0.0,0.0,0.0,9e-08
1532134976440184912,14821,1532134976439128848,base_link,0.0,0.0,0.0,0.0,-1.0,0.0,0.0,0.0,0.0,0.0,0.0,0.0,0.0,0.222,-0.011,0.112,1.21846967915e-07,0.0,0.0,0.0,1.21846967915e-07,0.0,0.0,0.0,1.21846967915e-07,2.02997655,0.16671305,9.12999115,9e-08,0.0,0.0,0.0,9e-08,0.0,0.0,0.0,9e-08
1532134976516323664,14822,1532134976509403440,base_link,0.0,0.0,0.0,0.0,-1.0,0.0,0.0,0.0,0.0,0.0,0.0,0.0,0.0,0.186,-0.005,0.108,1.21846967915e-07,0.0,0.0,0.0,1.21846967915e-07,0.0,0.0,0.0,1.21846967915e-07,2.06920315,0.3334261,9.0613446,9e-08,0.0,0.0,0.0,9e-08,0.0,0.0,0.0,9e-08
1532134976667579184,14823,1532134976666700688,base_link,0.0,0.0,0.0,0.0,-1.0,0.0,0.0,0.0,0.0,0.0,0.0,0.0,0.0,0.132,-0.008,0.072,1.21846967915e-07,0.0,0.0,0.0,1.21846967915e-07,0.0,0.0,0.0,1.21846967915e-07,2.14765635,0.28439285,9.42419065,9e-08,0.0,0.0,0.0,9e-08,0.0,0.0,0.0,9e-08
1532134976725246768,14824,1532134976723447728,base_link,0.0,0.0,0.0,0.0,-1.0,0.0,0.0,0.0,0.0,0.0,0.0,0.0,0.0,0.128,0.009,0.063,1.21846967915e-07,0.0,0.0,0.0,1.21846967915e-07,0.0,0.0,0.0,1.21846967915e-07,2.0397832,0.5295591,9.022118,9e-08,0.0,0.0,0.0,9e-08,0.0,0.0,0.0,9e-08
1532134976816741328,14825,1532134976810068400,base_link,0.0,0.0,0.0,0.0,-1.0,0.0,0.0,0.0,0.0,0.0,0.0,0.0,0.0,0.179,0.009,0.045,1.21846967915e-07,0.0,0.0,0.0,1.21846967915e-07,0.0,0.0,0.0,1.21846967915e-07,2.0005566,0.57859235,8.9632781,9e-08,0.0,0.0,0.0,9e-08,0.0,0.0,0.0,9e-08
1532134976924215472,14826,1532134976922902576,base_link,0.0,0.0,0.0,0.0,-1.0,0.0,0.0,0.0,0.0,0.0,0.0,0.0,0.0,0.209,-0.008,-0.016,1.21846967915e-07,0.0,0.0,0.0,1.21846967915e-07,0.0,0.0,0.0,1.21846967915e-07,1.8436502,0.24516625,8.9828914,9e-08,0.0,0.0,0.0,9e-08,0.0,0.0,0.0,9e-08
1532134977021994608,14827,1532134977021520880,base_link,0.0,0.0,0.0,0.0,-1.0,0.0,0.0,0.0,0.0,0.0,0.0,0.0,0.0,0.319,0.004,-0.029,1.21846967915e-07,0.0,0.0,0.0,1.21846967915e-07,0.0,0.0,0.0,1.21846967915e-07,1.7063571,0.3530394,8.7475318,9e-08,0.0,0.0,0.0,9e-08,0.0,0.0,0.0,9e-08
1532134977111156752,14828,1532134977103793008,base_link,0.0,0.0,0.0,0.0,-1.0,0.0,0.0,0.0,0.0,0.0,0.0,0.0,0.0,0.257,-0.019,-0.011,1.21846967915e-07,0.0,0.0,0.0,1.21846967915e-07,0.0,0.0,0.0,1.21846967915e-07,1.75539035,0.26477955,9.8458766,9e-08,0.0,0.0,0.0,9e-08,0.0,0.0,0.0,9e-08
1532134977258105200,14829,1532134977257130192,base_link,0.0,0.0,0.0,0.0,-1.0,0.0,0.0,0.0,0.0,0.0,0.0,0.0,0.0,0.221,-0.04,0.048,1.21846967915e-07,0.0,0.0,0.0,1.21846967915e-07,0.0,0.0,0.0,1.21846967915e-07,1.765197,0.48052585,10.1204628,9e-08,0.0,0.0,0.0,9e-08,0.0,0.0,0.0,9e-08
1532134977325800656,14830,1532134977324376848,base_link,0.0,0.0,0.0,0.0,-1.0,0.0,0.0,0.0,0.0,0.0,0.0,0.0,0.0,0.184,-0.056,0.057,1.21846967915e-07,0.0,0.0,0.0,1.21846967915e-07,0.0,0.0,0.0,1.21846967915e-07,2.01036325,0.3530394,10.1400761,9e-08,0.0,0.0,0.0,9e-08,0.0,0.0,0.0,9e-08
1532134977440749744,14831,1532134977439952400,base_link,0.0,0.0,0.0,0.0,-1.0,0.0,0.0,0.0,0.0,0.0,0.0,0.0,0.0,-0.015,-0.072,0.048,1.21846967915e-07,0.0,0.0,0.0,1.21846967915e-07,0.0,0.0,0.0,1.21846967915e-07,2.04958985,0.9414384,10.65982855,9e-08,0.0,0.0,0.0,9e-08,0.0,0.0,0.0,9e-08
1532134977520172464,14832,1532134977519634896,base_link,0.0,0.0,0.0,0.0,-1.0,0.0,0.0,0.0,0.0,0.0,0.0,0.0,0.0,0.048,-0.165,0.002,1.21846967915e-07,0.0,0.0,0.0,1.21846967915e-07,0.0,0.0,0.0,1.21846967915e-07,2.549729,0.8629852,13.6116302,9e-08,0.0,0.0,0.0,9e-08,0.0,0.0,0.0,9e-08
1532134977626479120,14833,1532134977626035152,base_link,0.0,0.0,0.0,0.0,-1.0,0.0,0.0,0.0,0.0,0.0,0.0,0.0,0.0,0.128,-0.116,-0.055,1.21846967915e-07,0.0,0.0,0.0,1.21846967915e-07,0.0,0.0,0.0,1.21846967915e-07,2.2751428,0.196133,12.7682583,9e-08,0.0,0.0,0.0,9e-08,0.0,0.0,0.0,9e-08
1532134977723611152,14834,1532134977722851120,base_link,0.0,0.0,0.0,0.0,-1.0,0.0,0.0,0.0,0.0,0.0,0.0,0.0,0.0,0.258,-0.054,-0.029,1.21846967915e-07,0.0,0.0,0.0,1.21846967915e-07,0.0,0.0,0.0,1.21846967915e-07,1.85345685,0.69627215,11.2580342,9e-08,0.0,0.0,0.0,9e-08,0.0,0.0,0.0,9e-08
1532134977829171568,14835,1532134977826119984,base_link,0.0,0.0,0.0,0.0,-1.0,0.0,0.0,0.0,0.0,0.0,0.0,0.0,0.0,0.173,-0.042,-0.005,1.21846967915e-07,0.0,0.0,0.0,1.21846967915e-07,0.0,0.0,0.0,1.21846967915e-07,1.6867438,0.48052585,10.4146623,9e-08,0.0,0.0,0.0,9e-08,0.0,0.0,0.0,9e-08
1532134977924190672,14836,1532134977918439728,base_link,0.0,0.0,0.0,0.0,-1.0,0.0,0.0,0.0,0.0,0.0,0.0,0.0,0.0,0.123,0.003,-0.018,1.21846967915e-07,0.0,0.0,0.0,1.21846967915e-07,0.0,0.0,0.0,1.21846967915e-07,1.3925443,1.1179581,9.44380395,9e-08,0.0,0.0,0.0,9e-08,0.0,0.0,0.0,9e-08
1532134978027941104,14837,1532134978026020176,base_link,0.0,0.0,0.0,0.0,-1.0,0.0,0.0,0.0,0.0,0.0,0.0,0.0,0.0,0.105,0.061,-0.128,1.21846967915e-07,0.0,0.0,0.0,1.21846967915e-07,0.0,0.0,0.0,1.21846967915e-07,1.5886773,1.0983448,8.7867584,9e-08,0.0,0.0,0.0,9e-08,0.0,0.0,0.0,9e-08
1532134978122860688,14838,1532134978113698448,base_link,0.0,0.0,0.0,0.0,-1.0,0.0,0.0,0.0,0.0,0.0,0.0,0.0,0.0,-0.032,0.063,-0.224,1.21846967915e-07,0.0,0.0,0.0,1.21846967915e-07,0.0,0.0,0.0,1.21846967915e-07,1.30428445,1.32389775,9.80665,9e-08,0.0,0.0,0.0,9e-08,0.0,0.0,0.0,9e-08
1532134978258804368,14839,1532134978257544080,base_link,0.0,0.0,0.0,0.0,-1.0,0.0,0.0,0.0,0.0,0.0,0.0,0.0,0.0,0.041,0.091,-0.345,1.21846967915e-07,0.0,0.0,0.0,1.21846967915e-07,0.0,0.0,0.0,1.21846967915e-07,1.5298374,1.1375714,9.87529655,9e-08,0.0,0.0,0.0,9e-08,0.0,0.0,0.0,9e-08
1532134978311831696,14840,1532134978311033392,base_link,0.0,0.0,0.0,0.0,-1.0,0.0,0.0,0.0,0.0,0.0,0.0,0.0,0.0,0.105,0.105,-0.375,1.21846967915e-07,0.0,0.0,0.0,1.21846967915e-07,0.0,0.0,0.0,1.21846967915e-07,1.5494507,0.87279185,8.9828914,9e-08,0.0,0.0,0.0,9e-08,0.0,0.0,0.0,9e-08
1532134978428088464,14841,1532134978426128208,base_link,0.0,0.0,0.0,0.0,-1.0,0.0,0.0,0.0,0.0,0.0,0.0,0.0,0.0,0.058,0.054,-0.38,1.21846967915e-07,0.0,0.0,0.0,1.21846967915e-07,0.0,0.0,0.0,1.21846967915e-07,1.4121576,0.67665885,9.3555441,9e-08,0.0,0.0,0.0,9e-08,0.0,0.0,0.0,9e-08
1532134978517296816,14842,1532134978516576432,base_link,0.0,0.0,0.0,0.0,-1.0,0.0,0.0,0.0,0.0,0.0,0.0,0.0,0.0,-0.108,0.01,-0.311,1.21846967915e-07,0.0,0.0,0.0,1.21846967915e-07,0.0,0.0,0.0,1.21846967915e-07,1.5494507,0.55897905,9.7870367,9e-08,0.0,0.0,0.0,9e-08,0.0,0.0,0.0,9e-08
1532134978609388176,14843,1532134978608565488,base_link,0.0,0.0,0.0,0.0,-1.0,0.0,0.0,0.0,0.0,0.0,0.0,0.0,0.0,0.0,-0.032,-0.255,1.21846967915e-07,0.0,0.0,0.0,1.21846967915e-07,0.0,0.0,0.0,1.21846967915e-07,1.5298374,0.48052585,10.3754357,9e-08,0.0,0.0,0.0,9e-08,0.0,0.0,0.0,9e-08
1532134978726553584,14844,1532134978725288272,base_link,0.0,0.0,0.0,0.0,-1.0,0.0,0.0,0.0,0.0,0.0,0.0,0.0,0.0,0.072,-0.033,-0.191,1.21846967915e-07,0.0,0.0,0.0,1.21846967915e-07,0.0,0.0,0.0,1.21846967915e-07,1.36312435,0.36284605,10.1204628,9e-08,0.0,0.0,0.0,9e-08,0.0,0.0,0.0,9e-08
1532134978853968976,14845,1532134978853297872,base_link,0.0,0.0,0.0,0.0,-1.0,0.0,0.0,0.0,0.0,0.0,0.0,0.0,0.0,-0.009,-0.012,-0.124,1.21846967915e-07,0.0,0.0,0.0,1.21846967915e-07,0.0,0.0,0.0,1.21846967915e-07,1.14737805,0.6864655,9.2770909,9e-08,0.0,0.0,0.0,9e-08,0.0,0.0,0.0,9e-08
1532134978941342736,14846,1532134978940210096,base_link,0.0,0.0,0.0,0.0,-1.0,0.0,0.0,0.0,0.0,0.0,0.0,0.0,0.0,-0.086,-0.036,-0.157,1.21846967915e-07,0.0,0.0,0.0,1.21846967915e-07,0.0,0.0,0.0,1.21846967915e-07,1.32389775,0.4314926,9.610517,9e-08,0.0,0.0,0.0,9e-08,0.0,0.0,0.0,9e-08
1532134979017359856,14847,1532134979016650512,base_link,0.0,0.0,0.0,0.0,-1.0,0.0,0.0,0.0,0.0,0.0,0.0,0.0,0.0,-0.098,-0.013,-0.143,1.21846967915e-07,0.0,0.0,0.0,1.21846967915e-07,0.0,0.0,0.0,1.21846967915e-07,1.1179581,0.6276256,8.75733845,9e-08,0.0,0.0,0.0,9e-08,0.0,0.0,0.0,9e-08
1532134979121004496,14848,1532134979114933136,base_link,0.0,0.0,0.0,0.0,-1.0,0.0,0.0,0.0,0.0,0.0,0.0,0.0,0.0,-0.124,0.006,-0.156,1.21846967915e-07,0.0,0.0,0.0,1.21846967915e-07,0.0,0.0,0.0,1.21846967915e-07,1.1179581,0.71588545,8.46313895,9e-08,0.0,0.0,0.0,9e-08,0.0,0.0,0.0,9e-08
1532134979239062224,14849,1532134979238464464,base_link,0.0,0.0,0.0,0.0,-1.0,0.0,0.0,0.0,0.0,0.0,0.0,0.0,0.0,-0.363,-0.038,-0.144,1.21846967915e-07,0.0,0.0,0.0,1.21846967915e-07,0.0,0.0,0.0,1.21846967915e-07,1.18660465,0.5687857,10.13026945,9e-08,0.0,0.0,0.0,9e-08,0.0,0.0,0.0,9e-08
1532134979327018096,14850,1532134979315865040,base_link,0.0,0.0,0.0,0.0,-1.0,0.0,0.0,0.0,0.0,0.0,0.0,0.0,0.0,-0.271,-0.055,-0.142,1.21846967915e-07,0.0,0.0,0.0,1.21846967915e-07,0.0,0.0,0.0,1.21846967915e-07,1.40235095,0.34323275,10.8853815,9e-08,0.0,0.0,0.0,9e-08,0.0,0.0,0.0,9e-08
1532134979415035792,14851,1532134979414495280,base_link,0.0,0.0,0.0,0.0,-1.0,0.0,0.0,0.0,0.0,0.0,0.0,0.0,0.0,-0.216,-0.067,-0.132,1.21846967915e-07,0.0,0.0,0.0,1.21846967915e-07,0.0,0.0,0.0,1.21846967915e-07,1.372931,0.4118793,11.1403544,9e-08,0.0,0.0,0.0,9e-08,0.0,0.0,0.0,9e-08
1532134979520550288,14852,1532134979518770256,base_link,0.0,0.0,0.0,0.0,-1.0,0.0,0.0,0.0,0.0,0.0,0.0,0.0,0.0,-0.229,-0.079,-0.113,1.21846967915e-07,0.0,0.0,0.0,1.21846967915e-07,0.0,0.0,0.0,1.21846967915e-07,1.61809725,0.3530394,11.24822755,9e-08,0.0,0.0,0.0,9e-08,0.0,0.0,0.0,9e-08
1532134979614572880,14853,1532134979607597520,base_link,0.0,0.0,0.0,0.0,-1.0,0.0,0.0,0.0,0.0,0.0,0.0,0.0,0.0,-0.238,-0.077,-0.071,1.21846967915e-07,0.0,0.0,0.0,1.21846967915e-07,0.0,0.0,0.0,1.21846967915e-07,1.372931,0.40207265,11.1599677,9e-08,0.0,0.0,0.0,9e-08,0.0,0.0,0.0,9e-08
1532134979753443088,14854,1532134979752890672,base_link,0.0,0.0,0.0,0.0,-1.0,0.0,0.0,0.0,0.0,0.0,0.0,0.0,0.0,-0.213,-0.085,-0.059,1.21846967915e-07,0.0,0.0,0.0,1.21846967915e-07,0.0,0.0,0.0,1.21846967915e-07,1.3337044,0.3138128,11.13054775,9e-08,0.0,0.0,0.0,9e-08,0.0,0.0,0.0,9e-08
1532134979819623216,14855,1532134979818952432,base_link,0.0,0.0,0.0,0.0,-1.0,0.0,0.0,0.0,0.0,0.0,0.0,0.0,0.0,-0.224,-0.089,-0.059,1.21846967915e-07,0.0,0.0,0.0,1.21846967915e-07,0.0,0.0,0.0,1.21846967915e-07,1.28467115,0.32361945,11.1991943,9e-08,0.0,0.0,0.0,9e-08,0.0,0.0,0.0,9e-08
1532134979906282480,14856,1532134979904702576,base_link,0.0,0.0,0.0,0.0,-1.0,0.0,0.0,0.0,0.0,0.0,0.0,0.0,0.0,-0.174,-0.098,-0.043,1.21846967915e-07,0.0,0.0,0.0,1.21846967915e-07,0.0,0.0,0.0,1.21846967915e-07,1.2552512,0.2157463,11.32668075,9e-08,0.0,0.0,0.0,9e-08,0.0,0.0,0.0,9e-08
1532134980017141616,14857,1532134980016589936,base_link,0.0,0.0,0.0,0.0,-1.0,0.0,0.0,0.0,0.0,0.0,0.0,0.0,0.0,-0.106,-0.099,-0.019,1.21846967915e-07,0.0,0.0,0.0,1.21846967915e-07,0.0,0.0,0.0,1.21846967915e-07,1.1571847,0.26477955,11.24822755,9e-08,0.0,0.0,0.0,9e-08,0.0,0.0,0.0,9e-08
1532134980122134864,14858,1532134980121236304,base_link,0.0,0.0,0.0,0.0,-1.0,0.0,0.0,0.0,0.0,0.0,0.0,0.0,0.0,-0.097,-0.064,0.039,1.21846967915e-07,0.0,0.0,0.0,1.21846967915e-07,0.0,0.0,0.0,1.21846967915e-07,1.0395049,0.20593965,10.4735022,9e-08,0.0,0.0,0.0,9e-08,0.0,0.0,0.0,9e-08
1532134980258653104,14859,1532134980257986672,base_link,0.0,0.0,0.0,0.0,-1.0,0.0,0.0,0.0,0.0,0.0,0.0,0.0,0.0,-0.086,-0.043,0.059,1.21846967915e-07,0.0,0.0,0.0,1.21846967915e-07,0.0,0.0,0.0,1.21846967915e-07,1.0787315,0.18632635,10.30678915,9e-08,0.0,0.0,0.0,9e-08,0.0,0.0,0.0,9e-08
1532134980338880048,14860,1532134980334984336,base_link,0.0,0.0,0.0,0.0,-1.0,0.0,0.0,0.0,0.0,0.0,0.0,0.0,0.0,-0.091,-0.038,0.069,1.21846967915e-07,0.0,0.0,0.0,1.21846967915e-07,0.0,0.0,0.0,1.21846967915e-07,1.0983448,0.26477955,10.40485565,9e-08,0.0,0.0,0.0,9e-08,0.0,0.0,0.0,9e-08
1532134980429349808,14861,1532134980428768144,base_link,0.0,0.0,0.0,0.0,-1.0,0.0,0.0,0.0,0.0,0.0,0.0,0.0,0.0,-0.111,-0.027,0.08,1.21846967915e-07,0.0,0.0,0.0,1.21846967915e-07,0.0,0.0,0.0,1.21846967915e-07,1.10815145,0.196133,10.3165958,9e-08,0.0,0.0,0.0,9e-08,0.0,0.0,0.0,9e-08
1532134980530980560,14862,1532134980528523664,base_link,0.0,0.0,0.0,0.0,-1.0,0.0,0.0,0.0,0.0,0.0,0.0,0.0,0.0,-0.157,-0.002,0.083,1.21846967915e-07,0.0,0.0,0.0,1.21846967915e-07,0.0,0.0,0.0,1.21846967915e-07,1.04931155,0.26477955,10.0223963,9e-08,0.0,0.0,0.0,9e-08,0.0,0.0,0.0,9e-08
1532134980630763984,14863,1532134980629859792,base_link,0.0,0.0,0.0,0.0,-1.0,0.0,0.0,0.0,0.0,0.0,0.0,0.0,0.0,-0.211,0.028,0.073,1.21846967915e-07,0.0,0.0,0.0,1.21846967915e-07,0.0,0.0,0.0,1.21846967915e-07,1.0591182,0.2941995,9.42419065,9e-08,0.0,0.0,0.0,9e-08,0.0,0.0,0.0,9e-08
1532134980752549616,14864,1532134980751975952,base_link,0.0,0.0,0.0,0.0,-1.0,0.0,0.0,0.0,0.0,0.0,0.0,0.0,0.0,-0.174,0.057,0.05,1.21846967915e-07,0.0,0.0,0.0,1.21846967915e-07,0.0,0.0,0.0,1.21846967915e-07,1.14737805,0.30400615,9.32612415,9e-08,0.0,0.0,0.0,9e-08,0.0,0.0,0.0,9e-08
1532134980841229520,14865,1532134980838231760,base_link,0.0,0.0,0.0,0.0,-1.0,0.0,0.0,0.0,0.0,0.0,0.0,0.0,0.0,-0.1,0.062,0.045,1.21846967915e-07,0.0,0.0,0.0,1.21846967915e-07,0.0,0.0,0.0,1.21846967915e-07,1.0002783,0.42168595,9.14960445,9e-08,0.0,0.0,0.0,9e-08,0.0,0.0,0.0,9e-08
1532134980908393136,14866,1532134980908045136,base_link,0.0,0.0,0.0,0.0,-1.0,0.0,0.0,0.0,0.0,0.0,0.0,0.0,0.0,-0.041,0.091,0.036,1.21846967915e-07,0.0,0.0,0.0,1.21846967915e-07,0.0,0.0,0.0,1.21846967915e-07,1.0591182,0.1176798,8.48275225,9e-08,0.0,0.0,0.0,9e-08,0.0,0.0,0.0,9e-08
1532134981023183920,14867,1532134981021131600,base_link,0.0,0.0,0.0,0.0,-1.0,0.0,0.0,0.0,0.0,0.0,0.0,0.0,0.0,0.031,0.088,0.035,1.21846967915e-07,0.0,0.0,0.0,1.21846967915e-07,0.0,0.0,0.0,1.21846967915e-07,1.01008495,0.1765197,8.07087295,9e-08,0.0,0.0,0.0,9e-08,0.0,0.0,0.0,9e-08
1532134981106408528,14868,1532134981105845584,base_link,0.0,0.0,0.0,0.0,-1.0,0.0,0.0,0.0,0.0,0.0,0.0,0.0,0.0,-0.018,0.069,0.045,1.21846967915e-07,0.0,0.0,0.0,1.21846967915e-07,0.0,0.0,0.0,1.21846967915e-07,1.08853815,0.34323275,8.6886919,9e-08,0.0,0.0,0.0,9e-08,0.0,0.0,0.0,9e-08
1532134981211997680,14869,1532134981211605744,base_link,0.0,0.0,0.0,0.0,-1.0,0.0,0.0,0.0,0.0,0.0,0.0,0.0,0.0,-0.001,0.085,0.06,1.21846967915e-07,0.0,0.0,0.0,1.21846967915e-07,0.0,0.0,0.0,1.21846967915e-07,1.06892485,0.2157463,8.16893945,9e-08,0.0,0.0,0.0,9e-08,0.0,0.0,0.0,9e-08
1532134981325452048,14870,1532134981321220464,base_link,0.0,0.0,0.0,0.0,-1.0,0.0,0.0,0.0,0.0,0.0,0.0,0.0,0.0,0.027,0.092,0.067,1.21846967915e-07,0.0,0.0,0.0,1.21846967915e-07,0.0,0.0,0.0,1.21846967915e-07,1.01008495,0.3334261,8.28661925,9e-08,0.0,0.0,0.0,9e-08,0.0,0.0,0.0,9e-08
1532134981392985936,14871,1532134981392322768,base_link,0.0,0.0,0.0,0.0,-1.0,0.0,0.0,0.0,0.0,0.0,0.0,0.0,0.0,0.018,0.098,0.06,1.21846967915e-07,0.0,0.0,0.0,1.21846967915e-07,0.0,0.0,0.0,1.21846967915e-07,1.1571847,0.14709975,7.9433865,9e-08,0.0,0.0,0.0,9e-08,0.0,0.0,0.0,9e-08
1532134981514117520,14872,1532134981513456656,base_link,0.0,0.0,0.0,0.0,-1.0,0.0,0.0,0.0,0.0,0.0,0.0,0.0,0.0,0.044,0.085,0.056,1.21846967915e-07,0.0,0.0,0.0,1.21846967915e-07,0.0,0.0,0.0,1.21846967915e-07,1.2356379,0.2549729,8.22777935,9e-08,0.0,0.0,0.0,9e-08,0.0,0.0,0.0,9e-08
1532134981603086000,14873,1532134981602429712,base_link,0.0,0.0,0.0,0.0,-1.0,0.0,0.0,0.0,0.0,0.0,0.0,0.0,0.0,0.063,0.073,0.059,1.21846967915e-07,0.0,0.0,0.0,1.21846967915e-07,0.0,0.0,0.0,1.21846967915e-07,1.2552512,0.30400615,8.5317855,9e-08,0.0,0.0,0.0,9e-08,0.0,0.0,0.0,9e-08
1532134981712533680,14874,1532134981711906832,base_link,0.0,0.0,0.0,0.0,-1.0,0.0,0.0,0.0,0.0,0.0,0.0,0.0,0.0,0.094,0.072,0.073,1.21846967915e-07,0.0,0.0,0.0,1.21846967915e-07,0.0,0.0,0.0,1.21846967915e-07,1.1571847,0.2941995,8.5906254,9e-08,0.0,0.0,0.0,9e-08,0.0,0.0,0.0,9e-08
1532134981842753296,14875,1532134981840240176,base_link,0.0,0.0,0.0,0.0,-1.0,0.0,0.0,0.0,0.0,0.0,0.0,0.0,0.0,0.105,0.072,0.084,1.21846967915e-07,0.0,0.0,0.0,1.21846967915e-07,0.0,0.0,0.0,1.21846967915e-07,1.176798,0.2353596,8.52197885,9e-08,0.0,0.0,0.0,9e-08,0.0,0.0,0.0,9e-08
1532134981913319344,14876,1532134981910212368,base_link,0.0,0.0,0.0,0.0,-1.0,0.0,0.0,0.0,0.0,0.0,0.0,0.0,0.0,0.11,0.052,0.094,1.21846967915e-07,0.0,0.0,0.0,1.21846967915e-07,0.0,0.0,0.0,1.21846967915e-07,1.3140911,0.34323275,9.24767095,9e-08,0.0,0.0,0.0,9e-08,0.0,0.0,0.0,9e-08
1532134982024746160,14877,1532134982022619760,base_link,0.0,0.0,0.0,0.0,-1.0,0.0,0.0,0.0,0.0,0.0,0.0,0.0,0.0,0.026,0.05,0.111,1.21846967915e-07,0.0,0.0,0.0,1.21846967915e-07,0.0,0.0,0.0,1.21846967915e-07,1.1571847,0.4314926,9.30651085,9e-08,0.0,0.0,0.0,9e-08,0.0,0.0,0.0,9e-08
1532134982119739472,14878,1532134982115509296,base_link,0.0,0.0,0.0,0.0,-1.0,0.0,0.0,0.0,0.0,0.0,0.0,0.0,0.0,0.095,0.049,0.113,1.21846967915e-07,0.0,0.0,0.0,1.21846967915e-07,0.0,0.0,0.0,1.21846967915e-07,1.2944778,0.44129925,9.26728425,9e-08,0.0,0.0,0.0,9e-08,0.0,0.0,0.0,9e-08
1532134982231277072,14879,1532134982225869008,base_link,0.0,0.0,0.0,0.0,-1.0,0.0,0.0,0.0,0.0,0.0,0.0,0.0,0.0,0.115,0.071,0.084,1.21846967915e-07,0.0,0.0,0.0,1.21846967915e-07,0.0,0.0,0.0,1.21846967915e-07,1.12776475,0.48052585,8.6494653,9e-08,0.0,0.0,0.0,9e-08,0.0,0.0,0.0,9e-08
1532134982354770000,14880,1532134982353677328,base_link,0.0,0.0,0.0,0.0,-1.0,0.0,0.0,0.0,0.0,0.0,0.0,0.0,0.0,0.118,0.041,0.028,1.21846967915e-07,0.0,0.0,0.0,1.21846967915e-07,0.0,0.0,0.0,1.21846967915e-07,1.2552512,0.3530394,9.62032365,9e-08,0.0,0.0,0.0,9e-08,0.0,0.0,0.0,9e-08
1532134982413882224,14881,1532134982413207408,base_link,0.0,0.0,0.0,0.0,-1.0,0.0,0.0,0.0,0.0,0.0,0.0,0.0,0.0,0.125,0.025,0.03,1.21846967915e-07,0.0,0.0,0.0,1.21846967915e-07,0.0,0.0,0.0,1.21846967915e-07,1.2552512,0.48052585,9.71839015,9e-08,0.0,0.0,0.0,9e-08,0.0,0.0,0.0,9e-08
1532134982512942480,14882,1532134982511751888,base_link,0.0,0.0,0.0,0.0,-1.0,0.0,0.0,0.0,0.0,0.0,0.0,0.0,0.0,0.096,0.041,0.037,1.21846967915e-07,0.0,0.0,0.0,1.21846967915e-07,0.0,0.0,0.0,1.21846967915e-07,1.22583125,0.5099458,9.6301303,9e-08,0.0,0.0,0.0,9e-08,0.0,0.0,0.0,9e-08
1532134982625685744,14883,1532134982625061200,base_link,0.0,0.0,0.0,0.0,-1.0,0.0,0.0,0.0,0.0,0.0,0.0,0.0,0.0,0.061,0.044,0.023,1.21846967915e-07,0.0,0.0,0.0,1.21846967915e-07,0.0,0.0,0.0,1.21846967915e-07,1.08853815,0.3334261,9.07115125,9e-08,0.0,0.0,0.0,9e-08,0.0,0.0,0.0,9e-08
1532134982733293744,14884,1532134982726958672,base_link,0.0,0.0,0.0,0.0,-1.0,0.0,0.0,0.0,0.0,0.0,0.0,0.0,0.0,0.006,0.045,0.021,1.21846967915e-07,0.0,0.0,0.0,1.21846967915e-07,0.0,0.0,0.0,1.21846967915e-07,1.0395049,0.3334261,8.73772515,9e-08,0.0,0.0,0.0,9e-08,0.0,0.0,0.0,9e-08
1532134982848969232,14885,1532134982848314832,base_link,0.0,0.0,0.0,0.0,-1.0,0.0,0.0,0.0,0.0,0.0,0.0,0.0,0.0,0.061,0.079,-0.008,1.21846967915e-07,0.0,0.0,0.0,1.21846967915e-07,0.0,0.0,0.0,1.21846967915e-07,0.79433865,0.392266,8.0610663,9e-08,0.0,0.0,0.0,9e-08,0.0,0.0,0.0,9e-08
1532134982923511952,14886,1532134982918088048,base_link,0.0,0.0,0.0,0.0,-1.0,0.0,0.0,0.0,0.0,0.0,0.0,0.0,0.0,0.145,0.052,-0.037,1.21846967915e-07,0.0,0.0,0.0,1.21846967915e-07,0.0,0.0,0.0,1.21846967915e-07,0.8237586,0.6080123,8.4533323,9e-08,0.0,0.0,0.0,9e-08,0.0,0.0,0.0,9e-08
1532134983029140368,14887,1532134983027383856,base_link,0.0,0.0,0.0,0.0,-1.0,0.0,0.0,0.0,0.0,0.0,0.0,0.0,0.0,0.151,0.05,-0.068,1.21846967915e-07,0.0,0.0,0.0,1.21846967915e-07,0.0,0.0,0.0,1.21846967915e-07,0.69627215,0.4314926,8.1395195,9e-08,0.0,0.0,0.0,9e-08,0.0,0.0,0.0,9e-08
1532134983144623056,14888,1532134983144055696,base_link,0.0,0.0,0.0,0.0,-1.0,0.0,0.0,0.0,0.0,0.0,0.0,0.0,0.0,0.166,0.026,-0.094,1.21846967915e-07,0.0,0.0,0.0,1.21846967915e-07,0.0,0.0,0.0,1.21846967915e-07,0.7060788,0.34323275,8.3552658,9e-08,0.0,0.0,0.0,9e-08,0.0,0.0,0.0,9e-08
1532134983213258672,14889,1532134983212862480,base_link,0.0,0.0,0.0,0.0,-1.0,0.0,0.0,0.0,0.0,0.0,0.0,0.0,0.0,0.239,0.02,-0.084,1.21846967915e-07,0.0,0.0,0.0,1.21846967915e-07,0.0,0.0,0.0,1.21846967915e-07,0.8629852,0.34323275,8.60043205,9e-08,0.0,0.0,0.0,9e-08,0.0,0.0,0.0,9e-08
1532134983315449200,14890,1532134983313008496,base_link,0.0,0.0,0.0,0.0,-1.0,0.0,0.0,0.0,0.0,0.0,0.0,0.0,0.0,0.204,-0.004,-0.055,1.21846967915e-07,0.0,0.0,0.0,1.21846967915e-07,0.0,0.0,0.0,1.21846967915e-07,0.87279185,0.3726527,9.26728425,9e-08,0.0,0.0,0.0,9e-08,0.0,0.0,0.0,9e-08
1532134983442198800,14891,1532134983441719024,base_link,0.0,0.0,0.0,0.0,-1.0,0.0,0.0,0.0,0.0,0.0,0.0,0.0,0.0,0.021,-0.014,-0.062,1.21846967915e-07,0.0,0.0,0.0,1.21846967915e-07,0.0,0.0,0.0,1.21846967915e-07,1.0787315,0.53936575,10.002783,9e-08,0.0,0.0,0.0,9e-08,0.0,0.0,0.0,9e-08
1532134983513034640,14892,1532134983512546032,base_link,0.0,0.0,0.0,0.0,-1.0,0.0,0.0,0.0,0.0,0.0,0.0,0.0,0.0,0.025,-0.023,-0.072,1.21846967915e-07,0.0,0.0,0.0,1.21846967915e-07,0.0,0.0,0.0,1.21846967915e-07,1.1571847,0.40207265,10.11065615,9e-08,0.0,0.0,0.0,9e-08,0.0,0.0,0.0,9e-08
1532134983607718768,14893,1532134983606366256,base_link,0.0,0.0,0.0,0.0,-1.0,0.0,0.0,0.0,0.0,0.0,0.0,0.0,0.0,0.245,-0.043,-0.099,1.21846967915e-07,0.0,0.0,0.0,1.21846967915e-07,0.0,0.0,0.0,1.21846967915e-07,1.22583125,0.1176798,10.4735022,9e-08,0.0,0.0,0.0,9e-08,0.0,0.0,0.0,9e-08
1532134983756297168,14894,1532134983755693104,base_link,0.0,0.0,0.0,0.0,-1.0,0.0,0.0,0.0,0.0,0.0,0.0,0.0,0.0,0.0,-0.038,-0.032,1.21846967915e-07,0.0,0.0,0.0,1.21846967915e-07,0.0,0.0,0.0,1.21846967915e-07,1.10815145,0.28439285,10.40485565,9e-08,0.0,0.0,0.0,9e-08,0.0,0.0,0.0,9e-08
1532134983797240016,14895,1532134983796836752,base_link,0.0,0.0,0.0,0.0,-1.0,0.0,0.0,0.0,0.0,0.0,0.0,0.0,0.0,-0.073,-0.045,-0.004,1.21846967915e-07,0.0,0.0,0.0,1.21846967915e-07,0.0,0.0,0.0,1.21846967915e-07,0.9610517,0.3530394,10.09104285,9e-08,0.0,0.0,0.0,9e-08,0.0,0.0,0.0,9e-08
1532134983907588496,14896,1532134983906973776,base_link,0.0,0.0,0.0,0.0,-1.0,0.0,0.0,0.0,0.0,0.0,0.0,0.0,0.0,-0.217,-0.041,0.023,1.21846967915e-07,0.0,0.0,0.0,1.21846967915e-07,0.0,0.0,0.0,1.21846967915e-07,0.91201845,0.4118793,9.7674234,9e-08,0.0,0.0,0.0,9e-08,0.0,0.0,0.0,9e-08
1532134984014307696,14897,1532134984013499856,base_link,0.0,0.0,0.0,0.0,-1.0,0.0,0.0,0.0,0.0,0.0,0.0,0.0,0.0,-0.11,-0.028,-0.008,1.21846967915e-07,0.0,0.0,0.0,1.21846967915e-07,0.0,0.0,0.0,1.21846967915e-07,0.81395195,0.50013915,9.5124505,9e-08,0.0,0.0,0.0,9e-08,0.0,0.0,0.0,9e-08
1532134984089864464,14898,1532134984089252176,base_link,0.0,0.0,0.0,0.0,-1.0,0.0,0.0,0.0,0.0,0.0,0.0,0.0,0.0,-0.03,-0.024,-0.041,1.21846967915e-07,0.0,0.0,0.0,1.21846967915e-07,0.0,0.0,0.0,1.21846967915e-07,0.8629852,0.392266,9.3555441,9e-08,0.0,0.0,0.0,9e-08,0.0,0.0,0.0,9e-08
1532134984251929296,14899,1532134984251441808,base_link,0.0,0.0,0.0,0.0,-1.0,0.0,0.0,0.0,0.0,0.0,0.0,0.0,0.0,-0.084,-0.006,-0.048,1.21846967915e-07,0.0,0.0,0.0,1.21846967915e-07,0.0,0.0,0.0,1.21846967915e-07,0.73549875,0.1765197,8.89463155,9e-08,0.0,0.0,0.0,9e-08,0.0,0.0,0.0,9e-08
1532134984344412272,14900,1532134984343363824,base_link,0.0,0.0,0.0,0.0,-1.0,0.0,0.0,0.0,0.0,0.0,0.0,0.0,0.0,-0.061,-0.024,-0.056,1.21846967915e-07,0.0,0.0,0.0,1.21846967915e-07,0.0,0.0,0.0,1.21846967915e-07,0.87279185,0.2549729,9.3751574,9e-08,0.0,0.0,0.0,9e-08,0.0,0.0,0.0,9e-08
1532134984428325072,14901,1532134984426935824,base_link,0.0,0.0,0.0,0.0,-1.0,0.0,0.0,0.0,0.0,0.0,0.0,0.0,0.0,-0.077,-0.041,-0.039,1.21846967915e-07,0.0,0.0,0.0,1.21846967915e-07,0.0,0.0,0.0,1.21846967915e-07,0.8237586,0.38245935,9.9243298,9e-08,0.0,0.0,0.0,9e-08,0.0,0.0,0.0,9e-08
1532134984523118000,14902,1532134984522466576,base_link,0.0,0.0,0.0,0.0,-1.0,0.0,0.0,0.0,0.0,0.0,0.0,0.0,0.0,-0.088,-0.042,-0.036,1.21846967915e-07,0.0,0.0,0.0,1.21846967915e-07,0.0,0.0,0.0,1.21846967915e-07,1.0002783,0.28439285,10.03220295,9e-08,0.0,0.0,0.0,9e-08,0.0,0.0,0.0,9e-08
1532134984632690032,14903,1532134984628972848,base_link,0.0,0.0,0.0,0.0,-1.0,0.0,0.0,0.0,0.0,0.0,0.0,0.0,0.0,-0.111,-0.034,-0.037,1.21846967915e-07,0.0,0.0,0.0,1.21846967915e-07,0.0,0.0,0.0,1.21846967915e-07,0.97085835,0.42168595,10.14988275,9e-08,0.0,0.0,0.0,9e-08,0.0,0.0,0.0,9e-08
1532134984715762512,14904,1532134984715304816,base_link,0.0,0.0,0.0,0.0,-1.0,0.0,0.0,0.0,0.0,0.0,0.0,0.0,0.0,-0.094,-0.039,-0.042,1.21846967915e-07,0.0,0.0,0.0,1.21846967915e-07,0.0,0.0,0.0,1.21846967915e-07,0.93163175,0.55897905,10.26756255,9e-08,0.0,0.0,0.0,9e-08,0.0,0.0,0.0,9e-08
1532134984822744112,14905,1532134984821577488,base_link,0.0,0.0,0.0,0.0,-1.0,0.0,0.0,0.0,0.0,0.0,0.0,0.0,0.0,-0.021,-0.047,-0.044,1.21846967915e-07,0.0,0.0,0.0,1.21846967915e-07,0.0,0.0,0.0,1.21846967915e-07,0.9218251,0.4314926,10.65982855,9e-08,0.0,0.0,0.0,9e-08,0.0,0.0,0.0,9e-08
1532134984906733008,14906,1532134984906117872,base_link,0.0,0.0,0.0,0.0,-1.0,0.0,0.0,0.0,0.0,0.0,0.0,0.0,0.0,-0.04,-0.053,-0.041,1.21846967915e-07,0.0,0.0,0.0,1.21846967915e-07,0.0,0.0,0.0,1.21846967915e-07,0.95124505,0.32361945,10.7088618,9e-08,0.0,0.0,0.0,9e-08,0.0,0.0,0.0,9e-08
1532134985022860752,14907,1532134985021948560,base_link,0.0,0.0,0.0,0.0,-1.0,0.0,0.0,0.0,0.0,0.0,0.0,0.0,0.0,-0.058,-0.05,-0.054,1.21846967915e-07,0.0,0.0,0.0,1.21846967915e-07,0.0,0.0,0.0,1.21846967915e-07,1.06892485,0.30400615,10.71866845,9e-08,0.0,0.0,0.0,9e-08,0.0,0.0,0.0,9e-08
1532134985120275152,14908,1532134985119730928,base_link,0.0,0.0,0.0,0.0,-1.0,0.0,0.0,0.0,0.0,0.0,0.0,0.0,0.0,-0.027,-0.061,-0.049,1.21846967915e-07,0.0,0.0,0.0,1.21846967915e-07,0.0,0.0,0.0,1.21846967915e-07,1.0787315,0.38245935,10.99325465,9e-08,0.0,0.0,0.0,9e-08,0.0,0.0,0.0,9e-08
1532134985211132272,14909,1532134985210752368,base_link,0.0,0.0,0.0,0.0,-1.0,0.0,0.0,0.0,0.0,0.0,0.0,0.0,0.0,-0.037,-0.059,-0.031,1.21846967915e-07,0.0,0.0,0.0,1.21846967915e-07,0.0,0.0,0.0,1.21846967915e-07,0.97085835,0.50013915,11.05209455,9e-08,0.0,0.0,0.0,9e-08,0.0,0.0,0.0,9e-08
1532134985302054800,14910,1532134985301185168,base_link,0.0,0.0,0.0,0.0,-1.0,0.0,0.0,0.0,0.0,0.0,0.0,0.0,0.0,-0.084,-0.04,-0.033,1.21846967915e-07,0.0,0.0,0.0,1.21846967915e-07,0.0,0.0,0.0,1.21846967915e-07,1.02969825,0.4118793,10.89518815,9e-08,0.0,0.0,0.0,9e-08,0.0,0.0,0.0,9e-08
1532134985409030480,14911,1532134985408615504,base_link,0.0,0.0,0.0,0.0,-1.0,0.0,0.0,0.0,0.0,0.0,0.0,0.0,0.0,-0.074,-0.034,-0.031,1.21846967915e-07,0.0,0.0,0.0,1.21846967915e-07,0.0,0.0,0.0,1.21846967915e-07,0.99047165,0.3726527,10.5519554,9e-08,0.0,0.0,0.0,9e-08,0.0,0.0,0.0,9e-08
1532134985521307024,14912,1532134985520033936,base_link,0.0,0.0,0.0,0.0,-1.0,0.0,0.0,0.0,0.0,0.0,0.0,0.0,0.0,0.0,-0.036,-0.039,1.21846967915e-07,0.0,0.0,0.0,1.21846967915e-07,0.0,0.0,0.0,1.21846967915e-07,0.8237586,0.3530394,10.26756255,9e-08,0.0,0.0,0.0,9e-08,0.0,0.0,0.0,9e-08
1532134985640071440,14913,1532134985639300176,base_link,0.0,0.0,0.0,0.0,-1.0,0.0,0.0,0.0,0.0,0.0,0.0,0.0,0.0,0.0,-0.027,-0.011,1.21846967915e-07,0.0,0.0,0.0,1.21846967915e-07,0.0,0.0,0.0,1.21846967915e-07,0.75511205,0.1765197,9.9831697,9e-08,0.0,0.0,0.0,9e-08,0.0,0.0,0.0,9e-08
1532134985722339120,14914,1532134985721423504,base_link,0.0,0.0,0.0,0.0,-1.0,0.0,0.0,0.0,0.0,0.0,0.0,0.0,0.0,-0.03,-0.03,0.018,1.21846967915e-07,0.0,0.0,0.0,1.21846967915e-07,0.0,0.0,0.0,1.21846967915e-07,0.7649187,0.36284605,10.0812362,9e-08,0.0,0.0,0.0,9e-08,0.0,0.0,0.0,9e-08
1532134985817775344,14915,1532134985817418672,base_link,0.0,0.0,0.0,0.0,-1.0,0.0,0.0,0.0,0.0,0.0,0.0,0.0,0.0,-0.03,0.014,0.016,1.21846967915e-07,0.0,0.0,0.0,1.21846967915e-07,0.0,0.0,0.0,1.21846967915e-07,0.83356525,0.18632635,9.26728425,9e-08,0.0,0.0,0.0,9e-08,0.0,0.0,0.0,9e-08
1532134985954525616,14916,1532134985954000880,base_link,0.0,0.0,0.0,0.0,-1.0,0.0,0.0,0.0,0.0,0.0,0.0,0.0,0.0,-0.021,0.012,0.031,1.21846967915e-07,0.0,0.0,0.0,1.21846967915e-07,0.0,0.0,0.0,1.21846967915e-07,0.8433719,0.1569064,9.50264385,9e-08,0.0,0.0,0.0,9e-08,0.0,0.0,0.0,9e-08
1532134986020828528,14917,1532134986020206704,base_link,0.0,0.0,0.0,0.0,-1.0,0.0,0.0,0.0,0.0,0.0,0.0,0.0,0.0,0.023,0.005,0.026,1.21846967915e-07,0.0,0.0,0.0,1.21846967915e-07,0.0,0.0,0.0,1.21846967915e-07,0.89240515,0.1372931,9.8851032,9e-08,0.0,0.0,0.0,9e-08,0.0,0.0,0.0,9e-08
1532134986121441872,14918,1532134986118216624,base_link,0.0,0.0,0.0,0.0,-1.0,0.0,0.0,0.0,0.0,0.0,0.0,0.0,0.0,0.042,0.006,0.028,1.21846967915e-07,0.0,0.0,0.0,1.21846967915e-07,0.0,0.0,0.0,1.21846967915e-07,0.9022118,0.3138128,9.85568325,9e-08,0.0,0.0,0.0,9e-08,0.0,0.0,0.0,9e-08
1532134986231184048,14919,1532134986230579280,base_link,0.0,0.0,0.0,0.0,-1.0,0.0,0.0,0.0,0.0,0.0,0.0,0.0,0.0,-0.045,7.22541611497e-18,0.059,1.21846967915e-07,0.0,0.0,0.0,1.21846967915e-07,0.0,0.0,0.0,1.21846967915e-07,0.8041453,0.3138128,9.610517,9e-08,0.0,0.0,0.0,9e-08,0.0,0.0,0.0,9e-08
1532134986318520176,14920,1532134986318113264,base_link,0.0,0.0,0.0,0.0,-1.0,0.0,0.0,0.0,0.0,0.0,0.0,0.0,0.0,-0.093,7.4703454748e-18,0.061,1.21846967915e-07,0.0,0.0,0.0,1.21846967915e-07,0.0,0.0,0.0,1.21846967915e-07,0.9610517,0.18632635,9.65955025,9e-08,0.0,0.0,0.0,9e-08,0.0,0.0,0.0,9e-08
1532134986400918736,14921,1532134986398235504,base_link,0.0,0.0,0.0,0.0,-1.0,0.0,0.0,0.0,0.0,0.0,0.0,0.0,0.0,0.037,-0.002,0.061,1.21846967915e-07,0.0,0.0,0.0,1.21846967915e-07,0.0,0.0,0.0,1.21846967915e-07,0.83356525,0.4707192,9.81645665,9e-08,0.0,0.0,0.0,9e-08,0.0,0.0,0.0,9e-08
1532134986501106128,14922,1532134986499452944,base_link,0.0,0.0,0.0,0.0,-1.0,0.0,0.0,0.0,0.0,0.0,0.0,0.0,0.0,0.153,0.031,0.025,1.21846967915e-07,0.0,0.0,0.0,1.21846967915e-07,0.0,0.0,0.0,1.21846967915e-07,0.8433719,0.2353596,8.6690786,9e-08,0.0,0.0,0.0,9e-08,0.0,0.0,0.0,9e-08
1532134986600281328,14923,1532134986599578032,base_link,0.0,0.0,0.0,0.0,-1.0,0.0,0.0,0.0,0.0,0.0,0.0,0.0,0.0,0.154,0.03,0.013,1.21846967915e-07,0.0,0.0,0.0,1.21846967915e-07,0.0,0.0,0.0,1.21846967915e-07,0.784532,0.38245935,8.36507245,9e-08,0.0,0.0,0.0,9e-08,0.0,0.0,0.0,9e-08
1532134986782725072,14924,1532134986782297168,base_link,0.0,0.0,0.0,0.0,-1.0,0.0,0.0,0.0,0.0,0.0,0.0,0.0,0.0,0.033,0.043,-0.006,1.21846967915e-07,0.0,0.0,0.0,1.21846967915e-07,0.0,0.0,0.0,1.21846967915e-07,0.83356525,0.3334261,8.3748791,9e-08,0.0,0.0,0.0,9e-08,0.0,0.0,0.0,9e-08
1532134986846393936,14925,1532134986845637328,base_link,0.0,0.0,0.0,0.0,-1.0,0.0,0.0,0.0,0.0,0.0,0.0,0.0,0.0,0.049,0.031,-0.016,1.21846967915e-07,0.0,0.0,0.0,1.21846967915e-07,0.0,0.0,0.0,1.21846967915e-07,0.93163175,0.26477955,8.9240515,9e-08,0.0,0.0,0.0,9e-08,0.0,0.0,0.0,9e-08
1532134986911506192,14926,1532134986910400016,base_link,0.0,0.0,0.0,0.0,-1.0,0.0,0.0,0.0,0.0,0.0,0.0,0.0,0.0,0.095,0.011,-0.017,1.21846967915e-07,0.0,0.0,0.0,1.21846967915e-07,0.0,0.0,0.0,1.21846967915e-07,0.89240515,0.36284605,9.48303055,9e-08,0.0,0.0,0.0,9e-08,0.0,0.0,0.0,9e-08
1532134987011266000,14927,1532134987010431056,base_link,0.0,0.0,0.0,0.0,-1.0,0.0,0.0,0.0,0.0,0.0,0.0,0.0,0.0,0.102,0.026,-0.01,1.21846967915e-07,0.0,0.0,0.0,1.21846967915e-07,0.0,0.0,0.0,1.21846967915e-07,1.0395049,0.4118793,9.3947707,9e-08,0.0,0.0,0.0,9e-08,0.0,0.0,0.0,9e-08
1532134987117729392,14928,1532134987117230832,base_link,0.0,0.0,0.0,0.0,-1.0,0.0,0.0,0.0,0.0,0.0,0.0,0.0,0.0,-0.025,0.012,0.001,1.21846967915e-07,0.0,0.0,0.0,1.21846967915e-07,0.0,0.0,0.0,1.21846967915e-07,1.01008495,0.5295591,9.610517,9e-08,0.0,0.0,0.0,9e-08,0.0,0.0,0.0,9e-08
1532134987216857520,14929,1532134987216023152,base_link,0.0,0.0,0.0,0.0,-1.0,0.0,0.0,0.0,0.0,0.0,0.0,0.0,0.0,-0.038,0.03,-0.01,1.21846967915e-07,0.0,0.0,0.0,1.21846967915e-07,0.0,0.0,0.0,1.21846967915e-07,0.95124505,0.3138128,9.1790244,9e-08,0.0,0.0,0.0,9e-08,0.0,0.0,0.0,9e-08
1532134987325245936,14930,1532134987324533520,base_link,0.0,0.0,0.0,0.0,-1.0,0.0,0.0,0.0,0.0,0.0,0.0,0.0,0.0,-0.045,0.016,-0.017,1.21846967915e-07,0.0,0.0,0.0,1.21846967915e-07,0.0,0.0,0.0,1.21846967915e-07,0.85317855,0.2745862,9.50264385,9e-08,0.0,0.0,0.0,9e-08,0.0,0.0,0.0,9e-08
1532134987438544080,14931,1532134987437033072,base_link,0.0,0.0,0.0,0.0,-1.0,0.0,0.0,0.0,0.0,0.0,0.0,0.0,0.0,0.006,0.006,-0.014,1.21846967915e-07,0.0,0.0,0.0,1.21846967915e-07,0.0,0.0,0.0,1.21846967915e-07,0.980665,0.0784532,10.1008495,9e-08,0.0,0.0,0.0,9e-08,0.0,0.0,0.0,9e-08
1532134987514584336,14932,1532134987513619792,base_link,0.0,0.0,0.0,0.0,-1.0,0.0,0.0,0.0,0.0,0.0,0.0,0.0,0.0,0.006,-0.004,0.013,1.21846967915e-07,0.0,0.0,0.0,1.21846967915e-07,0.0,0.0,0.0,1.21846967915e-07,0.8237586,0.3530394,10.26756255,9e-08,0.0,0.0,0.0,9e-08,0.0,0.0,0.0,9e-08
1532134987609199632,14933,1532134987606645776,base_link,0.0,0.0,0.0,0.0,-1.0,0.0,0.0,0.0,0.0,0.0,0.0,0.0,0.0,0.005,-0.007,0.029,1.21846967915e-07,0.0,0.0,0.0,1.21846967915e-07,0.0,0.0,0.0,1.21846967915e-07,0.77472535,0.2549729,9.97336305,9e-08,0.0,0.0,0.0,9e-08,0.0,0.0,0.0,9e-08
1532134987711771216,14934,1532134987709611248,base_link,0.0,0.0,0.0,0.0,-1.0,0.0,0.0,0.0,0.0,0.0,0.0,0.0,0.0,-0.02,-0.014,0.036,1.21846967915e-07,0.0,0.0,0.0,1.21846967915e-07,0.0,0.0,0.0,1.21846967915e-07,0.85317855,0.392266,10.1008495,9e-08,0.0,0.0,0.0,9e-08,0.0,0.0,0.0,9e-08
1532134987805943984,14935,1532134987805328912,base_link,0.0,0.0,0.0,0.0,-1.0,0.0,0.0,0.0,0.0,0.0,0.0,0.0,0.0,-0.111,-0.004,0.027,1.21846967915e-07,0.0,0.0,0.0,1.21846967915e-07,0.0,0.0,0.0,1.21846967915e-07,0.7649187,0.38245935,9.7478101,9e-08,0.0,0.0,0.0,9e-08,0.0,0.0,0.0,9e-08
1532134987959083536,14936,1532134987958542192,base_link,0.0,0.0,0.0,0.0,-1.0,0.0,0.0,0.0,0.0,0.0,0.0,0.0,0.0,-0.029,0.014,0.028,1.21846967915e-07,0.0,0.0,0.0,1.21846967915e-07,0.0,0.0,0.0,1.21846967915e-07,0.6668522,0.42168595,9.11037785,9e-08,0.0,0.0,0.0,9e-08,0.0,0.0,0.0,9e-08
1532134988030670288,14937,1532134988029431984,base_link,0.0,0.0,0.0,0.0,-1.0,0.0,0.0,0.0,0.0,0.0,0.0,0.0,0.0,-0.085,0.028,0.035,1.21846967915e-07,0.0,0.0,0.0,1.21846967915e-07,0.0,0.0,0.0,1.21846967915e-07,0.6276256,0.50013915,8.62004535,9e-08,0.0,0.0,0.0,9e-08,0.0,0.0,0.0,9e-08
1532134988109323696,14938,1532134988108605520,base_link,0.0,0.0,0.0,0.0,-1.0,0.0,0.0,0.0,0.0,0.0,0.0,0.0,0.0,-0.055,-0.007,0.011,1.21846967915e-07,0.0,0.0,0.0,1.21846967915e-07,0.0,0.0,0.0,1.21846967915e-07,0.6472389,0.5099458,9.5712904,9e-08,0.0,0.0,0.0,9e-08,0.0,0.0,0.0,9e-08
1532134988216354288,14939,1532134988215576400,base_link,0.0,0.0,0.0,0.0,-1.0,0.0,0.0,0.0,0.0,0.0,0.0,0.0,0.0,-0.051,0.014,-0.008,1.21846967915e-07,0.0,0.0,0.0,1.21846967915e-07,0.0,0.0,0.0,1.21846967915e-07,0.6472389,0.20593965,9.1594111,9e-08,0.0,0.0,0.0,9e-08,0.0,0.0,0.0,9e-08
1532134988317355312,14940,1532134988316310448,base_link,0.0,0.0,0.0,0.0,-1.0,0.0,0.0,0.0,0.0,0.0,0.0,0.0,0.0,-0.017,0.005,-0.018,1.21846967915e-07,0.0,0.0,0.0,1.21846967915e-07,0.0,0.0,0.0,1.21846967915e-07,0.7453054,0.3334261,9.7478101,9e-08,0.0,0.0,0.0,9e-08,0.0,0.0,0.0,9e-08
1532134988413648272,14941,1532134988413233200,base_link,0.0,0.0,0.0,0.0,-1.0,0.0,0.0,0.0,0.0,0.0,0.0,0.0,0.0,0.09,-0.005,-0.004,1.21846967915e-07,0.0,0.0,0.0,1.21846967915e-07,0.0,0.0,0.0,1.21846967915e-07,0.69627215,0.2353596,9.73800345,9e-08,0.0,0.0,0.0,9e-08,0.0,0.0,0.0,9e-08
1532134988528017808,14942,1532134988527043280,base_link,0.0,0.0,0.0,0.0,-1.0,0.0,0.0,0.0,0.0,0.0,0.0,0.0,0.0,0.092,0.011,0.008,1.21846967915e-07,0.0,0.0,0.0,1.21846967915e-07,0.0,0.0,0.0,1.21846967915e-07,0.7649187,0.16671305,9.218251,9e-08,0.0,0.0,0.0,9e-08,0.0,0.0,0.0,9e-08
1532134988626001296,14943,1532134988624507888,base_link,0.0,0.0,0.0,0.0,-1.0,0.0,0.0,0.0,0.0,0.0,0.0,0.0,0.0,-0.023,-0.003,0.034,1.21846967915e-07,0.0,0.0,0.0,1.21846967915e-07,0.0,0.0,0.0,1.21846967915e-07,0.75511205,0.40207265,9.5712904,9e-08,0.0,0.0,0.0,9e-08,0.0,0.0,0.0,9e-08
1532134988742763408,14944,1532134988741415824,base_link,0.0,0.0,0.0,0.0,-1.0,0.0,0.0,0.0,0.0,0.0,0.0,0.0,0.0,-0.03,-0.008,0.037,1.21846967915e-07,0.0,0.0,0.0,1.21846967915e-07,0.0,0.0,0.0,1.21846967915e-07,0.784532,0.5295591,9.97336305,9e-08,0.0,0.0,0.0,9e-08,0.0,0.0,0.0,9e-08
1532134988812333328,14945,1532134988811734192,base_link,0.0,0.0,0.0,0.0,-1.0,0.0,0.0,0.0,0.0,0.0,0.0,0.0,0.0,-0.025,0.013,0.02,1.21846967915e-07,0.0,0.0,0.0,1.21846967915e-07,0.0,0.0,0.0,1.21846967915e-07,0.8433719,0.3530394,9.7085835,9e-08,0.0,0.0,0.0,9e-08,0.0,0.0,0.0,9e-08
1532134988913719120,14946,1532134988912934128,base_link,0.0,0.0,0.0,0.0,-1.0,0.0,0.0,0.0,0.0,0.0,0.0,0.0,0.0,-0.01,0.029,-3.55147571753e-18,1.21846967915e-07,0.0,0.0,0.0,1.21846967915e-07,0.0,0.0,0.0,1.21846967915e-07,0.69627215,0.4511059,9.2967042,9e-08,0.0,0.0,0.0,9e-08,0.0,0.0,0.0,9e-08
1532134989009552944,14947,1532134989007834480,base_link,0.0,0.0,0.0,0.0,-1.0,0.0,0.0,0.0,0.0,0.0,0.0,0.0,0.0,0.001,0.031,-0.036,1.21846967915e-07,0.0,0.0,0.0,1.21846967915e-07,0.0,0.0,0.0,1.21846967915e-07,0.8629852,0.3530394,9.1986377,9e-08,0.0,0.0,0.0,9e-08,0.0,0.0,0.0,9e-08
1532134989092582928,14948,1532134989091690032,base_link,0.0,0.0,0.0,0.0,-1.0,0.0,0.0,0.0,0.0,0.0,0.0,0.0,0.0,0.007,0.039,-0.019,1.21846967915e-07,0.0,0.0,0.0,1.21846967915e-07,0.0,0.0,0.0,1.21846967915e-07,0.75511205,0.53936575,9.1005712,9e-08,0.0,0.0,0.0,9e-08,0.0,0.0,0.0,9e-08
1532134989215995664,14949,1532134989215167472,base_link,0.0,0.0,0.0,0.0,-1.0,0.0,0.0,0.0,0.0,0.0,0.0,0.0,0.0,0.023,0.024,-0.036,1.21846967915e-07,0.0,0.0,0.0,1.21846967915e-07,0.0,0.0,0.0,1.21846967915e-07,0.7060788,0.4511059,9.1397978,9e-08,0.0,0.0,0.0,9e-08,0.0,0.0,0.0,9e-08
1532134989313423248,14950,1532134989312413744,base_link,0.0,0.0,0.0,0.0,-1.0,0.0,0.0,0.0,0.0,0.0,0.0,0.0,0.0,-0.034,0.004,-0.034,1.21846967915e-07,0.0,0.0,0.0,1.21846967915e-07,0.0,0.0,0.0,1.21846967915e-07,0.7453054,0.392266,9.50264385,9e-08,0.0,0.0,0.0,9e-08,0.0,0.0,0.0,9e-08
1532134989439043600,14951,1532134989438120688,base_link,0.0,0.0,0.0,0.0,-1.0,0.0,0.0,0.0,0.0,0.0,0.0,0.0,0.0,-0.065,-0.008,-0.021,1.21846967915e-07,0.0,0.0,0.0,1.21846967915e-07,0.0,0.0,0.0,1.21846967915e-07,0.79433865,0.36284605,9.610517,9e-08,0.0,0.0,0.0,9e-08,0.0,0.0,0.0,9e-08
1532134989513476432,14952,1532134989513080112,base_link,0.0,0.0,0.0,0.0,-1.0,0.0,0.0,0.0,0.0,0.0,0.0,0.0,0.0,-0.06,-0.005,-0.013,1.21846967915e-07,0.0,0.0,0.0,1.21846967915e-07,0.0,0.0,0.0,1.21846967915e-07,0.8041453,0.34323275,9.6497436,9e-08,0.0,0.0,0.0,9e-08,0.0,0.0,0.0,9e-08
1532134989627745200,14953,1532134989626711600,base_link,0.0,0.0,0.0,0.0,-1.0,0.0,0.0,0.0,0.0,0.0,0.0,0.0,0.0,-0.053,-0.017,-0.001,1.21846967915e-07,0.0,0.0,0.0,1.21846967915e-07,0.0,0.0,0.0,1.21846967915e-07,1.01008495,0.12748645,10.07142955,9e-08,0.0,0.0,0.0,9e-08,0.0,0.0,0.0,9e-08
1532134989738244464,14954,1532134989737723408,base_link,0.0,0.0,0.0,0.0,-1.0,0.0,0.0,0.0,0.0,0.0,0.0,0.0,0.0,-0.043,-0.024,0.03,1.21846967915e-07,0.0,0.0,0.0,1.21846967915e-07,0.0,0.0,0.0,1.21846967915e-07,0.99047165,0.30400615,10.28717585,9e-08,0.0,0.0,0.0,9e-08,0.0,0.0,0.0,9e-08
1532134989817058128,14955,1532134989816071856,base_link,0.0,0.0,0.0,0.0,-1.0,0.0,0.0,0.0,0.0,0.0,0.0,0.0,0.0,-0.079,-0.018,0.048,1.21846967915e-07,0.0,0.0,0.0,1.21846967915e-07,0.0,0.0,0.0,1.21846967915e-07,1.0198916,0.2941995,10.28717585,9e-08,0.0,0.0,0.0,9e-08,0.0,0.0,0.0,9e-08
1532134989938513968,14956,1532134989937578384,base_link,0.0,0.0,0.0,0.0,-1.0,0.0,0.0,0.0,0.0,0.0,0.0,0.0,0.0,-0.126,-0.029,0.069,1.21846967915e-07,0.0,0.0,0.0,1.21846967915e-07,0.0,0.0,0.0,1.21846967915e-07,0.89240515,0.3726527,10.1008495,9e-08,0.0,0.0,0.0,9e-08,0.0,0.0,0.0,9e-08
1532134990031054224,14957,1532134990030468208,base_link,0.0,0.0,0.0,0.0,-1.0,0.0,0.0,0.0,0.0,0.0,0.0,0.0,0.0,-0.093,-0.007,0.053,1.21846967915e-07,0.0,0.0,0.0,1.21846967915e-07,0.0,0.0,0.0,1.21846967915e-07,0.9610517,0.08825985,9.80665,9e-08,0.0,0.0,0.0,9e-08,0.0,0.0,0.0,9e-08
1532134990104533744,14958,1532134990103827696,base_link,0.0,0.0,0.0,0.0,-1.0,0.0,0.0,0.0,0.0,0.0,0.0,0.0,0.0,-0.03,-0.041,0.074,1.21846967915e-07,0.0,0.0,0.0,1.21846967915e-07,0.0,0.0,0.0,1.21846967915e-07,0.97085835,0.36284605,10.6107953,9e-08,0.0,0.0,0.0,9e-08,0.0,0.0,0.0,9e-08
1532134990223704176,14959,1532134990222836176,base_link,0.0,0.0,0.0,0.0,-1.0,0.0,0.0,0.0,0.0,0.0,0.0,0.0,0.0,0.022,-0.057,0.072,1.21846967915e-07,0.0,0.0,0.0,1.21846967915e-07,0.0,0.0,0.0,1.21846967915e-07,1.20621795,0.3530394,11.50320045,9e-08,0.0,0.0,0.0,9e-08,0.0,0.0,0.0,9e-08
1532134990337317712,14960,1532134990336654160,base_link,0.0,0.0,0.0,0.0,-1.0,0.0,0.0,0.0,0.0,0.0,0.0,0.0,0.0,0.058,-0.074,0.083,1.21846967915e-07,0.0,0.0,0.0,1.21846967915e-07,0.0,0.0,0.0,1.21846967915e-07,1.372931,0.34323275,12.05237285,9e-08,0.0,0.0,0.0,9e-08,0.0,0.0,0.0,9e-08
1532134990453335312,14961,1532134990452692208,base_link,0.0,0.0,0.0,0.0,-1.0,0.0,0.0,0.0,0.0,0.0,0.0,0.0,0.0,0.139,-0.056,0.06,1.21846967915e-07,0.0,0.0,0.0,1.21846967915e-07,0.0,0.0,0.0,1.21846967915e-07,1.28467115,0.08825985,11.6503002,9e-08,0.0,0.0,0.0,9e-08,0.0,0.0,0.0,9e-08
1532134990526207280,14962,1532134990525826928,base_link,0.0,0.0,0.0,0.0,-1.0,0.0,0.0,0.0,0.0,0.0,0.0,0.0,0.0,0.084,-0.043,0.073,1.21846967915e-07,0.0,0.0,0.0,1.21846967915e-07,0.0,0.0,0.0,1.21846967915e-07,1.1571847,0.0980665,10.9049948,9e-08,0.0,0.0,0.0,9e-08,0.0,0.0,0.0,9e-08
1532134990606043952,14963,1532134990605626160,base_link,0.0,0.0,0.0,0.0,-1.0,0.0,0.0,0.0,0.0,0.0,0.0,0.0,0.0,-0.009,-0.063,0.118,1.21846967915e-07,0.0,0.0,0.0,1.21846967915e-07,0.0,0.0,0.0,1.21846967915e-07,1.12776475,0.2353596,11.42474725,9e-08,0.0,0.0,0.0,9e-08,0.0,0.0,0.0,9e-08
1532134990740786160,14964,1532134990739983408,base_link,0.0,0.0,0.0,0.0,-1.0,0.0,0.0,0.0,0.0,0.0,0.0,0.0,0.0,-0.012,-0.032,0.146,1.21846967915e-07,0.0,0.0,0.0,1.21846967915e-07,0.0,0.0,0.0,1.21846967915e-07,0.9414384,0.6668522,10.8657682,9e-08,0.0,0.0,0.0,9e-08,0.0,0.0,0.0,9e-08
1532134990817888752,14965,1532134990816946416,base_link,0.0,0.0,0.0,0.0,-1.0,0.0,0.0,0.0,0.0,0.0,0.0,0.0,0.0,0.004,0.007,0.116,1.21846967915e-07,0.0,0.0,0.0,1.21846967915e-07,0.0,0.0,0.0,1.21846967915e-07,0.93163175,0.79433865,9.9439431,9e-08,0.0,0.0,0.0,9e-08,0.0,0.0,0.0,9e-08
1532134990930776720,14966,1532134990926475920,base_link,0.0,0.0,0.0,0.0,-1.0,0.0,0.0,0.0,0.0,0.0,0.0,0.0,0.0,0.003,0.083,0.02,1.21846967915e-07,0.0,0.0,0.0,1.21846967915e-07,0.0,0.0,0.0,1.21846967915e-07,0.63743225,1.1571847,9.26728425,9e-08,0.0,0.0,0.0,9e-08,0.0,0.0,0.0,9e-08
1532134991017014544,14967,1532134991016324912,base_link,0.0,0.0,0.0,0.0,-1.0,0.0,0.0,0.0,0.0,0.0,0.0,0.0,0.0,0.085,0.138,-0.139,1.21846967915e-07,0.0,0.0,0.0,1.21846967915e-07,0.0,0.0,0.0,1.21846967915e-07,0.53936575,0.6864655,7.34518085,9e-08,0.0,0.0,0.0,9e-08,0.0,0.0,0.0,9e-08
1532134991120577584,14968,1532134991119385680,base_link,0.0,0.0,0.0,0.0,-1.0,0.0,0.0,0.0,0.0,0.0,0.0,0.0,0.0,0.111,0.101,-0.204,1.21846967915e-07,0.0,0.0,0.0,1.21846967915e-07,0.0,0.0,0.0,1.21846967915e-07,0.4314926,0.588399,7.7864801,9e-08,0.0,0.0,0.0,9e-08,0.0,0.0,0.0,9e-08
1532134991211973520,14969,1532134991211464976,base_link,0.0,0.0,0.0,0.0,-1.0,0.0,0.0,0.0,0.0,0.0,0.0,0.0,0.0,0.164,0.111,-0.241,1.21846967915e-07,0.0,0.0,0.0,1.21846967915e-07,0.0,0.0,0.0,1.21846967915e-07,0.4903325,0.1765197,6.9038816,9e-08,0.0,0.0,0.0,9e-08,0.0,0.0,0.0,9e-08
