%time,field.header.seq,field.header.stamp,field.header.frame_id,field.orientation.x,field.orientation.y,field.orientation.z,field.orientation.w,field.orientation_covariance0,field.orientation_covariance1,field.orientation_covariance2,field.orientation_covariance3,field.orientation_covariance4,field.orientation_covariance5,field.orientation_covariance6,field.orientation_covariance7,field.orientation_covariance8,field.angular_velocity.x,field.angular_velocity.y,field.angular_velocity.z,field.angular_velocity_covariance0,field.angular_velocity_covariance1,field.angular_velocity_covariance2,field.angular_velocity_covariance3,field.angular_velocity_covariance4,field.angular_velocity_covariance5,field.angular_velocity_covariance6,field.angular_velocity_covariance7,field.angular_velocity_covariance8,field.linear_acceleration.x,field.linear_acceleration.y,field.linear_acceleration.z,field.linear_acceleration_covariance0,field.linear_acceleration_covariance1,field.linear_acceleration_covariance2,field.linear_acceleration_covariance3,field.linear_acceleration_covariance4,field.linear_acceleration_covariance5,field.linear_acceleration_covariance6,field.linear_acceleration_covariance7,field.linear_acceleration_covariance8
1532134949281575408,4049,1532134949281283568,base_link,-0.276899844581,-0.225497933827,-0.921915675043,-0.150162065856,1.0,0.0,0.0,0.0,1.0,0.0,0.0,0.0,1.0,0.164947971702,-0.489877194166,-0.114016935229,1.21846967915e-07,0.0,0.0,0.0,1.21846967915e-07,0.0,0.0,0.0,1.21846967915e-07,-0.10787315,1.10815145,16.34768555,9e-08,0.0,0.0,0.0,9e-08,0.0,0.0,0.0,9e-08
1532134949603560016,4050,1532134949603127344,base_link,-0.323244214261,-0.244408170253,-0.892009894438,-0.20024028687,1.0,0.0,0.0,0.0,1.0,0.0,0.0,0.0,1.0,-0.0995509177446,-0.300376355648,-0.355428516865,1.21846967915e-07,0.0,0.0,0.0,1.21846967915e-07,0.0,0.0,0.0,1.21846967915e-07,-0.46091255,1.53964405,12.83690485,9e-08,0.0,0.0,0.0,9e-08,0.0,0.0,0.0,9e-08
1532134950048372048,4051,1532134950047888080,base_link,-0.342801270224,-0.275592941646,-0.851370288483,-0.285839905431,1.0,0.0,0.0,0.0,1.0,0.0,0.0,0.0,1.0,0.136710420251,-0.145677566528,-0.445696145296,1.21846967915e-07,0.0,0.0,0.0,1.21846967915e-07,0.0,0.0,0.0,1.21846967915e-07,-0.3726527,0.7453054,8.12971285,9e-08,0.0,0.0,0.0,9e-08,0.0,0.0,0.0,9e-08
1532134950426434000,4052,1532134950424824400,base_link,-0.338799137149,-0.309820335646,-0.809693651025,-0.365544382774,1.0,0.0,0.0,0.0,1.0,0.0,0.0,0.0,1.0,-0.0554702877998,-0.091640047729,-0.471151292324,1.21846967915e-07,0.0,0.0,0.0,1.21846967915e-07,0.0,0.0,0.0,1.21846967915e-07,-0.28439285,0.4314926,7.09020795,9e-08,0.0,0.0,0.0,9e-08,0.0,0.0,0.0,9e-08
1532134950701447504,4053,1532134950701019632,base_link,-0.315885669094,-0.318979748117,-0.784770554471,-0.42732112186,1.0,0.0,0.0,0.0,1.0,0.0,0.0,0.0,1.0,-0.136319294572,-0.0149440709502,-0.514353811741,1.21846967915e-07,0.0,0.0,0.0,1.21846967915e-07,0.0,0.0,0.0,1.21846967915e-07,-0.3726527,0.588399,5.12887795,9e-08,0.0,0.0,0.0,9e-08,0.0,0.0,0.0,9e-08
1532134951038789168,4054,1532134951038142512,base_link,-0.286424484671,-0.334772710615,-0.744727716397,-0.501267269267,1.0,0.0,0.0,0.0,1.0,0.0,0.0,0.0,1.0,-0.0668237134814,-0.0650035440922,-0.591273486614,1.21846967915e-07,0.0,0.0,0.0,1.21846967915e-07,0.0,0.0,0.0,1.21846967915e-07,-0.2353596,0.4903325,5.97224985,9e-08,0.0,0.0,0.0,9e-08,0.0,0.0,0.0,9e-08
1532134951396529552,4055,1532134951396066224,base_link,-0.257560314592,-0.350374915446,-0.678348798811,-0.592235603561,1.0,0.0,0.0,0.0,1.0,0.0,0.0,0.0,1.0,-0.027650564909,-0.134475588799,-0.599933505058,1.21846967915e-07,0.0,0.0,0.0,1.21846967915e-07,0.0,0.0,0.0,1.21846967915e-07,0.0,0.3530394,6.5312289,9e-08,0.0,0.0,0.0,9e-08,0.0,0.0,0.0,9e-08
1532134951837759024,4056,1532134951837038960,base_link,-0.229059690752,-0.339154490051,-0.59192261286,-0.694358344326,1.0,0.0,0.0,0.0,1.0,0.0,0.0,0.0,1.0,-0.164984315634,-0.236421898007,-0.630012571812,1.21846967915e-07,0.0,0.0,0.0,1.21846967915e-07,0.0,0.0,0.0,1.21846967915e-07,0.2157463,0.0588399,8.6494653,9e-08,0.0,0.0,0.0,9e-08,0.0,0.0,0.0,9e-08
1532134952255360560,4057,1532134952255087248,base_link,-0.216333519756,-0.306082355794,-0.492776991681,-0.785292452638,1.0,0.0,0.0,0.0,1.0,0.0,0.0,0.0,1.0,0.0522022582591,-0.347882777452,-0.49141433835,1.21846967915e-07,0.0,0.0,0.0,1.21846967915e-07,0.0,0.0,0.0,1.21846967915e-07,0.0980665,0.1372931,11.24822755,9e-08,0.0,0.0,0.0,9e-08,0.0,0.0,0.0,9e-08
1532134952643598160,4058,1532134952636891088,base_link,-0.269278345837,-0.279929315843,-0.395976959129,-0.832064299458,1.0,0.0,0.0,0.0,1.0,0.0,0.0,0.0,1.0,0.103369243443,-0.423535108566,-0.327607214451,1.21846967915e-07,0.0,0.0,0.0,1.21846967915e-07,0.0,0.0,0.0,1.21846967915e-07,0.16671305,0.46091255,12.5917386,9e-08,0.0,0.0,0.0,9e-08,0.0,0.0,0.0,9e-08
1532134952951400368,4059,1532134952951114480,base_link,-0.286791981464,-0.238045589282,-0.33043975116,-0.867118346966,1.0,0.0,0.0,0.0,1.0,0.0,0.0,0.0,1.0,-0.038559384644,-0.466609656811,-0.369887322187,1.21846967915e-07,0.0,0.0,0.0,1.21846967915e-07,0.0,0.0,0.0,1.21846967915e-07,0.2549729,0.5491724,13.925443,9e-08,0.0,0.0,0.0,9e-08,0.0,0.0,0.0,9e-08
1532134953225056560,4060,1532134953219355056,base_link,-0.280800214142,-0.198787561355,-0.269471083383,-0.899455435477,1.0,0.0,0.0,0.0,1.0,0.0,0.0,0.0,1.0,-0.129811316729,-0.389307886362,-0.449328660965,1.21846967915e-07,0.0,0.0,0.0,1.21846967915e-07,0.0,0.0,0.0,1.21846967915e-07,0.12748645,0.67665885,13.5527903,9e-08,0.0,0.0,0.0,9e-08,0.0,0.0,0.0,9e-08
1532134953495959952,4061,1532134953495574320,base_link,-0.294301621266,-0.160899021331,-0.188775544977,-0.92296362565,1.0,0.0,0.0,0.0,1.0,0.0,0.0,0.0,1.0,0.10257768631,-0.431940197945,-0.431001186371,1.21846967915e-07,0.0,0.0,0.0,1.21846967915e-07,0.0,0.0,0.0,1.21846967915e-07,-0.0588399,0.1569064,13.79795655,9e-08,0.0,0.0,0.0,9e-08,0.0,0.0,0.0,9e-08
1532134953870483152,4062,1532134953870214288,base_link,-0.318796695539,-0.103144553693,-0.0936539371934,-0.937528030517,1.0,0.0,0.0,0.0,1.0,0.0,0.0,0.0,1.0,0.139706850052,-0.455406039953,-0.365497201681,1.21846967915e-07,0.0,0.0,0.0,1.21846967915e-07,0.0,0.0,0.0,1.21846967915e-07,0.2745862,0.34323275,16.3574922,9e-08,0.0,0.0,0.0,9e-08,0.0,0.0,0.0,9e-08
1532134954261062768,4063,1532134954260647344,base_link,-0.320315680623,-0.0377831360491,0.00561540325411,-0.946540419963,1.0,0.0,0.0,0.0,1.0,0.0,0.0,0.0,1.0,-0.148637533188,-0.449751883745,-0.383981019258,1.21846967915e-07,0.0,0.0,0.0,1.21846967915e-07,0.0,0.0,0.0,1.21846967915e-07,0.42168595,0.588399,16.19077915,9e-08,0.0,0.0,0.0,9e-08,0.0,0.0,0.0,9e-08
1532134954641562768,4064,1532134954641301104,base_link,-0.329596859061,0.00586891662865,0.102966289997,-0.938471847974,1.0,0.0,0.0,0.0,1.0,0.0,0.0,0.0,1.0,0.148544058204,-0.36903244257,-0.434542477131,1.21846967915e-07,0.0,0.0,0.0,1.21846967915e-07,0.0,0.0,0.0,1.21846967915e-07,0.0392266,0.36284605,13.9842829,9e-08,0.0,0.0,0.0,9e-08,0.0,0.0,0.0,9e-08
1532134955042198608,4065,1532134955041850000,base_link,-0.348455875595,0.0583516384323,0.20471616751,-0.91283343487,1.0,0.0,0.0,0.0,1.0,0.0,0.0,0.0,1.0,0.193796828389,-0.40190127492,-0.355374336243,1.21846967915e-07,0.0,0.0,0.0,1.21846967915e-07,0.0,0.0,0.0,1.21846967915e-07,-0.3334261,0.2941995,12.62115855,9e-08,0.0,0.0,0.0,9e-08,0.0,0.0,0.0,9e-08
1532134955409408080,4066,1532134955408390800,base_link,-0.334112205868,0.103973623334,0.290729134043,-0.890525176601,1.0,0.0,0.0,0.0,1.0,0.0,0.0,0.0,1.0,-0.186606183648,-0.376072317362,-0.403744697571,1.21846967915e-07,0.0,0.0,0.0,1.21846967915e-07,0.0,0.0,0.0,1.21846967915e-07,0.1765197,0.1569064,15.81812645,9e-08,0.0,0.0,0.0,9e-08,0.0,0.0,0.0,9e-08
1532134955826066096,4067,1532134955825859376,base_link,-0.274465836595,0.128171516106,0.387173669742,-0.870825537326,1.0,0.0,0.0,0.0,1.0,0.0,0.0,0.0,1.0,-0.461722165346,-0.319139778614,-0.306893855333,1.21846967915e-07,0.0,0.0,0.0,1.21846967915e-07,0.0,0.0,0.0,1.21846967915e-07,-0.2941995,0.4314926,12.1994726,9e-08,0.0,0.0,0.0,9e-08,0.0,0.0,0.0,9e-08
1532134956212618416,4068,1532134956212267024,base_link,-0.171252346591,0.114850730033,0.462930196106,-0.862077477453,1.0,0.0,0.0,0.0,1.0,0.0,0.0,0.0,1.0,-0.671783983707,-0.172006905079,-0.289902865887,1.21846967915e-07,0.0,0.0,0.0,1.21846967915e-07,0.0,0.0,0.0,1.21846967915e-07,-0.42168595,-0.08825985,11.87585315,9e-08,0.0,0.0,0.0,9e-08,0.0,0.0,0.0,9e-08
1532134956585972496,4069,1532134956585521232,base_link,-0.0795064238908,0.0768053856929,0.50854815484,-0.853907744137,1.0,0.0,0.0,0.0,1.0,0.0,0.0,0.0,1.0,-0.419668376446,0.00370797491632,-0.136061564088,1.21846967915e-07,0.0,0.0,0.0,1.21846967915e-07,0.0,0.0,0.0,1.21846967915e-07,-0.4903325,-0.30400615,10.42446895,9e-08,0.0,0.0,0.0,9e-08,0.0,0.0,0.0,9e-08
1532134957070829744,4070,1532134957070527248,base_link,0.00287102000512,0.0177143906513,0.514563384749,-0.857264533667,1.0,0.0,0.0,0.0,1.0,0.0,0.0,0.0,1.0,-0.387884408236,0.0781979784369,0.0608750283718,1.21846967915e-07,0.0,0.0,0.0,1.21846967915e-07,0.0,0.0,0.0,1.21846967915e-07,-0.4314926,0.3138128,7.79628675,9e-08,0.0,0.0,0.0,9e-08,0.0,0.0,0.0,9e-08
1532134957491083152,4071,1532134957490519408,base_link,0.0566436132766,-0.0491755078906,0.505187762838,-0.859743330755,1.0,0.0,0.0,0.0,1.0,0.0,0.0,0.0,1.0,-0.380153149366,0.167890116572,0.114698208869,1.21846967915e-07,0.0,0.0,0.0,1.21846967915e-07,0.0,0.0,0.0,1.21846967915e-07,-0.16671305,0.46091255,6.83523505,9e-08,0.0,0.0,0.0,9e-08,0.0,0.0,0.0,9e-08
1532134957912933680,4072,1532134957909785680,base_link,0.062573669704,-0.089047719756,0.486715943085,-0.866754077125,1.0,0.0,0.0,0.0,1.0,0.0,0.0,0.0,1.0,0.13398770988,0.128923252225,0.175122275949,1.21846967915e-07,0.0,0.0,0.0,1.21846967915e-07,0.0,0.0,0.0,1.21846967915e-07,0.38245935,-0.0196133,8.1199062,9e-08,0.0,0.0,0.0,9e-08,0.0,0.0,0.0,9e-08
1532134958226426032,4073,1532134958225982224,base_link,0.0722319207142,-0.120386371375,0.455881517148,-0.878898010887,1.0,0.0,0.0,0.0,1.0,0.0,0.0,0.0,1.0,-0.338791042566,0.140620529652,0.182370319963,1.21846967915e-07,0.0,0.0,0.0,1.21846967915e-07,0.0,0.0,0.0,1.21846967915e-07,0.4118793,-0.1176798,7.44324735,9e-08,0.0,0.0,0.0,9e-08,0.0,0.0,0.0,9e-08
1532134958724557328,4074,1532134958723008208,base_link,0.0163458239706,-0.122322259724,0.425312159697,-0.89659335578,1.0,0.0,0.0,0.0,1.0,0.0,0.0,0.0,1.0,0.27346009016,0.0668018758297,0.112306319177,1.21846967915e-07,0.0,0.0,0.0,1.21846967915e-07,0.0,0.0,0.0,1.21846967915e-07,0.83356525,0.2549729,8.40429905,9e-08,0.0,0.0,0.0,9e-08,0.0,0.0,0.0,9e-08
1532134959115602864,4075,1532134959115211600,base_link,-0.0283137183057,-0.107822487541,0.42041062841,-0.900459631553,1.0,0.0,0.0,0.0,1.0,0.0,0.0,0.0,1.0,0.335097461939,-0.0315527580678,-0.0224043447524,1.21846967915e-07,0.0,0.0,0.0,1.21846967915e-07,0.0,0.0,0.0,1.21846967915e-07,1.3337044,0.08825985,8.22777935,9e-08,0.0,0.0,0.0,9e-08,0.0,0.0,0.0,9e-08
1532134959514396624,4076,1532134959513321264,base_link,-0.0605714295876,-0.0585363456636,0.426586266574,-0.900515827359,1.0,0.0,0.0,0.0,1.0,0.0,0.0,0.0,1.0,0.0946497991681,-0.224545255303,0.0486659780145,1.21846967915e-07,0.0,0.0,0.0,1.21846967915e-07,0.0,0.0,0.0,1.21846967915e-07,1.44157755,0.2353596,12.3171524,9e-08,0.0,0.0,0.0,9e-08,0.0,0.0,0.0,9e-08
1532134959874786512,4077,1532134959874088560,base_link,-0.0375136681587,-0.00876236961767,0.420018403912,-0.906697571385,1.0,0.0,0.0,0.0,1.0,0.0,0.0,0.0,1.0,-0.119634635746,-0.301288157701,0.0495404079556,1.21846967915e-07,0.0,0.0,0.0,1.21846967915e-07,0.0,0.0,0.0,1.21846967915e-07,0.99047165,0.40207265,14.91591465,9e-08,0.0,0.0,0.0,9e-08,0.0,0.0,0.0,9e-08
1532134960169172304,4078,1532134960168843472,base_link,-0.0135567079213,0.0226479654338,0.417949755971,-0.908086607552,1.0,0.0,0.0,0.0,1.0,0.0,0.0,0.0,1.0,0.0854858905077,-0.243048503995,-0.00522846681997,1.21846967915e-07,0.0,0.0,0.0,1.21846967915e-07,0.0,0.0,0.0,1.21846967915e-07,0.5295591,0.50013915,15.26895405,9e-08,0.0,0.0,0.0,9e-08,0.0,0.0,0.0,9e-08
1532134960675275280,4079,1532134960671272592,base_link,-0.0120763797338,0.0675996229341,0.437184014486,-0.89674666964,1.0,0.0,0.0,0.0,1.0,0.0,0.0,0.0,1.0,0.0453311875463,-0.120096005499,-0.115648120642,1.21846967915e-07,0.0,0.0,0.0,1.21846967915e-07,0.0,0.0,0.0,1.21846967915e-07,-0.1569064,0.4903325,12.7682583,9e-08,0.0,0.0,0.0,9e-08,0.0,0.0,0.0,9e-08
1532134961238433616,4080,1532134961237977104,base_link,-0.00269335808294,0.0830710759006,0.454654267232,-0.886781506042,1.0,0.0,0.0,0.0,1.0,0.0,0.0,0.0,1.0,0.0114410566166,-0.0204672440886,-0.0287509523332,1.21846967915e-07,0.0,0.0,0.0,1.21846967915e-07,0.0,0.0,0.0,1.21846967915e-07,-0.10787315,0.3530394,10.4735022,9e-08,0.0,0.0,0.0,9e-08,0.0,0.0,0.0,9e-08
1532134961502622864,4081,1532134961502234192,base_link,0.000621319099339,0.0793881666383,0.457426395094,-0.885696463825,1.0,0.0,0.0,0.0,1.0,0.0,0.0,0.0,1.0,-0.031194601208,0.0254375543445,-0.00906044151634,1.21846967915e-07,0.0,0.0,0.0,1.21846967915e-07,0.0,0.0,0.0,1.21846967915e-07,-0.0196133,0.02941995,9.01231135,9e-08,0.0,0.0,0.0,9e-08,0.0,0.0,0.0,9e-08
1532134961945371760,4082,1532134961944406512,base_link,0.0141527380089,0.0568516656624,0.464304846085,-0.883735592822,1.0,0.0,0.0,0.0,1.0,0.0,0.0,0.0,1.0,-0.109474182129,0.108170978725,-0.0320413075387,1.21846967915e-07,0.0,0.0,0.0,1.21846967915e-07,0.0,0.0,0.0,1.21846967915e-07,0.12748645,0.2745862,8.6886919,9e-08,0.0,0.0,0.0,9e-08,0.0,0.0,0.0,9e-08
1532134962244564528,4083,1532134962244091248,base_link,0.0107791148033,0.0444838376881,0.467847689372,-0.882623100999,1.0,0.0,0.0,0.0,1.0,0.0,0.0,0.0,1.0,0.105711393058,0.0926199182868,-0.0212853774428,1.21846967915e-07,0.0,0.0,0.0,1.21846967915e-07,0.0,0.0,0.0,1.21846967915e-07,0.26477955,-0.08825985,8.6886919,9e-08,0.0,0.0,0.0,9e-08,0.0,0.0,0.0,9e-08
1532134962635676720,4084,1532134962635361584,base_link,0.00806846508268,0.0243197858792,0.462828049495,-0.886077674071,1.0,0.0,0.0,0.0,1.0,0.0,0.0,0.0,1.0,-0.0976394936442,0.113133653998,0.0472217649221,1.21846967915e-07,0.0,0.0,0.0,1.21846967915e-07,0.0,0.0,0.0,1.21846967915e-07,0.22555295,0.2745862,7.71783355,9e-08,0.0,0.0,0.0,9e-08,0.0,0.0,0.0,9e-08
1532134963042456752,4085,1532134963041959472,base_link,0.016229700761,-0.00200110268008,0.462245642663,-0.886601126911,1.0,0.0,0.0,0.0,1.0,0.0,0.0,0.0,1.0,-0.0687230676413,0.0932013168931,0.00191832229029,1.21846967915e-07,0.0,0.0,0.0,1.21846967915e-07,0.0,0.0,0.0,1.21846967915e-07,0.2941995,0.2549729,7.81590005,9e-08,0.0,0.0,0.0,9e-08,0.0,0.0,0.0,9e-08
1532134963357833872,4086,1532134963357369008,base_link,0.0161704609252,-0.0180796798733,0.463709262338,-0.885655328777,1.0,0.0,0.0,0.0,1.0,0.0,0.0,0.0,1.0,-0.0741825252771,0.0670045465231,-0.00704748276621,1.21846967915e-07,0.0,0.0,0.0,1.21846967915e-07,0.0,0.0,0.0,1.21846967915e-07,0.50013915,0.0588399,9.09076455,9e-08,0.0,0.0,0.0,9e-08,0.0,0.0,0.0,9e-08
1532134963765057456,4087,1532134963764619024,base_link,-0.0099374136986,-0.0177585076743,0.457363570068,-0.889046932388,1.0,0.0,0.0,0.0,1.0,0.0,0.0,0.0,1.0,0.0643172189593,0.0180769339204,0.067500025034,1.21846967915e-07,0.0,0.0,0.0,1.21846967915e-07,0.0,0.0,0.0,1.21846967915e-07,0.51975245,0.26477955,8.44352565,9e-08,0.0,0.0,0.0,9e-08,0.0,0.0,0.0,9e-08
1532134964283647152,4088,1532134964282717936,base_link,-0.0186353293942,-0.0135400340737,0.451207159495,-0.892121903775,1.0,0.0,0.0,0.0,1.0,0.0,0.0,0.0,1.0,0.0434582680464,0.00993316434324,-0.0212523397058,1.21846967915e-07,0.0,0.0,0.0,1.21846967915e-07,0.0,0.0,0.0,1.21846967915e-07,0.6472389,0.40207265,9.67916355,9e-08,0.0,0.0,0.0,9e-08,0.0,0.0,0.0,9e-08
1532134964612635152,4089,1532134964611924784,base_link,-0.0158212091311,-0.00588812576846,0.454960268046,-0.890351713547,1.0,0.0,0.0,0.0,1.0,0.0,0.0,0.0,1.0,-0.0897354260087,-0.0723473653197,-0.0381011925638,1.21846967915e-07,0.0,0.0,0.0,1.21846967915e-07,0.0,0.0,0.0,1.21846967915e-07,0.85317855,0.4903325,11.58165365,9e-08,0.0,0.0,0.0,9e-08,0.0,0.0,0.0,9e-08
1532134964951438960,4090,1532134964951160336,base_link,0.00350974348614,-0.00132278857761,0.450849430534,-0.892592136935,1.0,0.0,0.0,0.0,1.0,0.0,0.0,0.0,1.0,-0.103146746755,-0.0675650537014,0.0529482886195,1.21846967915e-07,0.0,0.0,0.0,1.21846967915e-07,0.0,0.0,0.0,1.21846967915e-07,0.51975245,0.16671305,10.5323421,9e-08,0.0,0.0,0.0,9e-08,0.0,0.0,0.0,9e-08
1532134965465102128,4091,1532134965464871344,base_link,0.01471940934,0.0123151473856,0.439389429357,-0.898091646494,1.0,0.0,0.0,0.0,1.0,0.0,0.0,0.0,1.0,-0.069285787642,-0.0426365807652,0.0419987402856,1.21846967915e-07,0.0,0.0,0.0,1.21846967915e-07,0.0,0.0,0.0,1.21846967915e-07,0.55897905,0.2157463,11.0619012,9e-08,0.0,0.0,0.0,9e-08,0.0,0.0,0.0,9e-08
1532134965829447152,4092,1532134965827663056,base_link,0.0227960682903,0.0110853779044,0.439737944034,-0.897768341079,1.0,0.0,0.0,0.0,1.0,0.0,0.0,0.0,1.0,-0.0822892636061,0.0409804359078,-0.0392523258924,1.21846967915e-07,0.0,0.0,0.0,1.21846967915e-07,0.0,0.0,0.0,1.21846967915e-07,0.38245935,0.48052585,8.77695175,9e-08,0.0,0.0,0.0,9e-08,0.0,0.0,0.0,9e-08
1532134966191551824,4093,1532134966191242160,base_link,0.000660513250513,0.0156090424027,0.454036130847,-0.890846290559,1.0,0.0,0.0,0.0,1.0,0.0,0.0,0.0,1.0,0.148686632514,0.0222831647843,-0.0879510715604,1.21846967915e-07,0.0,0.0,0.0,1.21846967915e-07,0.0,0.0,0.0,1.21846967915e-07,0.6472389,0.3138128,8.58081875,9e-08,0.0,0.0,0.0,9e-08,0.0,0.0,0.0,9e-08
1532134966521386960,4094,1532134966521104080,base_link,-0.019847783122,0.0237331344768,0.462607238459,-0.886023333078,1.0,0.0,0.0,0.0,1.0,0.0,0.0,0.0,1.0,0.15753659606,0.0374278202653,-0.0309937428683,1.21846967915e-07,0.0,0.0,0.0,1.21846967915e-07,0.0,0.0,0.0,1.21846967915e-07,0.7649187,0.30400615,9.7870367,9e-08,0.0,0.0,0.0,9e-08,0.0,0.0,0.0,9e-08
1532134967106030256,4095,1532134967105754768,base_link,-0.0498419608978,0.037836477746,0.4613638298,-0.885001466913,1.0,0.0,0.0,0.0,1.0,0.0,0.0,0.0,1.0,0.136403769255,0.014726895839,-0.0278094895184,1.21846967915e-07,0.0,0.0,0.0,1.21846967915e-07,0.0,0.0,0.0,1.21846967915e-07,0.95124505,0.32361945,10.0812362,9e-08,0.0,0.0,0.0,9e-08,0.0,0.0,0.0,9e-08
1532134967480140720,4096,1532134967478941808,base_link,-0.0793488945682,0.0583439635923,0.464505326823,-0.880076437701,1.0,0.0,0.0,0.0,1.0,0.0,0.0,0.0,1.0,0.161514252424,-0.0417550057173,-0.0421535149217,1.21846967915e-07,0.0,0.0,0.0,1.21846967915e-07,0.0,0.0,0.0,1.21846967915e-07,0.7649187,0.5491724,9.3751574,9e-08,0.0,0.0,0.0,9e-08,0.0,0.0,0.0,9e-08
1532134967872502384,4097,1532134967871906320,base_link,-0.107030186295,0.0749931343057,0.4850048488,-0.864691196711,1.0,0.0,0.0,0.0,1.0,0.0,0.0,0.0,1.0,0.237203732133,-0.0458228811622,-0.20418253541,1.21846967915e-07,0.0,0.0,0.0,1.21846967915e-07,0.0,0.0,0.0,1.21846967915e-07,0.83356525,0.392266,10.1204628,9e-08,0.0,0.0,0.0,9e-08,0.0,0.0,0.0,9e-08
1532134968304790736,4098,1532134968304298448,base_link,-0.149662828736,0.113059195331,0.515674640243,-0.83600138843,1.0,0.0,0.0,0.0,1.0,0.0,0.0,0.0,1.0,0.220198512077,-0.0878103747964,-0.180330857635,1.21846967915e-07,0.0,0.0,0.0,1.21846967915e-07,0.0,0.0,0.0,1.21846967915e-07,0.7453054,0.4511059,11.13054775,9e-08,0.0,0.0,0.0,9e-08,0.0,0.0,0.0,9e-08
1532134968675952976,4099,1532134968674743728,base_link,-0.163993809662,0.142291751252,0.544334464913,-0.810283332067,1.0,0.0,0.0,0.0,1.0,0.0,0.0,0.0,1.0,0.118223391473,-0.143089368939,-0.214750796556,1.21846967915e-07,0.0,0.0,0.0,1.21846967915e-07,0.0,0.0,0.0,1.21846967915e-07,0.7060788,0.55897905,11.2384209,9e-08,0.0,0.0,0.0,9e-08,0.0,0.0,0.0,9e-08
1532134968998428464,4100,1532134968998004944,base_link,-0.179865792577,0.169022459507,0.573974631522,-0.780789873917,1.0,0.0,0.0,0.0,1.0,0.0,0.0,0.0,1.0,0.18223169446,-0.147005796432,-0.241320252419,1.21846967915e-07,0.0,0.0,0.0,1.21846967915e-07,0.0,0.0,0.0,1.21846967915e-07,0.63743225,0.48052585,10.64021525,9e-08,0.0,0.0,0.0,9e-08,0.0,0.0,0.0,9e-08
1532134969359144432,4101,1532134969358715440,base_link,-0.19009697328,0.195892946925,0.611901630405,-0.742337853543,1.0,0.0,0.0,0.0,1.0,0.0,0.0,0.0,1.0,0.116390272975,-0.164559796453,-0.296696484089,1.21846967915e-07,0.0,0.0,0.0,1.21846967915e-07,0.0,0.0,0.0,1.21846967915e-07,0.63743225,0.57859235,10.0812362,9e-08,0.0,0.0,0.0,9e-08,0.0,0.0,0.0,9e-08
1532134969703689968,4102,1532134969698746096,base_link,-0.194020640551,0.217531218632,0.656538798791,-0.69569602963,1.0,0.0,0.0,0.0,1.0,0.0,0.0,0.0,1.0,0.0175584126264,-0.17770203948,-0.327319741249,1.21846967915e-07,0.0,0.0,0.0,1.21846967915e-07,0.0,0.0,0.0,1.21846967915e-07,0.73549875,0.5491724,10.38524235,9e-08,0.0,0.0,0.0,9e-08,0.0,0.0,0.0,9e-08
1532134970015944208,4103,1532134970015677776,base_link,0.195512605498,-0.238874559037,-0.695996148606,0.648307895418,1.0,0.0,0.0,0.0,1.0,0.0,0.0,0.0,1.0,0.169432610273,-0.214975550771,-0.351429611444,1.21846967915e-07,0.0,0.0,0.0,1.21846967915e-07,0.0,0.0,0.0,1.21846967915e-07,0.6276256,0.61781895,9.9243298,9e-08,0.0,0.0,0.0,9e-08,0.0,0.0,0.0,9e-08
1532134970396194032,4104,1532134970395740528,base_link,0.184366511729,-0.26808062396,-0.74099449418,0.587425678708,1.0,0.0,0.0,0.0,1.0,0.0,0.0,0.0,1.0,-0.0780879110098,-0.300209730864,-0.300453990698,1.21846967915e-07,0.0,0.0,0.0,1.21846967915e-07,0.0,0.0,0.0,1.21846967915e-07,0.89240515,0.6276256,11.1011278,9e-08,0.0,0.0,0.0,9e-08,0.0,0.0,0.0,9e-08
1532134970804198000,4105,1532134970803836112,base_link,0.140564948224,-0.272429885868,-0.790632595296,0.530022218282,1.0,0.0,0.0,0.0,1.0,0.0,0.0,0.0,1.0,-0.0859753191471,-0.291838794947,-0.308126777411,1.21846967915e-07,0.0,0.0,0.0,1.21846967915e-07,0.0,0.0,0.0,1.21846967915e-07,1.02969825,0.6472389,12.1994726,9e-08,0.0,0.0,0.0,9e-08,0.0,0.0,0.0,9e-08
1532134971217706288,4106,1532134971217473712,base_link,0.0991177899488,-0.281944664049,-0.837180198436,0.458052601211,1.0,0.0,0.0,0.0,1.0,0.0,0.0,0.0,1.0,-0.145981565118,-0.280794292688,-0.307375431061,1.21846967915e-07,0.0,0.0,0.0,1.21846967915e-07,0.0,0.0,0.0,1.21846967915e-07,0.93163175,0.69627215,12.4544455,9e-08,0.0,0.0,0.0,9e-08,0.0,0.0,0.0,9e-08
1532134971681390608,4107,1532134971680557328,base_link,0.0618158512056,-0.294230394735,-0.876040430876,0.377041693747,1.0,0.0,0.0,0.0,1.0,0.0,0.0,0.0,1.0,-0.0104646328837,-0.281955987215,-0.294704258442,1.21846967915e-07,0.0,0.0,0.0,1.21846967915e-07,0.0,0.0,0.0,1.21846967915e-07,0.9022118,0.5099458,12.48386545,9e-08,0.0,0.0,0.0,9e-08,0.0,0.0,0.0,9e-08
1532134972048034320,4108,1532134972047033360,base_link,0.0286170649758,-0.288203289296,-0.901891648659,0.320486164615,1.0,0.0,0.0,0.0,1.0,0.0,0.0,0.0,1.0,-0.121691718698,-0.200034961104,-0.270110338926,1.21846967915e-07,0.0,0.0,0.0,1.21846967915e-07,0.0,0.0,0.0,1.21846967915e-07,0.9218251,0.61781895,11.1207411,9e-08,0.0,0.0,0.0,9e-08,0.0,0.0,0.0,9e-08
1532134972484866512,4109,1532134972483767856,base_link,-0.00401594042587,-0.261235884517,-0.930036803623,0.258401294057,1.0,0.0,0.0,0.0,1.0,0.0,0.0,0.0,1.0,-0.25644621253,-0.153079196811,-0.267958074808,1.21846967915e-07,0.0,0.0,0.0,1.21846967915e-07,0.0,0.0,0.0,1.21846967915e-07,1.0395049,0.6668522,11.0815145,9e-08,0.0,0.0,0.0,9e-08,0.0,0.0,0.0,9e-08
1532134972910004976,4110,1532134972909679536,base_link,-0.0324117323501,-0.210454853,-0.957830549284,0.1929219358,1.0,0.0,0.0,0.0,1.0,0.0,0.0,0.0,1.0,-0.259745121002,-0.12928403914,-0.273422509432,1.21846967915e-07,0.0,0.0,0.0,1.21846967915e-07,0.0,0.0,0.0,1.21846967915e-07,1.372931,0.59820565,10.7677017,9e-08,0.0,0.0,0.0,9e-08,0.0,0.0,0.0,9e-08
1532134973187193808,4111,1532134973186724176,base_link,-0.0457244661002,-0.176631040683,-0.971282950642,0.152709457661,1.0,0.0,0.0,0.0,1.0,0.0,0.0,0.0,1.0,-0.297595322132,-0.0915254727006,-0.226640015841,1.21846967915e-07,0.0,0.0,0.0,1.21846967915e-07,0.0,0.0,0.0,1.21846967915e-07,1.1179581,0.392266,10.6500219,9e-08,0.0,0.0,0.0,9e-08,0.0,0.0,0.0,9e-08
1532134973515913168,4112,1532134973515501360,base_link,-0.0598551522132,-0.13117859878,-0.981974986647,0.122207453025,1.0,0.0,0.0,0.0,1.0,0.0,0.0,0.0,1.0,-0.362135589123,-0.0387962311506,-0.10876147449,1.21846967915e-07,0.0,0.0,0.0,1.21846967915e-07,0.0,0.0,0.0,1.21846967915e-07,1.18660465,0.36284605,9.4339973,9e-08,0.0,0.0,0.0,9e-08,0.0,0.0,0.0,9e-08
1532134974035804016,4113,1532134974033247184,base_link,-0.0736898342959,-0.0488555474413,-0.992113664392,0.0888449251886,1.0,0.0,0.0,0.0,1.0,0.0,0.0,0.0,1.0,-0.33936175704,0.00206854450516,-0.0730332806706,1.21846967915e-07,0.0,0.0,0.0,1.21846967915e-07,0.0,0.0,0.0,1.21846967915e-07,1.40235095,0.3138128,10.5519554,9e-08,0.0,0.0,0.0,9e-08,0.0,0.0,0.0,9e-08
1532134974464574256,4114,1532134974463875152,base_link,-0.0767503933624,0.0100823111391,-0.99378826423,0.0799537991551,1.0,0.0,0.0,0.0,1.0,0.0,0.0,0.0,1.0,-0.259330093861,0.031533960253,0.0341561809182,1.21846967915e-07,0.0,0.0,0.0,1.21846967915e-07,0.0,0.0,0.0,1.21846967915e-07,1.44157755,0.20593965,8.58081875,9e-08,0.0,0.0,0.0,9e-08,0.0,0.0,0.0,9e-08
1532134974902519728,4115,1532134974902185616,base_link,-0.0731366865504,0.0398688825171,-0.992755223849,0.0865942423431,1.0,0.0,0.0,0.0,1.0,0.0,0.0,0.0,1.0,0.0159428715706,0.0325817987323,0.0552565604448,1.21846967915e-07,0.0,0.0,0.0,1.21846967915e-07,0.0,0.0,0.0,1.21846967915e-07,1.6867438,0.24516625,9.44380395,9e-08,0.0,0.0,0.0,9e-08,0.0,0.0,0.0,9e-08
1532134975355594544,4116,1532134975355253936,base_link,-0.067713277342,0.0466808166403,-0.990342536579,0.111613053318,1.0,0.0,0.0,0.0,1.0,0.0,0.0,0.0,1.0,-0.0985331982374,0.0397633872926,0.155346363783,1.21846967915e-07,0.0,0.0,0.0,1.21846967915e-07,0.0,0.0,0.0,1.21846967915e-07,1.7455837,0.22555295,8.60043205,9e-08,0.0,0.0,0.0,9e-08,0.0,0.0,0.0,9e-08
1532134975692995216,4117,1532134975692613904,base_link,-0.063561728724,0.0637211288738,-0.987270701581,0.131133848327,1.0,0.0,0.0,0.0,1.0,0.0,0.0,0.0,1.0,-0.106275968254,0.0818189829588,0.0626056343317,1.21846967915e-07,0.0,0.0,0.0,1.21846967915e-07,0.0,0.0,0.0,1.21846967915e-07,2.16726965,0.48052585,9.0417313,9e-08,0.0,0.0,0.0,9e-08,0.0,0.0,0.0,9e-08
1532134976197758640,4118,1532134976197024848,base_link,-0.0587996151225,0.0507810538608,-0.98488364559,0.154816324978,1.0,0.0,0.0,0.0,1.0,0.0,0.0,0.0,1.0,0.183843389153,0.012911863625,0.107522107661,1.21846967915e-07,0.0,0.0,0.0,1.21846967915e-07,0.0,0.0,0.0,1.21846967915e-07,1.87307015,0.4118793,9.24767095,9e-08,0.0,0.0,0.0,9e-08,0.0,0.0,0.0,9e-08
1532134976682222704,4119,1532134976681832816,base_link,-0.052453170622,0.00778457190587,-0.981766320262,0.182545768868,1.0,0.0,0.0,0.0,1.0,0.0,0.0,0.0,1.0,0.123693212867,-0.0114672258496,0.0652335435152,1.21846967915e-07,0.0,0.0,0.0,1.21846967915e-07,0.0,0.0,0.0,1.21846967915e-07,2.14765635,0.28439285,9.42419065,9e-08,0.0,0.0,0.0,9e-08,0.0,0.0,0.0,9e-08
1532134977075183088,4120,1532134977074803280,base_link,-0.045211248205,-0.0347045651875,-0.980742478229,0.186803981725,1.0,0.0,0.0,0.0,1.0,0.0,0.0,0.0,1.0,0.259733527899,-0.01451732032,-0.021159760654,1.21846967915e-07,0.0,0.0,0.0,1.21846967915e-07,0.0,0.0,0.0,1.21846967915e-07,1.7063571,0.3530394,8.7475318,9e-08,0.0,0.0,0.0,9e-08,0.0,0.0,0.0,9e-08
1532134977393057008,4121,1532134977392073616,base_link,-0.0475186291981,-0.0657121790577,-0.977874663728,0.192834207137,1.0,0.0,0.0,0.0,1.0,0.0,0.0,0.0,1.0,0.10084528476,-0.0605471096933,0.0483389385045,1.21846967915e-07,0.0,0.0,0.0,1.21846967915e-07,0.0,0.0,0.0,1.21846967915e-07,2.01036325,0.3530394,10.1400761,9e-08,0.0,0.0,0.0,9e-08,0.0,0.0,0.0,9e-08
1532134977846374608,4122,1532134977845218800,base_link,-0.0625698078385,-0.09654794501,-0.974820858119,0.191017821257,1.0,0.0,0.0,0.0,1.0,0.0,0.0,0.0,1.0,0.168946787715,-0.0392503663898,-0.00761075876653,1.21846967915e-07,0.0,0.0,0.0,1.21846967915e-07,0.0,0.0,0.0,1.21846967915e-07,1.6867438,0.48052585,10.4146623,9e-08,0.0,0.0,0.0,9e-08,0.0,0.0,0.0,9e-08
1532134978192539696,4123,1532134978192163120,base_link,-0.0527484113562,-0.109273403652,-0.978200337677,0.168526044639,1.0,0.0,0.0,0.0,1.0,0.0,0.0,0.0,1.0,-0.0393157862127,0.0665832161903,-0.284696340561,1.21846967915e-07,0.0,0.0,0.0,1.21846967915e-07,0.0,0.0,0.0,1.21846967915e-07,1.30428445,1.32389775,9.80665,9e-08,0.0,0.0,0.0,9e-08,0.0,0.0,0.0,9e-08
1532134978571393936,4124,1532134978571035248,base_link,-0.03428200767,-0.116310055833,-0.987169365982,0.103891085898,1.0,0.0,0.0,0.0,1.0,0.0,0.0,0.0,1.0,-0.100738182664,-0.00874671433121,-0.288258314133,1.21846967915e-07,0.0,0.0,0.0,1.21846967915e-07,0.0,0.0,0.0,1.21846967915e-07,1.5494507,0.55897905,9.7870367,9e-08,0.0,0.0,0.0,9e-08,0.0,0.0,0.0,9e-08
1532134979023494416,4125,1532134979023238864,base_link,-0.0360620047237,-0.117615061444,-0.990424649966,0.0626517507864,1.0,0.0,0.0,0.0,1.0,0.0,0.0,0.0,1.0,-0.0956007540226,-0.00624270737171,-0.151724129915,1.21846967915e-07,0.0,0.0,0.0,1.21846967915e-07,0.0,0.0,0.0,1.21846967915e-07,1.1179581,0.6276256,8.75733845,9e-08,0.0,0.0,0.0,9e-08,0.0,0.0,0.0,9e-08
1532134979547169968,4126,1532134979545485168,base_link,-0.0458457188574,-0.0611280897821,-0.996776885116,0.0244411129186,1.0,0.0,0.0,0.0,1.0,0.0,0.0,0.0,1.0,-0.240619242191,-0.0812887474895,-0.097050011158,1.21846967915e-07,0.0,0.0,0.0,1.21846967915e-07,0.0,0.0,0.0,1.21846967915e-07,1.61809725,0.3530394,11.24822755,9e-08,0.0,0.0,0.0,9e-08,0.0,0.0,0.0,9e-08
1532134979874023728,4127,1532134979873787440,base_link,-0.0603937787294,-0.0274994558062,-0.997722299739,0.0121071889609,1.0,0.0,0.0,0.0,1.0,0.0,0.0,0.0,1.0,-0.199887678027,-0.0849351063371,-0.0538810901344,1.21846967915e-07,0.0,0.0,0.0,1.21846967915e-07,0.0,0.0,0.0,1.21846967915e-07,1.28467115,0.32361945,11.1991943,9e-08,0.0,0.0,0.0,9e-08,0.0,0.0,0.0,9e-08
1532134980294649456,4128,1532134980294407536,base_link,-0.0750099991138,-0.00472046954061,-0.997054086676,0.0153089987343,1.0,0.0,0.0,0.0,1.0,0.0,0.0,0.0,1.0,-0.0969921723008,-0.0355782881379,0.0575243011117,1.21846967915e-07,0.0,0.0,0.0,1.21846967915e-07,0.0,0.0,0.0,1.21846967915e-07,1.0787315,0.18632635,10.30678915,9e-08,0.0,0.0,0.0,9e-08,0.0,0.0,0.0,9e-08
1532134980644603632,4129,1532134980644207504,base_link,-0.0770387673834,0.0210058552529,-0.996419562008,0.027781987204,1.0,0.0,0.0,0.0,1.0,0.0,0.0,0.0,1.0,-0.230990827084,0.0229991748929,0.0754081085324,1.21846967915e-07,0.0,0.0,0.0,1.21846967915e-07,0.0,0.0,0.0,1.21846967915e-07,1.0591182,0.2941995,9.42419065,9e-08,0.0,0.0,0.0,9e-08,0.0,0.0,0.0,9e-08
1532134980976026608,4130,1532134980975786896,base_link,-0.0667621778171,0.041898435468,-0.996261012375,0.0353741139725,1.0,0.0,0.0,0.0,1.0,0.0,0.0,0.0,1.0,0.0239319074899,0.090235568583,0.034475389868,1.21846967915e-07,0.0,0.0,0.0,1.21846967915e-07,0.0,0.0,0.0,1.21846967915e-07,1.0591182,0.1176798,8.48275225,9e-08,0.0,0.0,0.0,9e-08,0.0,0.0,0.0,9e-08
1532134981196072752,4131,1532134981195855024,base_link,-0.0579056853459,0.0432077536204,-0.996561190488,0.0405686485496,1.0,0.0,0.0,0.0,1.0,0.0,0.0,0.0,1.0,-0.0132902693003,0.0820879042149,0.0546835772693,1.21846967915e-07,0.0,0.0,0.0,1.21846967915e-07,0.0,0.0,0.0,1.21846967915e-07,1.08853815,0.34323275,8.6886919,9e-08,0.0,0.0,0.0,9e-08,0.0,0.0,0.0,9e-08
1532134981638719152,4132,1532134981635047920,base_link,-0.0384518768381,0.0375579565651,-0.99704643371,0.0548567415392,1.0,0.0,0.0,0.0,1.0,0.0,0.0,0.0,1.0,0.0788141563535,0.0760394185781,0.0636661723256,1.21846967915e-07,0.0,0.0,0.0,1.21846967915e-07,0.0,0.0,0.0,1.21846967915e-07,1.2552512,0.30400615,8.5317855,9e-08,0.0,0.0,0.0,9e-08,0.0,0.0,0.0,9e-08
1532134981941351920,4133,1532134981941088496,base_link,-0.0262569325256,0.0237072503058,-0.997035041876,0.0683349474872,1.0,0.0,0.0,0.0,1.0,0.0,0.0,0.0,1.0,0.113002307713,0.0504474490881,0.106662489474,1.21846967915e-07,0.0,0.0,0.0,1.21846967915e-07,0.0,0.0,0.0,1.21846967915e-07,1.3140911,0.34323275,9.24767095,9e-08,0.0,0.0,0.0,9e-08,0.0,0.0,0.0,9e-08
1532134982249660656,4134,1532134982249338704,base_link,-0.0167861044763,0.0134324836492,-0.996222622102,0.0841325281456,1.0,0.0,0.0,0.0,1.0,0.0,0.0,0.0,1.0,0.111156843603,0.0754014477134,0.0825731530786,1.21846967915e-07,0.0,0.0,0.0,1.21846967915e-07,0.0,0.0,0.0,1.21846967915e-07,1.12776475,0.48052585,8.6494653,9e-08,0.0,0.0,0.0,9e-08,0.0,0.0,0.0,9e-08
1532134982674110544,4135,1532134982673403248,base_link,-0.00572185317294,-0.00706232411093,-0.995485257416,0.0944800838392,1.0,0.0,0.0,0.0,1.0,0.0,0.0,0.0,1.0,0.037540987134,0.0352902673185,0.0248984955251,1.21846967915e-07,0.0,0.0,0.0,1.21846967915e-07,0.0,0.0,0.0,1.21846967915e-07,1.08853815,0.3334261,9.07115125,9e-08,0.0,0.0,0.0,9e-08,0.0,0.0,0.0,9e-08
1532134983035022160,4136,1532134983034696336,base_link,0.00553361370523,-0.0201501645948,-0.995498774831,0.0924420861764,1.0,0.0,0.0,0.0,1.0,0.0,0.0,0.0,1.0,0.147488370538,0.0543235987425,-0.0702652484179,1.21846967915e-07,0.0,0.0,0.0,1.21846967915e-07,0.0,0.0,0.0,1.21846967915e-07,0.69627215,0.4314926,8.1395195,9e-08,0.0,0.0,0.0,9e-08,0.0,0.0,0.0,9e-08
1532134983461808816,4137,1532134983457194480,base_link,0.0108455909772,-0.053952994407,-0.99547915255,0.0774125596332,1.0,0.0,0.0,0.0,1.0,0.0,0.0,0.0,1.0,-0.00411780038849,-0.0131249167025,-0.0645947828889,1.21846967915e-07,0.0,0.0,0.0,1.21846967915e-07,0.0,0.0,0.0,1.21846967915e-07,1.0787315,0.53936575,10.002783,9e-08,0.0,0.0,0.0,9e-08,0.0,0.0,0.0,9e-08
1532134983897653552,4138,1532134983896235664,base_link,0.00336674698431,-0.0664096087641,-0.995523453932,0.0671675632322,1.0,0.0,0.0,0.0,1.0,0.0,0.0,0.0,1.0,-0.214412197471,-0.033278785646,0.0170099455863,1.21846967915e-07,0.0,0.0,0.0,1.21846967915e-07,0.0,0.0,0.0,1.21846967915e-07,0.9610517,0.3530394,10.09104285,9e-08,0.0,0.0,0.0,9e-08,0.0,0.0,0.0,9e-08
1532134984148663088,4139,1532134984147703184,base_link,-0.00118655956274,-0.0523721712165,-0.996422254352,0.0663207267004,1.0,0.0,0.0,0.0,1.0,0.0,0.0,0.0,1.0,-0.0246566012502,-0.0206344593316,-0.0455177202821,1.21846967915e-07,0.0,0.0,0.0,1.21846967915e-07,0.0,0.0,0.0,1.21846967915e-07,0.8629852,0.392266,9.3555441,9e-08,0.0,0.0,0.0,9e-08,0.0,0.0,0.0,9e-08
1532134984637688912,4140,1532134984636025232,base_link,-0.00947434135025,-0.035264466168,-0.99768934727,0.0572941587472,1.0,0.0,0.0,0.0,1.0,0.0,0.0,0.0,1.0,-0.115633912385,-0.0304945874959,-0.0393786802888,1.21846967915e-07,0.0,0.0,0.0,1.21846967915e-07,0.0,0.0,0.0,1.21846967915e-07,0.97085835,0.42168595,10.14988275,9e-08,0.0,0.0,0.0,9e-08,0.0,0.0,0.0,9e-08
1532134984981271152,4141,1532134984980922064,base_link,-0.0183454731837,-0.025278798852,-0.998252636651,0.0501607352619,1.0,0.0,0.0,0.0,1.0,0.0,0.0,0.0,1.0,-0.0672522932291,-0.0490708239377,-0.0428740531206,1.21846967915e-07,0.0,0.0,0.0,1.21846967915e-07,0.0,0.0,0.0,1.21846967915e-07,0.95124505,0.32361945,10.7088618,9e-08,0.0,0.0,0.0,9e-08,0.0,0.0,0.0,9e-08
1532134985376189968,4142,1532134985375853232,base_link,-0.0293754178526,-0.0142726945667,-0.998547161269,0.0428595583037,1.0,0.0,0.0,0.0,1.0,0.0,0.0,0.0,1.0,-0.124377511442,-0.0305337551981,-0.0346839055419,1.21846967915e-07,0.0,0.0,0.0,1.21846967915e-07,0.0,0.0,0.0,1.21846967915e-07,1.02969825,0.4118793,10.89518815,9e-08,0.0,0.0,0.0,9e-08,0.0,0.0,0.0,9e-08
1532134985731468368,4143,1532134985731179024,base_link,-0.0349085544218,-0.0107690542791,-0.998526912559,0.0401176419203,1.0,0.0,0.0,0.0,1.0,0.0,0.0,0.0,1.0,-0.0370360463858,-0.00856552552432,0.0138229150325,1.21846967915e-07,0.0,0.0,0.0,1.21846967915e-07,0.0,0.0,0.0,1.21846967915e-07,0.7649187,0.36284605,10.0812362,9e-08,0.0,0.0,0.0,9e-08,0.0,0.0,0.0,9e-08
1532134986075018352,4144,1532134986074705296,base_link,-0.0341731839843,-0.0087762735059,-0.998360513206,0.0450716783655,1.0,0.0,0.0,0.0,1.0,0.0,0.0,0.0,1.0,0.0357252433896,0.00687594432384,0.0165813360363,1.21846967915e-07,0.0,0.0,0.0,1.21846967915e-07,0.0,0.0,0.0,1.21846967915e-07,0.89240515,0.1372931,9.8851032,9e-08,0.0,0.0,0.0,9e-08,0.0,0.0,0.0,9e-08
1532134986416893712,4145,1532134986416382640,base_link,-0.0340502874228,-0.00441027281862,-0.997863285956,0.055587678139,1.0,0.0,0.0,0.0,1.0,0.0,0.0,0.0,1.0,0.0749619826674,0.0142383053899,0.0482738576829,1.21846967915e-07,0.0,0.0,0.0,1.21846967915e-07,0.0,0.0,0.0,1.21846967915e-07,0.83356525,0.4707192,9.81645665,9e-08,0.0,0.0,0.0,9e-08,0.0,0.0,0.0,9e-08
1532134986789326512,4146,1532134986788914960,base_link,-0.0267747898919,-0.0262263951028,-0.997436943691,0.0609494067707,1.0,0.0,0.0,0.0,1.0,0.0,0.0,0.0,1.0,0.0298202671111,0.046996973455,-0.00803667213768,1.21846967915e-07,0.0,0.0,0.0,1.21846967915e-07,0.0,0.0,0.0,1.21846967915e-07,0.83356525,0.3334261,8.3748791,9e-08,0.0,0.0,0.0,9e-08,0.0,0.0,0.0,9e-08
1532134987142497488,4147,1532134987142104912,base_link,-0.0227635117365,-0.035089309433,-0.997281010591,0.0606724716121,1.0,0.0,0.0,0.0,1.0,0.0,0.0,0.0,1.0,-0.0126893930137,0.0132433995605,-0.00281226448715,1.21846967915e-07,0.0,0.0,0.0,1.21846967915e-07,0.0,0.0,0.0,1.21846967915e-07,1.01008495,0.5295591,9.610517,9e-08,0.0,0.0,0.0,9e-08,0.0,0.0,0.0,9e-08
1532134987639664240,4148,1532134987639318736,base_link,-0.0208808587424,-0.0313640996875,-0.997414857283,0.0611872981879,1.0,0.0,0.0,0.0,1.0,0.0,0.0,0.0,1.0,0.00366165209562,-0.00946152582765,0.0318363122642,1.21846967915e-07,0.0,0.0,0.0,1.21846967915e-07,0.0,0.0,0.0,1.21846967915e-07,0.77472535,0.2549729,9.97336305,9e-08,0.0,0.0,0.0,9e-08,0.0,0.0,0.0,9e-08
1532134987970634064,4149,1532134987969718480,base_link,-0.0221073968771,-0.0199373546414,-0.997317645915,0.0668676157805,1.0,0.0,0.0,0.0,1.0,0.0,0.0,0.0,1.0,-0.0310240667313,0.0303210671991,0.0268903523684,1.21846967915e-07,0.0,0.0,0.0,1.21846967915e-07,0.0,0.0,0.0,1.21846967915e-07,0.6668522,0.42168595,9.11037785,9e-08,0.0,0.0,0.0,9e-08,0.0,0.0,0.0,9e-08
1532134988418491120,4150,1532134988418035472,base_link,-0.0207995589715,-0.0110963642359,-0.997402773779,0.0680584741649,1.0,0.0,0.0,0.0,1.0,0.0,0.0,0.0,1.0,0.0859922394156,-0.00195841793902,-0.00653332471848,1.21846967915e-07,0.0,0.0,0.0,1.21846967915e-07,0.0,0.0,0.0,1.21846967915e-07,0.69627215,0.2353596,9.73800345,9e-08,0.0,0.0,0.0,9e-08,0.0,0.0,0.0,9e-08
1532134988847375760,4151,1532134988843036496,base_link,-0.0203383921887,-0.0128092897252,-0.997004279876,0.0735169219196,1.0,0.0,0.0,0.0,1.0,0.0,0.0,0.0,1.0,-0.0270122010261,0.0121898362413,0.0216692239046,1.21846967915e-07,0.0,0.0,0.0,1.21846967915e-07,0.0,0.0,0.0,1.21846967915e-07,0.8433719,0.3530394,9.7085835,9e-08,0.0,0.0,0.0,9e-08,0.0,0.0,0.0,9e-08
1532134989276172688,4152,1532134989275944432,base_link,-0.0135588928487,-0.0127463254602,-0.997425860765,0.0692483926762,1.0,0.0,0.0,0.0,1.0,0.0,0.0,0.0,1.0,0.0044349017553,0.020374128595,-0.0383742749691,1.21846967915e-07,0.0,0.0,0.0,1.21846967915e-07,0.0,0.0,0.0,1.21846967915e-07,0.7060788,0.4511059,9.1397978,9e-08,0.0,0.0,0.0,9e-08,0.0,0.0,0.0,9e-08
1532134989715073328,4153,1532134989714764496,base_link,-0.0152537164839,-0.000645554059627,-0.997696437684,0.0660963359572,1.0,0.0,0.0,0.0,1.0,0.0,0.0,0.0,1.0,-0.0600093826652,-0.0183657091111,0.016282139346,1.21846967915e-07,0.0,0.0,0.0,1.21846967915e-07,0.0,0.0,0.0,1.21846967915e-07,1.01008495,0.12748645,10.07142955,9e-08,0.0,0.0,0.0,9e-08,0.0,0.0,0.0,9e-08
1532134990120190800,4154,1532134990116727664,base_link,-0.0214971759466,0.0169459391351,-0.996503611024,0.0789383290213,1.0,0.0,0.0,0.0,1.0,0.0,0.0,0.0,1.0,-0.0207599215209,-0.0340469405055,0.0684514865279,1.21846967915e-07,0.0,0.0,0.0,1.21846967915e-07,0.0,0.0,0.0,1.21846967915e-07,0.97085835,0.36284605,10.6107953,9e-08,0.0,0.0,0.0,9e-08,0.0,0.0,0.0,9e-08
1532134990564180496,4155,1532134990563537136,base_link,-0.0332079878447,0.00254290751226,-0.994708726002,0.0971870031453,1.0,0.0,0.0,0.0,1.0,0.0,0.0,0.0,1.0,0.0133079495281,-0.0431387014687,0.0953262597322,1.21846967915e-07,0.0,0.0,0.0,1.21846967915e-07,0.0,0.0,0.0,1.21846967915e-07,1.1571847,0.0980665,10.9049948,9e-08,0.0,0.0,0.0,9e-08,0.0,0.0,0.0,9e-08
1532134990952274960,4156,1532134990951848656,base_link,-0.0336386280016,0.00295092590521,-0.992524000078,0.117285310295,1.0,0.0,0.0,0.0,1.0,0.0,0.0,0.0,1.0,0.0212968736887,0.106974668801,-0.0551824234426,1.21846967915e-07,0.0,0.0,0.0,1.21846967915e-07,0.0,0.0,0.0,1.21846967915e-07,0.63743225,1.1571847,9.26728425,9e-08,0.0,0.0,0.0,9e-08,0.0,0.0,0.0,9e-08
1532134991289319600,4157,1532134991288333328,base_link,-0.0138221641187,-0.0151632402163,-0.995970072887,0.0873077192352,1.0,0.0,0.0,0.0,1.0,0.0,0.0,0.0,1.0,0.166937202215,0.101244360209,-0.237319990993,1.21846967915e-07,0.0,0.0,0.0,1.21846967915e-07,0.0,0.0,0.0,1.21846967915e-07,0.4903325,0.1765197,6.9038816,9e-08,0.0,0.0,0.0,9e-08,0.0,0.0,0.0,9e-08
1532134991743661584,4158,1532134991743262256,base_link,-0.00961340103251,-0.0564200265822,-0.996334471291,0.0635766029158,1.0,0.0,0.0,0.0,1.0,0.0,0.0,0.0,1.0,0.133460208774,-0.0389709547162,0.0326519608498,1.21846967915e-07,0.0,0.0,0.0,1.21846967915e-07,0.0,0.0,0.0,1.21846967915e-07,0.73549875,0.2353596,10.18910935,9e-08,0.0,0.0,0.0,9e-08,0.0,0.0,0.0,9e-08
1532134992173831216,4159,1532134992173439920,base_link,-0.0207966860024,-0.0515631068047,-0.995755432867,0.0733475410824,1.0,0.0,0.0,0.0,1.0,0.0,0.0,0.0,1.0,-0.0375061258674,-0.0179820917547,-0.0094598652795,1.21846967915e-07,0.0,0.0,0.0,1.21846967915e-07,0.0,0.0,0.0,1.21846967915e-07,0.61781895,0.4903325,10.3558224,9e-08,0.0,0.0,0.0,9e-08,0.0,0.0,0.0,9e-08
1532134992477112368,4160,1532134992474661296,base_link,-0.0207008536678,-0.0501087404724,-0.9963326775,0.0661950491443,1.0,0.0,0.0,0.0,1.0,0.0,0.0,0.0,1.0,-0.0187901295722,-0.00652878731489,-0.102444179356,1.21846967915e-07,0.0,0.0,0.0,1.21846967915e-07,0.0,0.0,0.0,1.21846967915e-07,0.4118793,0.24516625,9.07115125,9e-08,0.0,0.0,0.0,9e-08,0.0,0.0,0.0,9e-08
1532134992949871856,4161,1532134992948915760,base_link,-0.0259513443571,-0.0262439870568,-0.997747010282,0.0560239622127,1.0,0.0,0.0,0.0,1.0,0.0,0.0,0.0,1.0,-0.177180290222,-0.035547837615,0.00978892017156,1.21846967915e-07,0.0,0.0,0.0,1.21846967915e-07,0.0,0.0,0.0,1.21846967915e-07,0.4903325,0.00980665,9.42419065,9e-08,0.0,0.0,0.0,9e-08,0.0,0.0,0.0,9e-08
1532134993309861584,4162,1532134993309263088,base_link,-0.0344851595281,-0.0242555855821,-0.996883281116,0.0666795633732,1.0,0.0,0.0,0.0,1.0,0.0,0.0,0.0,1.0,-0.0191108454019,-0.0429714024067,0.083069011569,1.21846967915e-07,0.0,0.0,0.0,1.21846967915e-07,0.0,0.0,0.0,1.21846967915e-07,0.5687857,0.28439285,10.591182,9e-08,0.0,0.0,0.0,9e-08,0.0,0.0,0.0,9e-08
1532134993679760656,4163,1532134993679223696,base_link,-0.0451918641717,0.000715554198379,-0.996029024819,0.076703097155,1.0,0.0,0.0,0.0,1.0,0.0,0.0,0.0,1.0,-0.0275898016989,-0.0138391032815,0.0276332069188,1.21846967915e-07,0.0,0.0,0.0,1.21846967915e-07,0.0,0.0,0.0,1.21846967915e-07,0.83356525,0.08825985,11.3364874,9e-08,0.0,0.0,0.0,9e-08,0.0,0.0,0.0,9e-08
1532134994181930928,4164,1532134994181361232,base_link,-0.0421706653361,-0.036608769965,-0.994740662109,0.0858629611232,1.0,0.0,0.0,0.0,1.0,0.0,0.0,0.0,1.0,0.297630727291,0.0278904214501,-0.00876593030989,1.21846967915e-07,0.0,0.0,0.0,1.21846967915e-07,0.0,0.0,0.0,1.21846967915e-07,0.48052585,0.4118793,9.8654899,9e-08,0.0,0.0,0.0,9e-08,0.0,0.0,0.0,9e-08
1532134994468199632,4165,1532134994467933584,base_link,-0.0324291879357,-0.0776328569008,-0.992829911349,0.0849132170503,1.0,0.0,0.0,0.0,1.0,0.0,0.0,0.0,1.0,0.209801957011,0.0563636310399,-0.0333369188011,1.21846967915e-07,0.0,0.0,0.0,1.21846967915e-07,0.0,0.0,0.0,1.21846967915e-07,0.53936575,0.2353596,9.5124505,9e-08,0.0,0.0,0.0,9e-08,0.0,0.0,0.0,9e-08
1532134994777389168,4166,1532134994776954704,base_link,-0.0202579621761,-0.101677180517,-0.991790409761,0.0748541851581,1.0,0.0,0.0,0.0,1.0,0.0,0.0,0.0,1.0,0.171837031841,0.0669717267156,-0.127334028482,1.21846967915e-07,0.0,0.0,0.0,1.21846967915e-07,0.0,0.0,0.0,1.21846967915e-07,0.6472389,0.3334261,9.2770909,9e-08,0.0,0.0,0.0,9e-08,0.0,0.0,0.0,9e-08
1532134995236679280,4167,1532134995236379408,base_link,-0.00368576607272,-0.135593094922,-0.989847211856,0.0424667507553,1.0,0.0,0.0,0.0,1.0,0.0,0.0,0.0,1.0,0.0837812945247,0.0262361690402,-0.190211936831,1.21846967915e-07,0.0,0.0,0.0,1.21846967915e-07,0.0,0.0,0.0,1.21846967915e-07,0.69627215,0.6276256,9.8654899,9e-08,0.0,0.0,0.0,9e-08,0.0,0.0,0.0,9e-08
1532134995686824368,4168,1532134995686411792,base_link,0.00806154914885,-0.173908690871,-0.984722095785,-0.00362942660075,1.0,0.0,0.0,0.0,1.0,0.0,0.0,0.0,1.0,0.243482217193,-0.0287027359009,-0.202195942402,1.21846967915e-07,0.0,0.0,0.0,1.21846967915e-07,0.0,0.0,0.0,1.21846967915e-07,0.4707192,0.3334261,8.91424485,9e-08,0.0,0.0,0.0,9e-08,0.0,0.0,0.0,9e-08
1532134996187463184,4169,1532134996186941136,base_link,-0.00634901339637,-0.223526418678,-0.973465914722,-0.0485771865859,1.0,0.0,0.0,0.0,1.0,0.0,0.0,0.0,1.0,0.282481312752,-0.0825014263391,-0.221144780517,1.21846967915e-07,0.0,0.0,0.0,1.21846967915e-07,0.0,0.0,0.0,1.21846967915e-07,0.69627215,0.8629852,10.3754357,9e-08,0.0,0.0,0.0,9e-08,0.0,0.0,0.0,9e-08
1532134996670856112,4170,1532134996670597136,base_link,-0.0195778587021,-0.284102956979,-0.949565736127,-0.13125216211,1.0,0.0,0.0,0.0,1.0,0.0,0.0,0.0,1.0,0.134743183851,-0.193351119757,-0.354439377785,1.21846967915e-07,0.0,0.0,0.0,1.21846967915e-07,0.0,0.0,0.0,1.21846967915e-07,0.50013915,0.4118793,9.93413645,9e-08,0.0,0.0,0.0,9e-08,0.0,0.0,0.0,9e-08
1532134997069713744,4171,1532134997069317904,base_link,-0.0447816212227,-0.28553675351,-0.934780092891,-0.206517666871,1.0,0.0,0.0,0.0,1.0,0.0,0.0,0.0,1.0,0.0504812635481,-0.199164450169,-0.340397536755,1.21846967915e-07,0.0,0.0,0.0,1.21846967915e-07,0.0,0.0,0.0,1.21846967915e-07,0.36284605,0.3530394,9.5124505,9e-08,0.0,0.0,0.0,9e-08,0.0,0.0,0.0,9e-08
1532134997434316592,4172,1532134997434082160,base_link,-0.084074310088,-0.311075929474,-0.905100336157,-0.277410630606,1.0,0.0,0.0,0.0,1.0,0.0,0.0,0.0,1.0,0.147471368313,-0.298631697893,-0.311832726002,1.21846967915e-07,0.0,0.0,0.0,1.21846967915e-07,0.0,0.0,0.0,1.21846967915e-07,0.83356525,0.4314926,11.2384209,9e-08,0.0,0.0,0.0,9e-08,0.0,0.0,0.0,9e-08
1532134997813516016,4173,1532134997812908304,base_link,-0.132949694204,-0.320440514212,-0.875094474917,-0.337419495039,1.0,0.0,0.0,0.0,1.0,0.0,0.0,0.0,1.0,0.102317124605,-0.333052933216,-0.133494466543,1.21846967915e-07,0.0,0.0,0.0,1.21846967915e-07,0.0,0.0,0.0,1.21846967915e-07,0.89240515,-0.10787315,11.87585315,9e-08,0.0,0.0,0.0,9e-08,0.0,0.0,0.0,9e-08
1532134998302051952,4174,1532134998301664496,base_link,-0.177194976782,-0.25765169923,-0.860639179159,-0.401892703821,1.0,0.0,0.0,0.0,1.0,0.0,0.0,0.0,1.0,-0.253119617701,-0.230699494481,-0.301191061735,1.21846967915e-07,0.0,0.0,0.0,1.21846967915e-07,0.0,0.0,0.0,1.21846967915e-07,1.22583125,0.85317855,11.6895268,9e-08,0.0,0.0,0.0,9e-08,0.0,0.0,0.0,9e-08
1532134998522116496,4175,1532134998521751536,base_link,-0.175264544194,-0.23458614844,-0.845065471932,-0.447343298437,1.0,0.0,0.0,0.0,1.0,0.0,0.0,0.0,1.0,-0.2194326967,-0.17337334156,-0.412327110767,1.21846967915e-07,0.0,0.0,0.0,1.21846967915e-07,0.0,0.0,0.0,1.21846967915e-07,0.99047165,0.9414384,11.60126695,9e-08,0.0,0.0,0.0,9e-08,0.0,0.0,0.0,9e-08
1532134998994421008,4176,1532134998992209072,base_link,-0.180092140968,-0.208437043718,-0.792196500625,-0.544559936064,1.0,0.0,0.0,0.0,1.0,0.0,0.0,0.0,1.0,-0.157311439514,-0.235441997647,-0.372146070004,1.21846967915e-07,0.0,0.0,0.0,1.21846967915e-07,0.0,0.0,0.0,1.21846967915e-07,1.1179581,0.42168595,10.8069283,9e-08,0.0,0.0,0.0,9e-08,0.0,0.0,0.0,9e-08
1532134999471819312,4177,1532134999471596496,base_link,-0.181207990758,-0.144725395687,-0.747405186909,-0.622578276614,1.0,0.0,0.0,0.0,1.0,0.0,0.0,0.0,1.0,-0.232119202614,-0.255708426237,-0.237570032477,1.21846967915e-07,0.0,0.0,0.0,1.21846967915e-07,0.0,0.0,0.0,1.21846967915e-07,1.3337044,0.3726527,11.7287534,9e-08,0.0,0.0,0.0,9e-08,0.0,0.0,0.0,9e-08
1532134999917138512,4178,1532134999916887536,base_link,-0.189780147362,-0.0729257976941,-0.716200567554,-0.667624198732,1.0,0.0,0.0,0.0,1.0,0.0,0.0,0.0,1.0,-0.262879580259,-0.215743005276,-0.123626306653,1.21846967915e-07,0.0,0.0,0.0,1.21846967915e-07,0.0,0.0,0.0,1.21846967915e-07,1.5298374,0.61781895,12.79767825,9e-08,0.0,0.0,0.0,9e-08,0.0,0.0,0.0,9e-08
1532135000316414768,4179,1532135000315963472,base_link,-0.173671065916,-0.0193907765254,-0.687410415456,-0.704932109761,1.0,0.0,0.0,0.0,1.0,0.0,0.0,0.0,1.0,-0.380672812462,-0.141915127635,-0.19084790349,1.21846967915e-07,0.0,0.0,0.0,1.21846967915e-07,0.0,0.0,0.0,1.21846967915e-07,1.4513842,0.46091255,13.54298365,9e-08,0.0,0.0,0.0,9e-08,0.0,0.0,0.0,9e-08
1532135000775476528,4180,1532135000774921968,base_link,-0.102540482421,0.0641223511245,-0.658100554588,-0.743153707925,1.0,0.0,0.0,0.0,1.0,0.0,0.0,0.0,1.0,-0.482769429684,-0.0041720494628,-0.0798228606582,1.21846967915e-07,0.0,0.0,0.0,1.21846967915e-07,0.0,0.0,0.0,1.21846967915e-07,0.89240515,0.14709975,10.1793027,9e-08,0.0,0.0,0.0,9e-08,0.0,0.0,0.0,9e-08
1532135001227838928,4181,1532135001227604848,base_link,-0.0292815999946,0.117056901558,-0.648309870663,-0.751754335738,1.0,0.0,0.0,0.0,1.0,0.0,0.0,0.0,1.0,-0.260563462973,0.11030459404,0.0605912059546,1.21846967915e-07,0.0,0.0,0.0,1.21846967915e-07,0.0,0.0,0.0,1.21846967915e-07,1.176798,1.01722011053e-15,8.30623255,9e-08,0.0,0.0,0.0,9e-08,0.0,0.0,0.0,9e-08
1532135001674619440,4182,1532135001674307984,base_link,0.032090986467,0.138613705712,-0.661363535184,-0.736447339261,1.0,0.0,0.0,0.0,1.0,0.0,0.0,0.0,1.0,-0.257799863815,0.0604570433497,0.20288439095,1.21846967915e-07,0.0,0.0,0.0,1.21846967915e-07,0.0,0.0,0.0,1.21846967915e-07,1.89268345,0.02941995,9.60071035,9e-08,0.0,0.0,0.0,9e-08,0.0,0.0,0.0,9e-08
1532135002046747184,4183,1532135002046412464,base_link,0.0684057831337,0.145487919586,-0.693079482344,-0.702705304692,1.0,0.0,0.0,0.0,1.0,0.0,0.0,0.0,1.0,-0.0749033391476,0.0800302401185,0.307382136583,1.21846967915e-07,0.0,0.0,0.0,1.21846967915e-07,0.0,0.0,0.0,1.21846967915e-07,2.02997655,0.22555295,7.7472535,9e-08,0.0,0.0,0.0,9e-08,0.0,0.0,0.0,9e-08
1532135002436127984,4184,1532135002435745072,base_link,0.0858820886634,0.134166125843,-0.730120588798,-0.664490514105,1.0,0.0,0.0,0.0,1.0,0.0,0.0,0.0,1.0,-0.00119183328934,0.00100292265415,0.237191021442,1.21846967915e-07,0.0,0.0,0.0,1.21846967915e-07,0.0,0.0,0.0,1.21846967915e-07,1.83384355,0.53936575,9.7870367,9e-08,0.0,0.0,0.0,9e-08,0.0,0.0,0.0,9e-08
1532135002795410864,4185,1532135002795126864,base_link,0.0585358578166,0.101046935159,-0.753766196118,-0.646683532986,1.0,0.0,0.0,0.0,1.0,0.0,0.0,0.0,1.0,0.385408014059,-0.00161278713495,0.120626948774,1.21846967915e-07,0.0,0.0,0.0,1.21846967915e-07,0.0,0.0,0.0,1.21846967915e-07,1.50041745,0.32361945,8.36507245,9e-08,0.0,0.0,0.0,9e-08,0.0,0.0,0.0,9e-08
1532135003195951440,4186,1532135003195097008,base_link,0.0123213560572,0.0532370392822,-0.778098249586,-0.625761229084,1.0,0.0,0.0,0.0,1.0,0.0,0.0,0.0,1.0,0.336093097925,-0.0519465580583,0.134499847889,1.21846967915e-07,0.0,0.0,0.0,1.21846967915e-07,0.0,0.0,0.0,1.21846967915e-07,1.4906108,0.36284605,9.58109705,9e-08,0.0,0.0,0.0,9e-08,0.0,0.0,0.0,9e-08
1532135003590504720,4187,1532135003590127440,base_link,-0.0308573991201,0.0110890386979,-0.786904184914,-0.616203422503,1.0,0.0,0.0,0.0,1.0,0.0,0.0,0.0,1.0,0.269605308771,-0.0212469100952,0.00114994752221,1.21846967915e-07,0.0,0.0,0.0,1.21846967915e-07,0.0,0.0,0.0,1.21846967915e-07,1.04931155,0.588399,9.36535075,9e-08,0.0,0.0,0.0,9e-08,0.0,0.0,0.0,9e-08
1532135003943242160,4188,1532135003942976304,base_link,-0.0550904892592,-0.028165398219,-0.773598474145,-0.6306481976,1.0,0.0,0.0,0.0,1.0,0.0,0.0,0.0,1.0,0.236678034067,0.0302600339055,-0.226459652185,1.21846967915e-07,0.0,0.0,0.0,1.21846967915e-07,0.0,0.0,0.0,1.21846967915e-07,0.65704555,0.57859235,8.63965865,9e-08,0.0,0.0,0.0,9e-08,0.0,0.0,0.0,9e-08
1532135004352070736,4189,1532135004351648272,base_link,-0.0710339658894,-0.0511984354637,-0.742366194711,-0.664247942298,1.0,0.0,0.0,0.0,1.0,0.0,0.0,0.0,1.0,0.0661461800337,-0.0367167070508,-0.206983700395,1.21846967915e-07,0.0,0.0,0.0,1.21846967915e-07,0.0,0.0,0.0,1.21846967915e-07,0.7649187,0.20593965,9.22805765,9e-08,0.0,0.0,0.0,9e-08,0.0,0.0,0.0,9e-08
1532135004769027312,4190,1532135004768365168,base_link,-0.0961257185175,-0.0700676596783,-0.71518308387,-0.688740535944,1.0,0.0,0.0,0.0,1.0,0.0,0.0,0.0,1.0,0.099158860743,-0.0801711454988,-0.112719170749,1.21846967915e-07,0.0,0.0,0.0,1.21846967915e-07,0.0,0.0,0.0,1.21846967915e-07,0.99047165,0.42168595,11.07170785,9e-08,0.0,0.0,0.0,9e-08,0.0,0.0,0.0,9e-08
1532135005238280784,4191,1532135005237966000,base_link,-0.0886755222768,-0.0449024034012,-0.700171902667,-0.707021734202,1.0,0.0,0.0,0.0,1.0,0.0,0.0,0.0,1.0,-0.088900282979,-0.0270568244159,-0.114743806422,1.21846967915e-07,0.0,0.0,0.0,1.21846967915e-07,0.0,0.0,0.0,1.21846967915e-07,0.40207265,0.3334261,8.99269805,9e-08,0.0,0.0,0.0,9e-08,0.0,0.0,0.0,9e-08
1532135005615575856,4192,1532135005615385936,base_link,-0.0968433344404,-0.0418369372079,-0.690716925188,-0.715388823311,1.0,0.0,0.0,0.0,1.0,0.0,0.0,0.0,1.0,-0.0148484529927,-0.0557461380959,-0.0595959164202,1.21846967915e-07,0.0,0.0,0.0,1.21846967915e-07,0.0,0.0,0.0,1.21846967915e-07,0.4707192,-0.0196133,9.9439431,9e-08,0.0,0.0,0.0,9e-08,0.0,0.0,0.0,9e-08
1532135005889347024,4193,1532135005888920560,base_link,-0.0881273351219,-0.0253958214494,-0.682770697153,-0.724853640514,1.0,0.0,0.0,0.0,1.0,0.0,0.0,0.0,1.0,-0.222725003958,-0.0190917346627,-0.12072827667,1.21846967915e-07,0.0,0.0,0.0,1.21846967915e-07,0.0,0.0,0.0,1.21846967915e-07,0.71588545,0.69627215,10.2381426,9e-08,0.0,0.0,0.0,9e-08,0.0,0.0,0.0,9e-08
1532135006343871152,4194,1532135006343424208,base_link,-0.0735666482618,-0.0134357282029,-0.660861937897,-0.746772340482,1.0,0.0,0.0,0.0,1.0,0.0,0.0,0.0,1.0,-0.107505887747,-0.0162490922958,-0.0998369082808,1.21846967915e-07,0.0,0.0,0.0,1.21846967915e-07,0.0,0.0,0.0,1.21846967915e-07,0.6080123,0.4314926,8.67888525,9e-08,0.0,0.0,0.0,9e-08,0.0,0.0,0.0,9e-08
1532135006792783344,4195,1532135006791628848,base_link,-0.0548356342818,0.0173541296704,-0.659166467639,-0.749794275343,1.0,0.0,0.0,0.0,1.0,0.0,0.0,0.0,1.0,-0.146958008409,-0.0418115705252,0.0417141541839,1.21846967915e-07,0.0,0.0,0.0,1.21846967915e-07,0.0,0.0,0.0,1.21846967915e-07,0.99047165,-0.08825985,9.89490985,9e-08,0.0,0.0,0.0,9e-08,0.0,0.0,0.0,9e-08
1532135007253744400,4196,1532135007253460304,base_link,-0.0347286759681,0.0521609006553,-0.674283022233,-0.735809462726,1.0,0.0,0.0,0.0,1.0,0.0,0.0,0.0,1.0,-0.211555629969,-0.0411741398275,0.100789189339,1.21846967915e-07,0.0,0.0,0.0,1.21846967915e-07,0.0,0.0,0.0,1.21846967915e-07,1.30428445,0.4118793,10.5715687,9e-08,0.0,0.0,0.0,9e-08,0.0,0.0,0.0,9e-08
1532135007638053744,4197,1532135007637737968,base_link,-0.0183282411397,0.0733532992128,-0.686803888472,-0.722899569685,1.0,0.0,0.0,0.0,1.0,0.0,0.0,0.0,1.0,-0.0606585294008,-0.0151256052777,0.111646398902,1.21846967915e-07,0.0,0.0,0.0,1.21846967915e-07,0.0,0.0,0.0,1.21846967915e-07,1.2160246,0.28439285,9.7674234,9e-08,0.0,0.0,0.0,9e-08,0.0,0.0,0.0,9e-08
1532135008040517648,4198,1532135008040277680,base_link,-0.0143216504765,0.0779155002769,-0.704530904285,-0.705237740093,1.0,0.0,0.0,0.0,1.0,0.0,0.0,0.0,1.0,-0.0380480475724,-0.00767192058265,0.116061769426,1.21846967915e-07,0.0,0.0,0.0,1.21846967915e-07,0.0,0.0,0.0,1.21846967915e-07,1.2356379,0.61781895,9.5909037,9e-08,0.0,0.0,0.0,9e-08,0.0,0.0,0.0,9e-08
1532135008376233456,4199,1532135008375816080,base_link,-0.0154455224457,0.0732139063285,-0.714551758668,-0.695569510502,1.0,0.0,0.0,0.0,1.0,0.0,0.0,0.0,1.0,0.167521372437,0.0111094573513,0.0576583556831,1.21846967915e-07,0.0,0.0,0.0,1.21846967915e-07,0.0,0.0,0.0,1.21846967915e-07,1.1571847,0.46091255,9.07115125,9e-08,0.0,0.0,0.0,9e-08,0.0,0.0,0.0,9e-08
1532135008746217968,4200,1532135008745968816,base_link,-0.0418633544236,0.0437905587077,-0.725730676113,-0.685306378398,1.0,0.0,0.0,0.0,1.0,0.0,0.0,0.0,1.0,0.251385986805,-0.00413497211412,0.0862205252051,1.21846967915e-07,0.0,0.0,0.0,1.21846967915e-07,0.0,0.0,0.0,1.21846967915e-07,1.2944778,0.2745862,9.5320638,9e-08,0.0,0.0,0.0,9e-08,0.0,0.0,0.0,9e-08
1532135009080375728,4201,1532135009080130512,base_link,-0.0659070168678,0.0156895074628,-0.735875864674,-0.673718647711,1.0,0.0,0.0,0.0,1.0,0.0,0.0,0.0,1.0,0.199061438441,0.024445027113,0.0461703687906,1.21846967915e-07,0.0,0.0,0.0,1.21846967915e-07,0.0,0.0,0.0,1.21846967915e-07,1.4906108,0.784532,9.3163175,9e-08,0.0,0.0,0.0,9e-08,0.0,0.0,0.0,9e-08
1532135009495633232,4202,1532135009494868624,base_link,-0.100656330382,-0.0352732765463,-0.72577866861,-0.679609758102,1.0,0.0,0.0,0.0,1.0,0.0,0.0,0.0,1.0,0.333861798048,0.0608726888895,-0.166082412004,1.21846967915e-07,0.0,0.0,0.0,1.21846967915e-07,0.0,0.0,0.0,1.21846967915e-07,1.36312435,0.6276256,9.01231135,9e-08,0.0,0.0,0.0,9e-08,0.0,0.0,0.0,9e-08
1532135009898153936,4203,1532135009897667184,base_link,-0.167509145799,-0.111736078684,-0.686854471173,-0.698345666718,1.0,0.0,0.0,0.0,1.0,0.0,0.0,0.0,1.0,0.428607404232,-0.0483140349388,-0.249977052212,1.21846967915e-07,0.0,0.0,0.0,1.21846967915e-07,0.0,0.0,0.0,1.21846967915e-07,1.32389775,0.87279185,9.26728425,9e-08,0.0,0.0,0.0,9e-08,0.0,0.0,0.0,9e-08
1532135010137104336,4204,1532135010136509616,base_link,-0.197970727022,-0.138237269083,-0.656297429889,-0.714822867709,1.0,0.0,0.0,0.0,1.0,0.0,0.0,0.0,1.0,0.408937901258,-0.112989492714,-0.321985006332,1.21846967915e-07,0.0,0.0,0.0,1.21846967915e-07,0.0,0.0,0.0,1.21846967915e-07,1.32389775,0.4511059,8.77695175,9e-08,0.0,0.0,0.0,9e-08,0.0,0.0,0.0,9e-08
1532135010444915056,4205,1532135010443994352,base_link,-0.240147766364,-0.163251838729,-0.609384005777,-0.737786568707,1.0,0.0,0.0,0.0,1.0,0.0,0.0,0.0,1.0,0.22486525774,-0.170236125588,-0.341381967068,1.21846967915e-07,0.0,0.0,0.0,1.21846967915e-07,0.0,0.0,0.0,1.21846967915e-07,1.36312435,0.57859235,9.218251,9e-08,0.0,0.0,0.0,9e-08,0.0,0.0,0.0,9e-08
1532135010766017744,4206,1532135010765697808,base_link,-0.271161183726,-0.17012053568,-0.555206594935,-0.767643310868,1.0,0.0,0.0,0.0,1.0,0.0,0.0,0.0,1.0,-0.0284361895174,-0.187894210219,-0.381168484688,1.21846967915e-07,0.0,0.0,0.0,1.21846967915e-07,0.0,0.0,0.0,1.21846967915e-07,1.7848103,1.16699135,9.28689755,9e-08,0.0,0.0,0.0,9e-08,0.0,0.0,0.0,9e-08
1532135011191631024,4207,1532135011191367088,base_link,-0.274085827756,-0.152948917975,-0.460012079103,-0.83058562147,1.0,0.0,0.0,0.0,1.0,0.0,0.0,0.0,1.0,-0.0897143408656,-0.295809984207,-0.493411153555,1.21846967915e-07,0.0,0.0,0.0,1.21846967915e-07,0.0,0.0,0.0,1.21846967915e-07,2.3143694,0.9610517,11.22861425,9e-08,0.0,0.0,0.0,9e-08,0.0,0.0,0.0,9e-08
1532135011641282544,4208,1532135011632645072,base_link,-0.301487041635,-0.0994578100819,-0.346907743881,-0.882535395877,1.0,0.0,0.0,0.0,1.0,0.0,0.0,0.0,1.0,-0.0432770140469,-0.55646032095,-0.352080374956,1.21846967915e-07,0.0,0.0,0.0,1.21846967915e-07,0.0,0.0,0.0,1.21846967915e-07,3.4911674,0.83356525,15.24934075,9e-08,0.0,0.0,0.0,9e-08,0.0,0.0,0.0,9e-08
1532135012049351920,4209,1532135012047421264,base_link,-0.320280901821,-0.00572073302281,-0.255851424271,-0.912100578797,1.0,0.0,0.0,0.0,1.0,0.0,0.0,0.0,1.0,-0.325629532337,-0.497646600008,-0.285313367844,1.21846967915e-07,0.0,0.0,0.0,1.21846967915e-07,0.0,0.0,0.0,1.21846967915e-07,3.1969679,1.28467115,15.5925735,9e-08,0.0,0.0,0.0,9e-08,0.0,0.0,0.0,9e-08
1532135012478466704,4210,1532135012477998832,base_link,-0.293214875982,0.0766724572304,-0.166017856581,-0.938394608947,1.0,0.0,0.0,0.0,1.0,0.0,0.0,0.0,1.0,-0.0606662034988,-0.376683831215,-0.204152077436,1.21846967915e-07,0.0,0.0,0.0,1.21846967915e-07,0.0,0.0,0.0,1.21846967915e-07,2.36340265,0.59820565,14.0431228,9e-08,0.0,0.0,0.0,9e-08,0.0,0.0,0.0,9e-08
1532135012850213872,4211,1532135012848653520,base_link,-0.28696433373,0.126060387412,-0.105850405475,-0.94369271564,1.0,0.0,0.0,0.0,1.0,0.0,0.0,0.0,1.0,-0.263527691364,-0.251879543066,-0.282360643148,1.21846967915e-07,0.0,0.0,0.0,1.21846967915e-07,0.0,0.0,0.0,1.21846967915e-07,2.2163029,1.0983448,12.52309205,9e-08,0.0,0.0,0.0,9e-08,0.0,0.0,0.0,9e-08
1532135013188613744,4212,1532135013188042992,base_link,-0.235406775891,0.145437773361,-0.0313789836962,-0.960440973369,1.0,0.0,0.0,0.0,1.0,0.0,0.0,0.0,1.0,-0.411358863115,-0.145554333925,-0.3075517416,1.21846967915e-07,0.0,0.0,0.0,1.21846967915e-07,0.0,0.0,0.0,1.21846967915e-07,2.6281822,0.5099458,11.81701325,9e-08,0.0,0.0,0.0,9e-08,0.0,0.0,0.0,9e-08
1532135013629788624,4213,1532135013629433232,base_link,-0.153469252994,0.165651292593,0.0384995167228,-0.973408765555,1.0,0.0,0.0,0.0,1.0,0.0,0.0,0.0,1.0,-0.562576174736,-0.0796718224883,-0.154680967331,1.21846967915e-07,0.0,0.0,0.0,1.21846967915e-07,0.0,0.0,0.0,1.21846967915e-07,2.12804305,0.63743225,10.85596155,9e-08,0.0,0.0,0.0,9e-08,0.0,0.0,0.0,9e-08
1532135014026138384,4214,1532135014025580176,base_link,-0.0677571211882,0.157257532088,0.079134823203,-0.982047209093,1.0,0.0,0.0,0.0,1.0,0.0,0.0,0.0,1.0,-0.324493974447,0.101777136326,-0.140154063702,1.21846967915e-07,0.0,0.0,0.0,1.21846967915e-07,0.0,0.0,0.0,1.21846967915e-07,2.2163029,0.77472535,9.89490985,9e-08,0.0,0.0,0.0,9e-08,0.0,0.0,0.0,9e-08
1532135014291098160,4215,1532135014290726448,base_link,-0.0158297869944,0.134096868519,0.0996893110973,-0.98581412495,1.0,0.0,0.0,0.0,1.0,0.0,0.0,0.0,1.0,-0.579537808895,0.148835197091,-0.0588674843311,1.21846967915e-07,0.0,0.0,0.0,1.21846967915e-07,0.0,0.0,0.0,1.21846967915e-07,2.353596,0.61781895,7.1588545,9e-08,0.0,0.0,0.0,9e-08,0.0,0.0,0.0,9e-08
1532135014690602288,4216,1532135014690177072,base_link,0.0576009714369,0.0905163004306,0.11280453374,-0.987807706294,1.0,0.0,0.0,0.0,1.0,0.0,0.0,0.0,1.0,-0.251818925142,0.202724918723,0.0487995371222,1.21846967915e-07,0.0,0.0,0.0,1.21846967915e-07,0.0,0.0,0.0,1.21846967915e-07,3.65788045,0.1765197,7.89435325,9e-08,0.0,0.0,0.0,9e-08,0.0,0.0,0.0,9e-08
1532135015109786512,4217,1532135015109094832,base_link,0.0870038577796,0.0406842525632,0.0900406569063,-0.991296020586,1.0,0.0,0.0,0.0,1.0,0.0,0.0,0.0,1.0,-0.133169472218,0.220754355192,0.164808109403,1.21846967915e-07,0.0,0.0,0.0,1.21846967915e-07,0.0,0.0,0.0,1.21846967915e-07,3.8442068,0.14709975,7.42363405,9e-08,0.0,0.0,0.0,9e-08,0.0,0.0,0.0,9e-08
1532135015388589328,4218,1532135015388253648,base_link,0.0796901602251,0.00927327088975,0.0677884271665,-0.994468809945,1.0,0.0,0.0,0.0,1.0,0.0,0.0,0.0,1.0,0.204564496875,0.20846119523,0.137526065111,1.21846967915e-07,0.0,0.0,0.0,1.21846967915e-07,0.0,0.0,0.0,1.21846967915e-07,4.26589275,0.18632635,6.6881353,9e-08,0.0,0.0,0.0,9e-08,0.0,0.0,0.0,9e-08
1532135015859943696,4219,1532135015859524304,base_link,0.0535797957724,-0.0741565053548,0.0320950799677,-0.995288864622,1.0,0.0,0.0,0.0,1.0,0.0,0.0,0.0,1.0,-0.14103603363,0.279210656881,0.202949494123,1.21846967915e-07,0.0,0.0,0.0,1.21846967915e-07,0.0,0.0,0.0,1.21846967915e-07,4.0991797,0.1372931,5.83495675,9e-08,0.0,0.0,0.0,9e-08,0.0,0.0,0.0,9e-08
1532135016203931824,4220,1532135016203269968,base_link,0.0457785121866,-0.0914797504598,0.0196401082358,-0.994560229059,1.0,0.0,0.0,0.0,1.0,0.0,0.0,0.0,1.0,0.165273949504,-0.101733312011,-0.00295260129496,1.21846967915e-07,0.0,0.0,0.0,1.21846967915e-07,0.0,0.0,0.0,1.21846967915e-07,3.4715541,0.08825985,8.16893945,9e-08,0.0,0.0,0.0,9e-08,0.0,0.0,0.0,9e-08
1532135016654737328,4221,1532135016654012336,base_link,0.0226899874874,-0.00463940847407,0.00201164348879,-0.999729760309,1.0,0.0,0.0,0.0,1.0,0.0,0.0,0.0,1.0,0.0249084848911,-0.556745707989,0.0519760884345,1.21846967915e-07,0.0,0.0,0.0,1.21846967915e-07,0.0,0.0,0.0,1.21846967915e-07,3.24600115,0.30400615,15.89657965,9e-08,0.0,0.0,0.0,9e-08,0.0,0.0,0.0,9e-08
1532135016934436304,4222,1532135016934139344,base_link,0.00742703692764,0.0680698819001,-0.0158253686845,-0.997527387096,1.0,0.0,0.0,0.0,1.0,0.0,0.0,0.0,1.0,0.160657048225,-0.470347106457,0.0839552879333,1.21846967915e-07,0.0,0.0,0.0,1.21846967915e-07,0.0,0.0,0.0,1.21846967915e-07,3.67749375,0.53936575,18.99548105,9e-08,0.0,0.0,0.0,9e-08,0.0,0.0,0.0,9e-08
1532135017439628048,4223,1532135017437088144,base_link,-0.00583055092367,0.159615851166,-0.0203445523632,-0.986952320997,1.0,0.0,0.0,0.0,1.0,0.0,0.0,0.0,1.0,0.0159737169743,-0.232584267855,-0.03060423024,1.21846967915e-07,0.0,0.0,0.0,1.21846967915e-07,0.0,0.0,0.0,1.21846967915e-07,3.2558078,0.69627215,14.95514125,9e-08,0.0,0.0,0.0,9e-08,0.0,0.0,0.0,9e-08
1532135017817515728,4224,1532135017816572880,base_link,-0.0415236040628,0.19023162079,-0.0107965480774,-0.980801282272,1.0,0.0,0.0,0.0,1.0,0.0,0.0,0.0,1.0,0.273725450039,-0.112611010671,-0.0709605664015,1.21846967915e-07,0.0,0.0,0.0,1.21846967915e-07,0.0,0.0,0.0,1.21846967915e-07,2.44185585,0.02941995,11.44436055,9e-08,0.0,0.0,0.0,9e-08,0.0,0.0,0.0,9e-08
1532135018214781520,4225,1532135018211016752,base_link,-0.0854392630362,0.205175752856,-0.00782038485654,-0.974957375659,1.0,0.0,0.0,0.0,1.0,0.0,0.0,0.0,1.0,0.114776134491,-0.0292254500091,-0.0647209882736,1.21846967915e-07,0.0,0.0,0.0,1.21846967915e-07,0.0,0.0,0.0,1.21846967915e-07,0.3530394,0.36284605,10.26756255,9e-08,0.0,0.0,0.0,9e-08,0.0,0.0,0.0,9e-08
1532135018669159120,4226,1532135018668900112,base_link,-0.101985724827,0.178758727349,-0.000438784123475,-0.978592886136,1.0,0.0,0.0,0.0,1.0,0.0,0.0,0.0,1.0,-0.000464894808829,0.20824624598,-0.0917755141854,1.21846967915e-07,0.0,0.0,0.0,1.21846967915e-07,0.0,0.0,0.0,1.21846967915e-07,-0.5099458,0.2157463,5.687857,9e-08,0.0,0.0,0.0,9e-08,0.0,0.0,0.0,9e-08
1532135019008763504,4227,1532135019007894192,base_link,-0.086174120181,0.12476395832,0.0172183206968,-0.988287157231,1.0,0.0,0.0,0.0,1.0,0.0,0.0,0.0,1.0,-0.129650324583,0.371842890978,-0.123003862798,1.21846967915e-07,0.0,0.0,0.0,1.21846967915e-07,0.0,0.0,0.0,1.21846967915e-07,-0.1765197,0.0392266,3.61865385,9e-08,0.0,0.0,0.0,9e-08,0.0,0.0,0.0,9e-08
1532135019482902992,4228,1532135019482580656,base_link,-0.0743995707708,0.015867760979,0.0268201403278,-0.996741490108,1.0,0.0,0.0,0.0,1.0,0.0,0.0,0.0,1.0,-0.416046380997,0.590485215187,0.00220939563587,1.21846967915e-07,0.0,0.0,0.0,1.21846967915e-07,0.0,0.0,0.0,1.21846967915e-07,0.20593965,0.0392266,1.81423025,9e-08,0.0,0.0,0.0,9e-08,0.0,0.0,0.0,9e-08
1532135019813475632,4229,1532135019808931504,base_link,-0.0532453411017,-0.0787350581611,0.0358102639201,-0.994828301399,1.0,0.0,0.0,0.0,1.0,0.0,0.0,0.0,1.0,-0.126735523343,0.559987545013,-0.173779711127,1.21846967915e-07,0.0,0.0,0.0,1.21846967915e-07,0.0,0.0,0.0,1.21846967915e-07,-0.24516625,0.2745862,0.95124505,9e-08,0.0,0.0,0.0,9e-08,0.0,0.0,0.0,9e-08
1532135020222240240,4230,1532135020218768240,base_link,-0.0650783889809,-0.168331904791,0.0587822866488,-0.98182168233,1.0,0.0,0.0,0.0,1.0,0.0,0.0,0.0,1.0,0.0999610349536,0.277639806271,-0.0433379970491,1.21846967915e-07,0.0,0.0,0.0,1.21846967915e-07,0.0,0.0,0.0,1.21846967915e-07,0.06864655,-0.26477955,2.36340265,9e-08,0.0,0.0,0.0,9e-08,0.0,0.0,0.0,9e-08
1532135020573395376,4231,1532135020570728400,base_link,-0.0752736120103,-0.192661716116,0.052693194481,-0.976953823747,1.0,0.0,0.0,0.0,1.0,0.0,0.0,0.0,1.0,-0.0782037749887,0.0822229832411,0.0758611559868,1.21846967915e-07,0.0,0.0,0.0,1.21846967915e-07,0.0,0.0,0.0,1.21846967915e-07,0.91201845,0.0588399,6.2174161,9e-08,0.0,0.0,0.0,9e-08,0.0,0.0,0.0,9e-08
1532135020986230864,4232,1532135020985823664,base_link,-0.0520750763293,-0.180108263607,0.0426137982768,-0.981342582385,1.0,0.0,0.0,0.0,1.0,0.0,0.0,0.0,1.0,-0.092177182436,-0.271930545568,-0.0441931970417,1.21846967915e-07,0.0,0.0,0.0,1.21846967915e-07,0.0,0.0,0.0,1.21846967915e-07,1.5102241,0.65704555,10.69905515,9e-08,0.0,0.0,0.0,9e-08,0.0,0.0,0.0,9e-08
1532135021340619088,4233,1532135021340233392,base_link,-0.042916975364,-0.103361079694,0.052885272654,-0.992309310833,1.0,0.0,0.0,0.0,1.0,0.0,0.0,0.0,1.0,0.0522470399737,-0.512707948685,-0.0334303453565,1.21846967915e-07,0.0,0.0,0.0,1.21846967915e-07,0.0,0.0,0.0,1.21846967915e-07,1.18660465,0.2353596,21.78056965,9e-08,0.0,0.0,0.0,9e-08,0.0,0.0,0.0,9e-08
1532135021740914224,4234,1532135021740507472,base_link,-0.0174082458514,-0.0218245225538,0.0546409115011,-0.998115731758,1.0,0.0,0.0,0.0,1.0,0.0,0.0,0.0,1.0,-0.103886291385,-0.352405369282,-0.0782872587442,1.21846967915e-07,0.0,0.0,0.0,1.21846967915e-07,0.0,0.0,0.0,1.21846967915e-07,-0.53936575,0.65704555,17.5735168,9e-08,0.0,0.0,0.0,9e-08,0.0,0.0,0.0,9e-08
1532135022080844112,4235,1532135022080405584,base_link,0.00151426594671,0.0293689799101,0.0661971291314,-0.997373104767,1.0,0.0,0.0,0.0,1.0,0.0,0.0,0.0,1.0,-0.0541726797819,-0.273361742496,-0.0316523425281,1.21846967915e-07,0.0,0.0,0.0,1.21846967915e-07,0.0,0.0,0.0,1.21846967915e-07,-1.2356379,0.0196133,14.40596885,9e-08,0.0,0.0,0.0,9e-08,0.0,0.0,0.0,9e-08
1532135022444321424,4236,1532135022444045872,base_link,-0.00202324213729,0.0701975544896,0.0757517900075,-0.994650630194,1.0,0.0,0.0,0.0,1.0,0.0,0.0,0.0,1.0,0.00447395956144,-0.13538980484,-0.0772041752934,1.21846967915e-07,0.0,0.0,0.0,1.21846967915e-07,0.0,0.0,0.0,1.21846967915e-07,-1.04931155,-0.0196133,14.64132845,9e-08,0.0,0.0,0.0,9e-08,0.0,0.0,0.0,9e-08
1532135022820948208,4237,1532135022816219504,base_link,0.00787528711687,0.0831243026481,0.0851952224532,-0.992859559169,1.0,0.0,0.0,0.0,1.0,0.0,0.0,0.0,1.0,0.00671573076397,-0.0226767286658,-0.037135053426,1.21846967915e-07,0.0,0.0,0.0,1.21846967915e-07,0.0,0.0,0.0,1.21846967915e-07,-1.0591182,-0.87279185,12.54270535,9e-08,0.0,0.0,0.0,9e-08,0.0,0.0,0.0,9e-08
1532135023250687824,4238,1532135023250461424,base_link,-0.0128394580801,0.0781936182941,0.0648693552426,-0.994742616522,1.0,0.0,0.0,0.0,1.0,0.0,0.0,0.0,1.0,-0.0326761677861,0.0631264224648,0.141194537282,1.21846967915e-07,0.0,0.0,0.0,1.21846967915e-07,0.0,0.0,0.0,1.21846967915e-07,-0.85317855,-0.00980665,8.32584585,9e-08,0.0,0.0,0.0,9e-08,0.0,0.0,0.0,9e-08
1532135023527834416,4239,1532135023527273840,base_link,0.00305228542417,0.0633735487187,0.0517818216932,-0.996640918194,1.0,0.0,0.0,0.0,1.0,0.0,0.0,0.0,1.0,-0.194156065583,0.123560540378,0.0784923806787,1.21846967915e-07,0.0,0.0,0.0,1.21846967915e-07,0.0,0.0,0.0,1.21846967915e-07,-0.392266,0.50013915,8.48275225,9e-08,0.0,0.0,0.0,9e-08,0.0,0.0,0.0,9e-08
1532135023948269296,4240,1532135023948015184,base_link,0.0314511143556,0.029285176721,0.0515357434235,-0.997746096449,1.0,0.0,0.0,0.0,1.0,0.0,0.0,0.0,1.0,0.044823102653,0.189209893346,-0.048242341727,1.21846967915e-07,0.0,0.0,0.0,1.21846967915e-07,0.0,0.0,0.0,1.21846967915e-07,0.04903325,0.1176798,8.9044382,9e-08,0.0,0.0,0.0,9e-08,0.0,0.0,0.0,9e-08
1532135024290262448,4241,1532135024289796080,base_link,0.0250513071226,-0.000257229429255,0.048974086116,-0.998485805975,1.0,0.0,0.0,0.0,1.0,0.0,0.0,0.0,1.0,0.147340238094,0.166374027729,0.115458786488,1.21846967915e-07,0.0,0.0,0.0,1.21846967915e-07,0.0,0.0,0.0,1.21846967915e-07,0.06864655,-0.1569064,7.89435325,9e-08,0.0,0.0,0.0,9e-08,0.0,0.0,0.0,9e-08
1532135024685811664,4242,1532135024685528464,base_link,0.013465120788,-0.0426871443665,0.028457093304,-0.998592355303,1.0,0.0,0.0,0.0,1.0,0.0,0.0,0.0,1.0,-0.0378373377025,0.230082854629,0.0190020166337,1.21846967915e-07,0.0,0.0,0.0,1.21846967915e-07,0.0,0.0,0.0,1.21846967915e-07,0.3138128,0.4511059,6.12915625,9e-08,0.0,0.0,0.0,9e-08,0.0,0.0,0.0,9e-08
1532135024989459792,4243,1532135024989005616,base_link,0.0037449515627,-0.0731084751006,0.0385847230387,-0.996570291226,1.0,0.0,0.0,0.0,1.0,0.0,0.0,0.0,1.0,0.168284595013,0.186090916395,-0.0966351032257,1.21846967915e-07,0.0,0.0,0.0,1.21846967915e-07,0.0,0.0,0.0,1.21846967915e-07,0.28439285,0.2941995,7.2961476,9e-08,0.0,0.0,0.0,9e-08,0.0,0.0,0.0,9e-08
1532135025282707952,4244,1532135025282270832,base_link,-0.0236675521335,-0.0901606610705,0.0428794360971,-0.994722200482,1.0,0.0,0.0,0.0,1.0,0.0,0.0,0.0,1.0,0.12018366158,0.0725481659174,0.0295838601887,1.21846967915e-07,0.0,0.0,0.0,1.21846967915e-07,0.0,0.0,0.0,1.21846967915e-07,0.4903325,-0.2353596,7.2176944,9e-08,0.0,0.0,0.0,9e-08,0.0,0.0,0.0,9e-08
1532135025576379760,4245,1532135025575667120,base_link,-0.0401303815841,-0.0909626460025,0.0355981045746,-0.994408429398,1.0,0.0,0.0,0.0,1.0,0.0,0.0,0.0,1.0,0.0622973702848,-0.0225464906543,0.0671871453524,1.21846967915e-07,0.0,0.0,0.0,1.21846967915e-07,0.0,0.0,0.0,1.21846967915e-07,0.22555295,0.3334261,9.05153795,9e-08,0.0,0.0,0.0,9e-08,0.0,0.0,0.0,9e-08
1532135025997031824,4246,1532135025996708848,base_link,-0.0468823436408,-0.0760669816365,0.0381753404864,-0.995268056123,1.0,0.0,0.0,0.0,1.0,0.0,0.0,0.0,1.0,-0.0567969828844,-0.0958810597658,-0.00291386665776,1.21846967915e-07,0.0,0.0,0.0,1.21846967915e-07,0.0,0.0,0.0,1.21846967915e-07,0.3726527,0.26477955,10.48330885,9e-08,0.0,0.0,0.0,9e-08,0.0,0.0,0.0,9e-08
1532135026241212400,4247,1532135026240829072,base_link,-0.0320290119713,-0.0645759518493,0.0419361091748,-0.996516658959,1.0,0.0,0.0,0.0,1.0,0.0,0.0,0.0,1.0,-0.155259713531,-0.125117540359,-0.0506049655378,1.21846967915e-07,0.0,0.0,0.0,1.21846967915e-07,0.0,0.0,0.0,1.21846967915e-07,-0.0196133,0.38245935,10.14988275,9e-08,0.0,0.0,0.0,9e-08,0.0,0.0,0.0,9e-08
1532135026629860912,4248,1532135026629265328,base_link,0.0160192397633,-0.0412215697997,0.0508759352787,-0.99772531558,1.0,0.0,0.0,0.0,1.0,0.0,0.0,0.0,1.0,-0.0579654760659,-0.125080391765,-0.0427873544395,1.21846967915e-07,0.0,0.0,0.0,1.21846967915e-07,0.0,0.0,0.0,1.21846967915e-07,0.16671305,1.51802387215e-15,12.3956056,9e-08,0.0,0.0,0.0,9e-08,0.0,0.0,0.0,9e-08
1532135026946628304,4249,1532135026946254352,base_link,0.0115293041823,-0.0211618710923,0.0498836964288,-0.998464254336,1.0,0.0,0.0,0.0,1.0,0.0,0.0,0.0,1.0,0.0627295821905,-0.135895565152,0.054544441402,1.21846967915e-07,0.0,0.0,0.0,1.21846967915e-07,0.0,0.0,0.0,1.21846967915e-07,-0.10787315,0.08825985,13.52337035,9e-08,0.0,0.0,0.0,9e-08,0.0,0.0,0.0,9e-08
1532135027238364080,4250,1532135027238022928,base_link,0.00314161277931,-0.00302227757808,0.0418962634683,-0.99911245574,1.0,0.0,0.0,0.0,1.0,0.0,0.0,0.0,1.0,0.0736488774419,-0.0845915302634,0.0289228782058,1.21846967915e-07,0.0,0.0,0.0,1.21846967915e-07,0.0,0.0,0.0,1.21846967915e-07,-0.18632635,0.3726527,11.8856598,9e-08,0.0,0.0,0.0,9e-08,0.0,0.0,0.0,9e-08
1532135027651810416,4251,1532135027651331664,base_link,0.00207508023714,0.00949932408417,0.0446442978284,-0.99895562642,1.0,0.0,0.0,0.0,1.0,0.0,0.0,0.0,1.0,0.0642784684896,-0.0324973315001,-0.0581013783813,1.21846967915e-07,0.0,0.0,0.0,1.21846967915e-07,0.0,0.0,0.0,1.21846967915e-07,-0.4707192,0.32361945,9.46341725,9e-08,0.0,0.0,0.0,9e-08,0.0,0.0,0.0,9e-08
1532135028087645456,4252,1532135028079396464,base_link,-0.0157885706199,0.0155896766254,0.0580259388218,-0.998068471321,1.0,0.0,0.0,0.0,1.0,0.0,0.0,0.0,1.0,0.103278718889,-0.0034463449847,-0.0510008372366,1.21846967915e-07,0.0,0.0,0.0,1.21846967915e-07,0.0,0.0,0.0,1.21846967915e-07,-0.5295591,0.18632635,10.1204628,9e-08,0.0,0.0,0.0,9e-08,0.0,0.0,0.0,9e-08
1532135028459130224,4253,1532135028458502192,base_link,-0.0283928009996,0.0137666363141,0.0567094463527,-0.997891961722,1.0,0.0,0.0,0.0,1.0,0.0,0.0,0.0,1.0,0.0626542568207,0.0440131798387,-0.00390657084063,1.21846967915e-07,0.0,0.0,0.0,1.21846967915e-07,0.0,0.0,0.0,1.21846967915e-07,-0.4314926,0.26477955,8.67888525,9e-08,0.0,0.0,0.0,9e-08,0.0,0.0,0.0,9e-08
1532135028884086480,4254,1532135028878064304,base_link,-0.0218653949435,0.000676560342222,0.0602674845452,-0.99794252193,1.0,0.0,0.0,0.0,1.0,0.0,0.0,0.0,1.0,-0.0536999925971,0.087602801621,-0.0808421969414,1.21846967915e-07,0.0,0.0,0.0,1.21846967915e-07,0.0,0.0,0.0,1.21846967915e-07,-0.24516625,0.42168595,7.58054045,9e-08,0.0,0.0,0.0,9e-08,0.0,0.0,0.0,9e-08
1532135029300956816,4255,1532135029299981680,base_link,-0.0245217111982,-0.0172598565337,0.0808639442835,-0.996273961091,1.0,0.0,0.0,0.0,1.0,0.0,0.0,0.0,1.0,0.0145848244429,0.0813394635916,-0.0655101016164,1.21846967915e-07,0.0,0.0,0.0,1.21846967915e-07,0.0,0.0,0.0,1.21846967915e-07,0.0588399,0.0980665,8.34545915,9e-08,0.0,0.0,0.0,9e-08,0.0,0.0,0.0,9e-08
1532135029678589776,4256,1532135029678223824,base_link,-0.0185821394937,-0.0258060807634,0.0819786314716,-0.99612662562,1.0,0.0,0.0,0.0,1.0,0.0,0.0,0.0,1.0,-0.0755437165499,0.0392247214913,0.00692460918799,1.21846967915e-07,0.0,0.0,0.0,1.21846967915e-07,0.0,0.0,0.0,1.21846967915e-07,0.3530394,0.06864655,9.79684335,9e-08,0.0,0.0,0.0,9e-08,0.0,0.0,0.0,9e-08
1532135030074149744,4257,1532135030073836304,base_link,-0.01027438251,-0.0306247569515,0.0776313874969,-0.996458694077,1.0,0.0,0.0,0.0,1.0,0.0,0.0,0.0,1.0,-0.0529502257705,0.00263189314865,-0.00708896759897,1.21846967915e-07,0.0,0.0,0.0,1.21846967915e-07,0.0,0.0,0.0,1.21846967915e-07,0.26477955,0.18632635,9.07115125,9e-08,0.0,0.0,0.0,9e-08,0.0,0.0,0.0,9e-08
1532135030503740336,4258,1532135030503075984,base_link,-0.00609427344936,-0.0279244522122,0.0770025244865,-0.996621139663,1.0,0.0,0.0,0.0,1.0,0.0,0.0,0.0,1.0,-0.0969441533089,-0.0156293399632,0.00195844145492,1.21846967915e-07,0.0,0.0,0.0,1.21846967915e-07,0.0,0.0,0.0,1.21846967915e-07,0.16671305,0.1569064,9.414384,9e-08,0.0,0.0,0.0,9e-08,0.0,0.0,0.0,9e-08
1532135030871316784,4259,1532135030870821712,base_link,0.00565632309629,-0.0219759053854,0.0790437325409,-0.996612840544,1.0,0.0,0.0,0.0,1.0,0.0,0.0,0.0,1.0,-0.0699059739709,-0.0582672134042,-0.0488500855863,1.21846967915e-07,0.0,0.0,0.0,1.21846967915e-07,0.0,0.0,0.0,1.21846967915e-07,0.08825985,0.30400615,10.09104285,9e-08,0.0,0.0,0.0,9e-08,0.0,0.0,0.0,9e-08
1532135031329377840,4260,1532135031328815056,base_link,-0.0130569425478,-0.00734775764275,0.0687412047442,-0.997522016539,1.0,0.0,0.0,0.0,1.0,0.0,0.0,0.0,1.0,0.0902611911297,-0.0393178798258,0.106293417513,1.21846967915e-07,0.0,0.0,0.0,1.21846967915e-07,0.0,0.0,0.0,1.21846967915e-07,0.10787315,0.42168595,10.87557485,9e-08,0.0,0.0,0.0,9e-08,0.0,0.0,0.0,9e-08
1532135031838867280,4261,1532135031838478320,base_link,-0.018524510996,0.000248810228289,0.067081907275,-0.997575459954,1.0,0.0,0.0,0.0,1.0,0.0,0.0,0.0,1.0,-0.033600192517,-0.033031757921,-0.0451552011073,1.21846967915e-07,0.0,0.0,0.0,1.21846967915e-07,0.0,0.0,0.0,1.21846967915e-07,0.2549729,0.3138128,9.48303055,9e-08,0.0,0.0,0.0,9e-08,0.0,0.0,0.0,9e-08
1532135032276147088,4262,1532135032275812176,base_link,-0.0432903545792,0.00878211039241,0.0762085526917,-0.996112983669,1.0,0.0,0.0,0.0,1.0,0.0,0.0,0.0,1.0,0.232778295875,-0.033698014915,-0.012965021655,1.21846967915e-07,0.0,0.0,0.0,1.21846967915e-07,0.0,0.0,0.0,1.21846967915e-07,0.4118793,-0.0392266,10.5323421,9e-08,0.0,0.0,0.0,9e-08,0.0,0.0,0.0,9e-08
1532135032588959984,4263,1532135032588388400,base_link,-0.0756867938364,0.0180586886932,0.0750930784577,-0.994136018143,1.0,0.0,0.0,0.0,1.0,0.0,0.0,0.0,1.0,0.169667348266,-0.0447381287813,-0.0223878454417,1.21846967915e-07,0.0,0.0,0.0,1.21846967915e-07,0.0,0.0,0.0,1.21846967915e-07,0.1372931,0.3530394,10.2381426,9e-08,0.0,0.0,0.0,9e-08,0.0,0.0,0.0,9e-08
1532135032950856912,4264,1532135032950319088,base_link,-0.126580973147,0.023072966786,0.0843183924042,-0.988096809095,1.0,0.0,0.0,0.0,1.0,0.0,0.0,0.0,1.0,0.34686011076,-0.0204984005541,-0.102227918804,1.21846967915e-07,0.0,0.0,0.0,1.21846967915e-07,0.0,0.0,0.0,1.21846967915e-07,0.2157463,0.50013915,10.1008495,9e-08,0.0,0.0,0.0,9e-08,0.0,0.0,0.0,9e-08
1532135033326204208,4265,1532135033325869456,base_link,-0.162639161584,0.0237067858297,0.10706531387,-0.980573051838,1.0,0.0,0.0,0.0,1.0,0.0,0.0,0.0,1.0,0.127155512571,0.00322694634087,-0.168447911739,1.21846967915e-07,0.0,0.0,0.0,1.21846967915e-07,0.0,0.0,0.0,1.21846967915e-07,0.28439285,0.3530394,8.6494653,9e-08,0.0,0.0,0.0,9e-08,0.0,0.0,0.0,9e-08
1532135033748570384,4266,1532135033748228016,base_link,-0.204264358363,0.0293518062358,0.149184046868,-0.96703601977,1.0,0.0,0.0,0.0,1.0,0.0,0.0,0.0,1.0,0.189551189542,-0.0585619695485,-0.216479197145,1.21846967915e-07,0.0,0.0,0.0,1.21846967915e-07,0.0,0.0,0.0,1.21846967915e-07,0.59820565,0.392266,10.3362091,9e-08,0.0,0.0,0.0,9e-08,0.0,0.0,0.0,9e-08
1532135034210673392,4267,1532135034209135888,base_link,-0.238582291572,0.0499183758491,0.201371606002,-0.948702335929,1.0,0.0,0.0,0.0,1.0,0.0,0.0,0.0,1.0,0.147424817085,-0.156512320042,-0.224320679903,1.21846967915e-07,0.0,0.0,0.0,1.21846967915e-07,0.0,0.0,0.0,1.21846967915e-07,0.22555295,0.59820565,11.26784085,9e-08,0.0,0.0,0.0,9e-08,0.0,0.0,0.0,9e-08
1532135034633315600,4268,1532135034632923728,base_link,-0.247370296077,0.0729831676169,0.259928910243,-0.930547341882,1.0,0.0,0.0,0.0,1.0,0.0,0.0,0.0,1.0,-0.0211952868849,-0.173402413726,-0.243351221085,1.21846967915e-07,0.0,0.0,0.0,1.21846967915e-07,0.0,0.0,0.0,1.21846967915e-07,0.2353596,0.57859235,11.42474725,9e-08,0.0,0.0,0.0,9e-08,0.0,0.0,0.0,9e-08
1532135034882974768,4269,1532135034882430288,base_link,-0.247965531208,0.0874821413666,0.296085777997,-0.91825551038,1.0,0.0,0.0,0.0,1.0,0.0,0.0,0.0,1.0,0.022409543395,-0.162369519472,-0.262111991644,1.21846967915e-07,0.0,0.0,0.0,1.21846967915e-07,0.0,0.0,0.0,1.21846967915e-07,0.24516625,0.4511059,11.0619012,9e-08,0.0,0.0,0.0,9e-08,0.0,0.0,0.0,9e-08
1532135035217823408,4270,1532135035217492752,base_link,-0.24942517731,0.105397933724,0.346575889161,-0.898088809385,1.0,0.0,0.0,0.0,1.0,0.0,0.0,0.0,1.0,0.0371418371797,-0.18027831614,-0.277278006077,1.21846967915e-07,0.0,0.0,0.0,1.21846967915e-07,0.0,0.0,0.0,1.21846967915e-07,0.0784532,0.42168595,10.36562905,9e-08,0.0,0.0,0.0,9e-08,0.0,0.0,0.0,9e-08
1532135035674152880,4271,1532135035673789680,base_link,-0.225691860931,0.121647970245,0.416234046165,-0.872361263502,1.0,0.0,0.0,0.0,1.0,0.0,0.0,0.0,1.0,-0.00507247122005,-0.166972070932,-0.261801302433,1.21846967915e-07,0.0,0.0,0.0,1.21846967915e-07,0.0,0.0,0.0,1.21846967915e-07,0.2157463,0.5295591,11.56204035,9e-08,0.0,0.0,0.0,9e-08,0.0,0.0,0.0,9e-08
1532135036001595056,4272,1532135036001303440,base_link,-0.223015206594,0.137829526657,0.460316245347,-0.848160476254,1.0,0.0,0.0,0.0,1.0,0.0,0.0,0.0,1.0,-0.121118724346,-0.171567291021,-0.265540897846,1.21846967915e-07,0.0,0.0,0.0,1.21846967915e-07,0.0,0.0,0.0,1.21846967915e-07,0.1569064,0.5687857,10.42446895,9e-08,0.0,0.0,0.0,9e-08,0.0,0.0,0.0,9e-08
1532135036459762864,4273,1532135036459434992,base_link,-0.188569716698,0.145039065852,0.524605066841,-0.817431743429,1.0,0.0,0.0,0.0,1.0,0.0,0.0,0.0,1.0,-0.211925268173,-0.131803959608,-0.266297250986,1.21846967915e-07,0.0,0.0,0.0,1.21846967915e-07,0.0,0.0,0.0,1.21846967915e-07,0.30400615,0.44129925,10.6304086,9e-08,0.0,0.0,0.0,9e-08,0.0,0.0,0.0,9e-08
1532135036784013360,4274,1532135036783542992,base_link,-0.165734984441,0.14649491942,0.567142621898,-0.793360195588,1.0,0.0,0.0,0.0,1.0,0.0,0.0,0.0,1.0,-0.129017144442,-0.147609785199,-0.225473046303,1.21846967915e-07,0.0,0.0,0.0,1.21846967915e-07,0.0,0.0,0.0,1.21846967915e-07,0.3726527,0.3334261,11.1991943,9e-08,0.0,0.0,0.0,9e-08,0.0,0.0,0.0,9e-08
1532135037118100208,4275,1532135037116795376,base_link,-0.127073143725,0.137622090145,0.605446762303,-0.773528793559,1.0,0.0,0.0,0.0,1.0,0.0,0.0,0.0,1.0,-0.286928087473,-0.0836907178164,-0.205946952105,1.21846967915e-07,0.0,0.0,0.0,1.21846967915e-07,0.0,0.0,0.0,1.21846967915e-07,0.3530394,0.55897905,10.9049948,9e-08,0.0,0.0,0.0,9e-08,0.0,0.0,0.0,9e-08
1532135037620724912,4276,1532135037617715792,base_link,-0.0683434990017,0.107688707407,0.655502181444,-0.744344811605,1.0,0.0,0.0,0.0,1.0,0.0,0.0,0.0,1.0,-0.205989912152,-0.0780202448368,-0.160956844687,1.21846967915e-07,0.0,0.0,0.0,1.21846967915e-07,0.0,0.0,0.0,1.21846967915e-07,0.30400615,0.1569064,10.198916,9e-08,0.0,0.0,0.0,9e-08,0.0,0.0,0.0,9e-08
1532135038130159440,4277,1532135038129712464,base_link,-0.0222231981974,0.0792187000848,0.685357262377,-0.723544020725,1.0,0.0,0.0,0.0,1.0,0.0,0.0,0.0,1.0,-0.258842259645,-0.039836242795,-0.0664061307907,1.21846967915e-07,0.0,0.0,0.0,1.21846967915e-07,0.0,0.0,0.0,1.21846967915e-07,0.48052585,0.36284605,10.30678915,9e-08,0.0,0.0,0.0,9e-08,0.0,0.0,0.0,9e-08
1532135038515365968,4278,1532135038515063312,base_link,0.0124223245695,0.0520112055965,0.69655173193,-0.715511149522,1.0,0.0,0.0,0.0,1.0,0.0,0.0,0.0,1.0,-0.207373127341,0.0146046066657,-0.00421020621434,1.21846967915e-07,0.0,0.0,0.0,1.21846967915e-07,0.0,0.0,0.0,1.21846967915e-07,0.55897905,0.2157463,10.3558224,9e-08,0.0,0.0,0.0,9e-08,0.0,0.0,0.0,9e-08
1532135038942465648,4279,1532135038942212528,base_link,0.0460307441146,0.0149006930942,0.697697459024,-0.714756878675,1.0,0.0,0.0,0.0,1.0,0.0,0.0,0.0,1.0,-0.17252792418,0.0339681021869,0.0140524869785,1.21846967915e-07,0.0,0.0,0.0,1.21846967915e-07,0.0,0.0,0.0,1.21846967915e-07,0.65704555,0.40207265,9.7085835,9e-08,0.0,0.0,0.0,9e-08,0.0,0.0,0.0,9e-08
1532135039384960144,4280,1532135039384589296,base_link,0.0564573173147,-0.00215358300775,0.697554222386,-0.714301085141,1.0,0.0,0.0,0.0,1.0,0.0,0.0,0.0,1.0,-0.031906940043,0.00698078144342,0.0539444126189,1.21846967915e-07,0.0,0.0,0.0,1.21846967915e-07,0.0,0.0,0.0,1.21846967915e-07,0.79433865,0.0196133,8.85540495,9e-08,0.0,0.0,0.0,9e-08,0.0,0.0,0.0,9e-08
1532135039803058000,4281,1532135039802752176,base_link,0.0539456785923,-0.0120711309201,0.686448376201,-0.7250743261,1.0,0.0,0.0,0.0,1.0,0.0,0.0,0.0,1.0,0.0358525924385,0.0547947101295,0.103671014309,1.21846967915e-07,0.0,0.0,0.0,1.21846967915e-07,0.0,0.0,0.0,1.21846967915e-07,0.95124505,0.0980665,9.0025047,9e-08,0.0,0.0,0.0,9e-08,0.0,0.0,0.0,9e-08
1532135040144909040,4282,1532135040138146928,base_link,0.0402878058011,-0.00694764921367,0.678762531525,-0.733218963661,1.0,0.0,0.0,0.0,1.0,0.0,0.0,0.0,1.0,0.0933030322194,0.0144377723336,0.0651555135846,1.21846967915e-07,0.0,0.0,0.0,1.21846967915e-07,0.0,0.0,0.0,1.21846967915e-07,0.99047165,0.1765197,8.56120545,9e-08,0.0,0.0,0.0,9e-08,0.0,0.0,0.0,9e-08
1532135040479796656,4283,1532135040479597648,base_link,0.0346457371491,-0.00147418628355,0.670337862802,-0.741245336826,1.0,0.0,0.0,0.0,1.0,0.0,0.0,0.0,1.0,-0.0750657841563,0.0125467143953,0.0740179121494,1.21846967915e-07,0.0,0.0,0.0,1.21846967915e-07,0.0,0.0,0.0,1.21846967915e-07,1.3533177,0.2353596,10.20872265,9e-08,0.0,0.0,0.0,9e-08,0.0,0.0,0.0,9e-08
1532135040881154288,4284,1532135040879961904,base_link,0.0143892239924,0.0182489108788,0.662882837445,-0.748362393032,1.0,0.0,0.0,0.0,1.0,0.0,0.0,0.0,1.0,0.263595998287,-4.71046660095e-05,0.0624485947192,1.21846967915e-07,0.0,0.0,0.0,1.21846967915e-07,0.0,0.0,0.0,1.21846967915e-07,0.8629852,0.16671305,10.198916,9e-08,0.0,0.0,0.0,9e-08,0.0,0.0,0.0,9e-08
1532135041375396400,4285,1532135041374995280,base_link,-0.00641920608884,0.0366617778805,0.65421841912,-0.75538928237,1.0,0.0,0.0,0.0,1.0,0.0,0.0,0.0,1.0,0.0964561551809,0.0328766815364,-0.0243623498827,1.21846967915e-07,0.0,0.0,0.0,1.21846967915e-07,0.0,0.0,0.0,1.21846967915e-07,-0.0980665,0.5491724,9.71839015,9e-08,0.0,0.0,0.0,9e-08,0.0,0.0,0.0,9e-08
1532135041818244784,4286,1532135041817036880,base_link,-0.0331840826122,0.0373116183734,0.667704030418,-0.742750286138,1.0,0.0,0.0,0.0,1.0,0.0,0.0,0.0,1.0,0.020593194291,0.0730974003673,-0.108730398118,1.21846967915e-07,0.0,0.0,0.0,1.21846967915e-07,0.0,0.0,0.0,1.21846967915e-07,-0.30400615,0.1765197,9.1005712,9e-08,0.0,0.0,0.0,9e-08,0.0,0.0,0.0,9e-08
1532135042080994800,4287,1532135042077618640,base_link,-0.0472921512583,0.0346924645125,0.679476924152,-0.731348750516,1.0,0.0,0.0,0.0,1.0,0.0,0.0,0.0,1.0,0.109789796174,0.104659244418,-0.149106755853,1.21846967915e-07,0.0,0.0,0.0,1.21846967915e-07,0.0,0.0,0.0,1.21846967915e-07,-0.392266,0.1176798,8.40429905,9e-08,0.0,0.0,0.0,9e-08,0.0,0.0,0.0,9e-08
1532135042580611824,4288,1532135042579805936,base_link,-0.0688500998103,0.0358234311938,0.704595825308,-0.705351733883,1.0,0.0,0.0,0.0,1.0,0.0,0.0,0.0,1.0,-0.0437969118357,0.0387310683727,-0.114963516593,1.21846967915e-07,0.0,0.0,0.0,1.21846967915e-07,0.0,0.0,0.0,1.21846967915e-07,-0.2549729,0.10787315,8.4533323,9e-08,0.0,0.0,0.0,9e-08,0.0,0.0,0.0,9e-08
1532135042928164880,4289,1532135042927307344,base_link,0.0611999297515,-0.0254621999875,-0.717668238689,0.693223300349,1.0,0.0,0.0,0.0,1.0,0.0,0.0,0.0,1.0,-0.0795435607433,-0.00956191401929,-0.0845213234425,1.21846967915e-07,0.0,0.0,0.0,1.21846967915e-07,0.0,0.0,0.0,1.21846967915e-07,-0.18632635,0.2353596,9.1790244,9e-08,0.0,0.0,0.0,9e-08,0.0,0.0,0.0,9e-08
1532135043406362832,4290,1532135043406031056,base_link,0.0481636536264,-0.0192011565969,-0.733253585803,0.677975484042,1.0,0.0,0.0,0.0,1.0,0.0,0.0,0.0,1.0,-0.0646603778005,-0.0203333776444,-0.091286405921,1.21846967915e-07,0.0,0.0,0.0,1.21846967915e-07,0.0,0.0,0.0,1.21846967915e-07,0.0,0.0392266,10.03220295,9e-08,0.0,0.0,0.0,9e-08,0.0,0.0,0.0,9e-08
1532135043863562352,4291,1532135043863295760,base_link,0.031560017499,-0.0149782147455,-0.745810865212,0.665241138017,1.0,0.0,0.0,0.0,1.0,0.0,0.0,0.0,1.0,-0.128259822726,-0.0416105091572,-0.0559000596404,1.21846967915e-07,0.0,0.0,0.0,1.21846967915e-07,0.0,0.0,0.0,1.21846967915e-07,-0.06864655,0.08825985,9.52225715,9e-08,0.0,0.0,0.0,9e-08,0.0,0.0,0.0,9e-08
1532135044194334704,4292,1532135044190636912,base_link,0.0110377146664,-0.00451378817079,-0.75195421589,0.65910746603,1.0,0.0,0.0,0.0,1.0,0.0,0.0,0.0,1.0,-0.0846897885203,-0.0618721134961,-0.0408147126436,1.21846967915e-07,0.0,0.0,0.0,1.21846967915e-07,0.0,0.0,0.0,1.21846967915e-07,0.16671305,-0.0196133,10.2969825,9e-08,0.0,0.0,0.0,9e-08,0.0,0.0,0.0,9e-08
1532135044521285744,4293,1532135044521045328,base_link,0.00105507779161,-0.0045290336488,-0.755343408905,0.65531268055,1.0,0.0,0.0,0.0,1.0,0.0,0.0,0.0,1.0,0.00644414499402,-0.0434895604849,-0.0154487341642,1.21846967915e-07,0.0,0.0,0.0,1.21846967915e-07,0.0,0.0,0.0,1.21846967915e-07,0.2549729,-0.1176798,10.50292215,9e-08,0.0,0.0,0.0,9e-08,0.0,0.0,0.0,9e-08
1532135044905519504,4294,1532135044904989104,base_link,-0.00954621634707,-0.000548607007056,-0.755857021047,0.654666886682,1.0,0.0,0.0,0.0,1.0,0.0,0.0,0.0,1.0,-0.120010226965,-0.0310891605914,0.00979898776859,1.21846967915e-07,0.0,0.0,0.0,1.21846967915e-07,0.0,0.0,0.0,1.21846967915e-07,0.2549729,-0.0784532,10.3165958,9e-08,0.0,0.0,0.0,9e-08,0.0,0.0,0.0,9e-08
1532135045502829680,4295,1532135045501661712,base_link,-0.0321325034429,0.0138460284938,-0.751577202296,0.658716554147,1.0,0.0,0.0,0.0,1.0,0.0,0.0,0.0,1.0,-0.0106620658189,-0.0074315238744,0.0396082215011,1.21846967915e-07,0.0,0.0,0.0,1.21846967915e-07,0.0,0.0,0.0,1.21846967915e-07,0.2353596,-0.1765197,9.7870367,9e-08,0.0,0.0,0.0,9e-08,0.0,0.0,0.0,9e-08
1532135045857687600,4296,1532135045855417104,base_link,-0.0398283588448,0.0164147339227,-0.743967034165,0.666826297035,1.0,0.0,0.0,0.0,1.0,0.0,0.0,0.0,1.0,-0.0703484714031,-0.0209419168532,0.0802157595754,1.21846967915e-07,0.0,0.0,0.0,1.21846967915e-07,0.0,0.0,0.0,1.21846967915e-07,0.36284605,-0.00980665,9.6301303,9e-08,0.0,0.0,0.0,9e-08,0.0,0.0,0.0,9e-08
1532135046248441424,4297,1532135046247970800,base_link,-0.0486211480433,0.0257562441052,-0.731306203928,0.679826327785,1.0,0.0,0.0,0.0,1.0,0.0,0.0,0.0,1.0,0.00776968104765,-0.0112267816439,0.0884512066841,1.21846967915e-07,0.0,0.0,0.0,1.21846967915e-07,0.0,0.0,0.0,1.21846967915e-07,0.3138128,-0.00980665,9.9635564,9e-08,0.0,0.0,0.0,9e-08,0.0,0.0,0.0,9e-08
1532135046728657040,4298,1532135046728396080,base_link,-0.0536229893546,0.0212703659897,-0.71664070433,0.695052694003,1.0,0.0,0.0,0.0,1.0,0.0,0.0,0.0,1.0,-0.0489105209708,-0.0448128916323,0.0937560498714,1.21846967915e-07,0.0,0.0,0.0,1.21846967915e-07,0.0,0.0,0.0,1.21846967915e-07,0.57859235,-0.08825985,10.32640245,9e-08,0.0,0.0,0.0,9e-08,0.0,0.0,0.0,9e-08
1532135047076025200,4299,1532135047075755792,base_link,0.0490679267356,-0.0133579117809,0.706213475245,-0.706170257191,1.0,0.0,0.0,0.0,1.0,0.0,0.0,0.0,1.0,0.037539511919,0.0144078414887,0.127981707454,1.21846967915e-07,0.0,0.0,0.0,1.21846967915e-07,0.0,0.0,0.0,1.21846967915e-07,0.5687857,0.02941995,9.6301303,9e-08,0.0,0.0,0.0,9e-08,0.0,0.0,0.0,9e-08
1532135047490185584,4300,1532135047489083728,base_link,0.0291091554547,0.00694486029377,0.68764550589,-0.725429585979,1.0,0.0,0.0,0.0,1.0,0.0,0.0,0.0,1.0,0.046178996563,-0.0289680790156,0.138685509562,1.21846967915e-07,0.0,0.0,0.0,1.21846967915e-07,0.0,0.0,0.0,1.21846967915e-07,0.6276256,0.02941995,10.2969825,9e-08,0.0,0.0,0.0,9e-08,0.0,0.0,0.0,9e-08
1532135047742563184,4301,1532135047737646960,base_link,0.0336966480165,0.00705205772421,0.676708384649,-0.73544582842,1.0,0.0,0.0,0.0,1.0,0.0,0.0,0.0,1.0,-0.0483664274216,-0.00956654269248,0.104652106762,1.21846967915e-07,0.0,0.0,0.0,1.21846967915e-07,0.0,0.0,0.0,1.21846967915e-07,0.5687857,0.0392266,9.89490985,9e-08,0.0,0.0,0.0,9e-08,0.0,0.0,0.0,9e-08
1532135048165419344,4302,1532135048165078352,base_link,0.0368466835002,0.0111522552757,0.673970606335,-0.737754410976,1.0,0.0,0.0,0.0,1.0,0.0,0.0,0.0,1.0,0.048568751663,-0.0252078287303,-0.0306860338897,1.21846967915e-07,0.0,0.0,0.0,1.21846967915e-07,0.0,0.0,0.0,1.21846967915e-07,0.59820565,0.04903325,9.32612415,9e-08,0.0,0.0,0.0,9e-08,0.0,0.0,0.0,9e-08
1532135048510312816,4303,1532135048506491056,base_link,0.0353741098254,0.0177304562913,0.67832581321,-0.733695028201,1.0,0.0,0.0,0.0,1.0,0.0,0.0,0.0,1.0,0.029568279162,0.00222637597471,-0.0297768488526,1.21846967915e-07,0.0,0.0,0.0,1.21846967915e-07,0.0,0.0,0.0,1.21846967915e-07,0.69627215,0.02941995,9.1397978,9e-08,0.0,0.0,0.0,9e-08,0.0,0.0,0.0,9e-08
1532135048874781744,4304,1532135048872790096,base_link,0.0233098057806,0.0252389699765,0.681266552157,-0.731228782435,1.0,0.0,0.0,0.0,1.0,0.0,0.0,0.0,1.0,0.0439464524388,0.0368379876018,0.00317068211734,1.21846967915e-07,0.0,0.0,0.0,1.21846967915e-07,0.0,0.0,0.0,1.21846967915e-07,0.57859235,0.1176798,8.81617835,9e-08,0.0,0.0,0.0,9e-08,0.0,0.0,0.0,9e-08
1532135049238110192,4305,1532135049237883696,base_link,0.0177323087215,0.0250253839707,0.681870416505,-0.73082968637,1.0,0.0,0.0,0.0,1.0,0.0,0.0,0.0,1.0,0.0652978867292,0.0254953764379,-0.00214228429832,1.21846967915e-07,0.0,0.0,0.0,1.21846967915e-07,0.0,0.0,0.0,1.21846967915e-07,0.73549875,-0.02941995,9.0809579,9e-08,0.0,0.0,0.0,9e-08,0.0,0.0,0.0,9e-08
1532135049650953872,4306,1532135049650570256,base_link,0.00125718057428,0.03536417704,0.680888518507,-0.731531694354,1.0,0.0,0.0,0.0,1.0,0.0,0.0,0.0,1.0,-0.00212454237044,0.0290139392018,0.00997267663479,1.21846967915e-07,0.0,0.0,0.0,1.21846967915e-07,0.0,0.0,0.0,1.21846967915e-07,0.8433719,0.24516625,9.8851032,9e-08,0.0,0.0,0.0,9e-08,0.0,0.0,0.0,9e-08
1532135050061910544,4307,1532135050061613104,base_link,0.0154485992422,-0.00264675559894,0.681391709642,-0.731751100783,1.0,0.0,0.0,0.0,1.0,0.0,0.0,0.0,1.0,-0.185942620039,0.0911749228835,-0.0270421206951,1.21846967915e-07,0.0,0.0,0.0,1.21846967915e-07,0.0,0.0,0.0,1.21846967915e-07,0.6472389,0.32361945,8.99269805,9e-08,0.0,0.0,0.0,9e-08,0.0,0.0,0.0,9e-08
1532135050418519920,4308,1532135050418249488,base_link,0.000971720605505,0.00333236721399,0.685545442635,-0.728021563671,1.0,0.0,0.0,0.0,1.0,0.0,0.0,0.0,1.0,0.241099283099,0.00643397029489,-0.00585219729692,1.21846967915e-07,0.0,0.0,0.0,1.21846967915e-07,0.0,0.0,0.0,1.21846967915e-07,0.83356525,0.04903325,9.62032365,9e-08,0.0,0.0,0.0,9e-08,0.0,0.0,0.0,9e-08
1532135050798925648,4309,1532135050798604368,base_link,-0.0190757964407,0.0284475054707,0.679946675264,-0.732461174548,1.0,0.0,0.0,0.0,1.0,0.0,0.0,0.0,1.0,0.0349539332092,-0.134506955743,0.0561305433512,1.21846967915e-07,0.0,0.0,0.0,1.21846967915e-07,0.0,0.0,0.0,1.21846967915e-07,0.83356525,0.2941995,9.5909037,9e-08,0.0,0.0,0.0,9e-08,0.0,0.0,0.0,9e-08
1532135051172057200,4310,1532135051171633616,base_link,-0.00257515295333,0.0561957432633,0.680084734733,-0.730972065546,1.0,0.0,0.0,0.0,1.0,0.0,0.0,0.0,1.0,0.111588433385,-0.154383331537,-0.067686997354,1.21846967915e-07,0.0,0.0,0.0,1.21846967915e-07,0.0,0.0,0.0,1.21846967915e-07,0.79433865,0.22555295,9.73800345,9e-08,0.0,0.0,0.0,9e-08,0.0,0.0,0.0,9e-08
1532135051578551728,4311,1532135051578302352,base_link,0.00679991589049,0.091661138579,0.700643338406,-0.707566893774,1.0,0.0,0.0,0.0,1.0,0.0,0.0,0.0,1.0,-0.0608370825648,-0.0895377397537,-0.166407361627,1.21846967915e-07,0.0,0.0,0.0,1.21846967915e-07,0.0,0.0,0.0,1.21846967915e-07,0.83356525,0.2549729,9.3947707,9e-08,0.0,0.0,0.0,9e-08,0.0,0.0,0.0,9e-08
1532135052061870704,4312,1532135052061413072,base_link,0.00553084631989,-0.0698352175721,-0.726445724944,0.683643957654,1.0,0.0,0.0,0.0,1.0,0.0,0.0,0.0,1.0,0.105730250478,0.290541291237,-0.0821482464671,1.21846967915e-07,0.0,0.0,0.0,1.21846967915e-07,0.0,0.0,0.0,1.21846967915e-07,0.6276256,0.0588399,7.6688003,9e-08,0.0,0.0,0.0,9e-08,0.0,0.0,0.0,9e-08
1532135052384815824,4313,1532135052379867568,base_link,0.0477082131718,-0.0549407226301,-0.728975793818,0.680661248655,1.0,0.0,0.0,0.0,1.0,0.0,0.0,0.0,1.0,0.0267373025417,0.170228034258,0.000768313650042,1.21846967915e-07,0.0,0.0,0.0,1.21846967915e-07,0.0,0.0,0.0,1.21846967915e-07,0.5295591,0.1372931,7.4334407,9e-08,0.0,0.0,0.0,9e-08,0.0,0.0,0.0,9e-08
1532135052717041552,4314,1532135052716508304,base_link,0.0357158841601,-0.0357551881764,-0.729889023071,0.681694914267,1.0,0.0,0.0,0.0,1.0,0.0,0.0,0.0,1.0,-0.231369405985,-0.0214813351631,-0.00240996805951,1.21846967915e-07,0.0,0.0,0.0,1.21846967915e-07,0.0,0.0,0.0,1.21846967915e-07,0.95124505,0.22555295,9.54187045,9e-08,0.0,0.0,0.0,9e-08,0.0,0.0,0.0,9e-08
1532135053123047920,4315,1532135053122808464,base_link,0.00818371297202,0.00445474682196,-0.73649677251,0.676376881742,1.0,0.0,0.0,0.0,1.0,0.0,0.0,0.0,1.0,0.0631845369935,0.116677574813,-0.0295552331954,1.21846967915e-07,0.0,0.0,0.0,1.21846967915e-07,0.0,0.0,0.0,1.21846967915e-07,0.95124505,1.26101666595e-15,10.2969825,9e-08,0.0,0.0,0.0,9e-08,0.0,0.0,0.0,9e-08
1532135053448059728,4316,1532135053447648784,base_link,0.0202586088467,-0.00207834735204,-0.735207970632,0.67753561468,1.0,0.0,0.0,0.0,1.0,0.0,0.0,0.0,1.0,0.0571655929089,-0.0529449917376,0.065942555666,1.21846967915e-07,0.0,0.0,0.0,1.21846967915e-07,0.0,0.0,0.0,1.21846967915e-07,1.04931155,-0.06864655,11.56204035,9e-08,0.0,0.0,0.0,9e-08,0.0,0.0,0.0,9e-08
1532135053950223152,4317,1532135053949752784,base_link,0.00588005080712,0.00103316189436,-0.714129987371,0.699987656117,1.0,0.0,0.0,0.0,1.0,0.0,0.0,0.0,1.0,-0.092280715704,-0.0937758535147,0.0840398147702,1.21846967915e-07,0.0,0.0,0.0,1.21846967915e-07,0.0,0.0,0.0,1.21846967915e-07,0.784532,0.38245935,10.67944185,9e-08,0.0,0.0,0.0,9e-08,0.0,0.0,0.0,9e-08
1532135054383446736,4318,1532135054382676304,base_link,-0.0181006731462,-0.0222648831746,-0.712699761875,0.700882079977,1.0,0.0,0.0,0.0,1.0,0.0,0.0,0.0,1.0,0.0318178609014,-0.218814626336,-0.0116364238784,1.21846967915e-07,0.0,0.0,0.0,1.21846967915e-07,0.0,0.0,0.0,1.21846967915e-07,0.9022118,0.42168595,10.38524235,9e-08,0.0,0.0,0.0,9e-08,0.0,0.0,0.0,9e-08
1532135054738201136,4319,1532135054737801328,base_link,-0.0255190283942,-0.0376732916042,-0.710170161052,0.702558072077,1.0,0.0,0.0,0.0,1.0,0.0,0.0,0.0,1.0,0.0598484538496,0.0472624078393,0.0648635700345,1.21846967915e-07,0.0,0.0,0.0,1.21846967915e-07,0.0,0.0,0.0,1.21846967915e-07,0.75511205,-0.00980665,10.002783,9e-08,0.0,0.0,0.0,9e-08,0.0,0.0,0.0,9e-08
1532135055084477232,4320,1532135055084211920,base_link,0.0269758262787,0.0214803826992,0.699539733684,-0.713761205833,1.0,0.0,0.0,0.0,1.0,0.0,0.0,0.0,1.0,-0.511452972889,-0.0272773746401,0.120064541698,1.21846967915e-07,0.0,0.0,0.0,1.21846967915e-07,0.0,0.0,0.0,1.21846967915e-07,1.1964113,0.91201845,9.26728425,9e-08,0.0,0.0,0.0,9e-08,0.0,0.0,0.0,9e-08
