%time,field.header.seq,field.header.stamp,field.header.frame_id,field.orientation.x,field.orientation.y,field.orientation.z,field.orientation.w,field.orientation_covariance0,field.orientation_covariance1,field.orientation_covariance2,field.orientation_covariance3,field.orientation_covariance4,field.orientation_covariance5,field.orientation_covariance6,field.orientation_covariance7,field.orientation_covariance8,field.angular_velocity.x,field.angular_velocity.y,field.angular_velocity.z,field.angular_velocity_covariance0,field.angular_velocity_covariance1,field.angular_velocity_covariance2,field.angular_velocity_covariance3,field.angular_velocity_covariance4,field.angular_velocity_covariance5,field.angular_velocity_covariance6,field.angular_velocity_covariance7,field.angular_velocity_covariance8,field.linear_acceleration.x,field.linear_acceleration.y,field.linear_acceleration.z,field.linear_acceleration_covariance0,field.linear_acceleration_covariance1,field.linear_acceleration_covariance2,field.linear_acceleration_covariance3,field.linear_acceleration_covariance4,field.linear_acceleration_covariance5,field.linear_acceleration_covariance6,field.linear_acceleration_covariance7,field.linear_acceleration_covariance8
1536691595411810104,945,1536691595408028120,base_link,-0.0363409916173,-0.177389255158,-0.94295672906,-0.279365337156,1.0,0.0,0.0,0.0,1.0,0.0,0.0,0.0,1.0,0.525028407574,0.0142416050658,-0.0556326210499,1.21846967915e-07,0.0,0.0,0.0,1.21846967915e-07,0.0,0.0,0.0,1.21846967915e-07,-0.22555295,0.2157463,8.97308475,9e-08,0.0,0.0,0.0,9e-08,0.0,0.0,0.0,9e-08
1536691595812229816,946,1536691595811881016,base_link,-0.0558112875974,-0.239630868488,-0.92342820164,-0.294520803103,1.0,0.0,0.0,0.0,1.0,0.0,0.0,0.0,1.0,-0.0337844379246,-0.0294070877135,-0.15509968996,1.21846967915e-07,0.0,0.0,0.0,1.21846967915e-07,0.0,0.0,0.0,1.21846967915e-07,-0.1569064,0.8041453,10.03220295,9e-08,0.0,0.0,0.0,9e-08,0.0,0.0,0.0,9e-08
1536691596305651032,947,1536691596305298136,base_link,-0.0295702887072,-0.211533137109,-0.913687447437,-0.345766653,1.0,0.0,0.0,0.0,1.0,0.0,0.0,0.0,1.0,-0.1702683568,0.0618203058839,-0.239322766662,1.21846967915e-07,0.0,0.0,0.0,1.21846967915e-07,0.0,0.0,0.0,1.21846967915e-07,-0.7453054,0.75511205,8.6494653,9e-08,0.0,0.0,0.0,9e-08,0.0,0.0,0.0,9e-08
1536691596651983960,948,1536691596651434488,base_link,0.00562540409773,-0.179835210327,-0.907513325772,-0.379535526007,1.0,0.0,0.0,0.0,1.0,0.0,0.0,0.0,1.0,-0.209669008851,0.114427752793,-0.233106359839,1.21846967915e-07,0.0,0.0,0.0,1.21846967915e-07,0.0,0.0,0.0,1.21846967915e-07,-1.26505785,0.63743225,7.9041599,9e-08,0.0,0.0,0.0,9e-08,0.0,0.0,0.0,9e-08
1536691597042661912,949,1536691597042392696,base_link,0.0531628293844,-0.153993546427,-0.898171253209,-0.408348014737,1.0,0.0,0.0,0.0,1.0,0.0,0.0,0.0,1.0,-0.158287316561,0.140641331673,-0.143889978528,1.21846967915e-07,0.0,0.0,0.0,1.21846967915e-07,0.0,0.0,0.0,1.21846967915e-07,-1.53964405,0.588399,6.63910205,9e-08,0.0,0.0,0.0,9e-08,0.0,0.0,0.0,9e-08
1536691597381345784,950,1536691597381126744,base_link,0.0868434396318,-0.139716476139,-0.895639156987,-0.413240878617,1.0,0.0,0.0,0.0,1.0,0.0,0.0,0.0,1.0,-0.160601705313,0.142871588469,-0.0266260262579,1.21846967915e-07,0.0,0.0,0.0,1.21846967915e-07,0.0,0.0,0.0,1.21846967915e-07,-1.8828768,0.77472535,6.44296905,9e-08,0.0,0.0,0.0,9e-08,0.0,0.0,0.0,9e-08
1536691597765775128,951,1536691597765501048,base_link,0.128952013775,-0.113206318517,-0.89577323749,-0.41005611151,1.0,0.0,0.0,0.0,1.0,0.0,0.0,0.0,1.0,-0.249116286635,0.132003650069,-0.00875977054238,1.21846967915e-07,0.0,0.0,0.0,1.21846967915e-07,0.0,0.0,0.0,1.21846967915e-07,-1.8632635,0.97085835,8.18855275,9e-08,0.0,0.0,0.0,9e-08,0.0,0.0,0.0,9e-08
1536691598157557336,952,1536691598157297048,base_link,0.166327064082,-0.0880508426435,-0.891934937184,-0.411137963091,1.0,0.0,0.0,0.0,1.0,0.0,0.0,0.0,1.0,-0.181512534618,0.0728363469243,-0.0535440929234,1.21846967915e-07,0.0,0.0,0.0,1.21846967915e-07,0.0,0.0,0.0,1.21846967915e-07,-2.06920315,9.25946523283e-16,7.56092715,9e-08,0.0,0.0,0.0,9e-08,0.0,0.0,0.0,9e-08
1536691598576323288,953,1536691598576028376,base_link,0.183352624051,-0.0862583930902,-0.886448440988,-0.416113525789,1.0,0.0,0.0,0.0,1.0,0.0,0.0,0.0,1.0,0.0772076100111,0.0257041845471,0.0159577783197,1.21846967915e-07,0.0,0.0,0.0,1.21846967915e-07,0.0,0.0,0.0,1.21846967915e-07,-2.1770763,-0.00980665,7.46286065,9e-08,0.0,0.0,0.0,9e-08,0.0,0.0,0.0,9e-08
1536691599065748728,954,1536691599065269432,base_link,0.174220460476,-0.101124652115,-0.890801406814,-0.40730073595,1.0,0.0,0.0,0.0,1.0,0.0,0.0,0.0,1.0,-0.0312567874789,-0.0783939287066,0.0521790608764,1.21846967915e-07,0.0,0.0,0.0,1.21846967915e-07,0.0,0.0,0.0,1.21846967915e-07,-2.28494945,0.6276256,9.0417313,9e-08,0.0,0.0,0.0,9e-08,0.0,0.0,0.0,9e-08
1536691599369193048,955,1536691599368335032,base_link,0.159533025313,-0.0786778430196,-0.895365834769,-0.408263435517,1.0,0.0,0.0,0.0,1.0,0.0,0.0,0.0,1.0,-0.134852200747,-0.191816061735,-0.0623387098312,1.21846967915e-07,0.0,0.0,0.0,1.21846967915e-07,0.0,0.0,0.0,1.21846967915e-07,-1.95152335,0.8433719,12.50347875,9e-08,0.0,0.0,0.0,9e-08,0.0,0.0,0.0,9e-08
1536691599754623704,956,1536691599754310008,base_link,0.113821271628,-0.0588100474474,-0.898116202501,-0.420682045314,1.0,0.0,0.0,0.0,1.0,0.0,0.0,0.0,1.0,0.074221521616,-0.302595049143,-0.00654804240912,1.21846967915e-07,0.0,0.0,0.0,1.21846967915e-07,0.0,0.0,0.0,1.21846967915e-07,-1.0591182,0.2157463,15.54354025,9e-08,0.0,0.0,0.0,9e-08,0.0,0.0,0.0,9e-08
1536691600153334040,957,1536691600152414648,base_link,0.0577034260431,-0.0365362526603,-0.908091661838,-0.413164556279,1.0,0.0,0.0,0.0,1.0,0.0,0.0,0.0,1.0,-0.0755302608013,-0.337747603655,0.080401442945,1.21846967915e-07,0.0,0.0,0.0,1.21846967915e-07,0.0,0.0,0.0,1.21846967915e-07,-0.32361945,0.7256921,18.05404265,9e-08,0.0,0.0,0.0,9e-08,0.0,0.0,0.0,9e-08
1536691600702494008,958,1536691600699337720,base_link,-0.00649772469933,0.0139175672535,-0.912162859318,-0.409539984587,1.0,0.0,0.0,0.0,1.0,0.0,0.0,0.0,1.0,0.0371370390058,-0.245101690292,-0.007662858814,1.21846967915e-07,0.0,0.0,0.0,1.21846967915e-07,0.0,0.0,0.0,1.21846967915e-07,0.3726527,0.28439285,16.60265845,9e-08,0.0,0.0,0.0,9e-08,0.0,0.0,0.0,9e-08
1536691600983778744,959,1536691600983367032,base_link,-0.0377054156646,0.016945481547,-0.912143021589,-0.407782123752,1.0,0.0,0.0,0.0,1.0,0.0,0.0,0.0,1.0,0.154674291611,-0.163280040026,0.0270991399884,1.21846967915e-07,0.0,0.0,0.0,1.21846967915e-07,0.0,0.0,0.0,1.21846967915e-07,0.38245935,0.08825985,13.89602305,9e-08,0.0,0.0,0.0,9e-08,0.0,0.0,0.0,9e-08
1536691601428579000,960,1536691601428167640,base_link,-0.0768241370346,-0.000673933454977,-0.914064524252,-0.398225618571,1.0,0.0,0.0,0.0,1.0,0.0,0.0,0.0,1.0,0.0918229296803,-0.0656351149082,0.00143518159166,1.21846967915e-07,0.0,0.0,0.0,1.21846967915e-07,0.0,0.0,0.0,1.21846967915e-07,0.2157463,0.40207265,12.11121275,9e-08,0.0,0.0,0.0,9e-08,0.0,0.0,0.0,9e-08
1536691601830054168,961,1536691601828954040,base_link,-0.0937496206737,-0.0191995588538,-0.91073269786,-0.401756566357,1.0,0.0,0.0,0.0,1.0,0.0,0.0,0.0,1.0,0.0853365510702,-0.00542278075591,-0.0366598628461,1.21846967915e-07,0.0,0.0,0.0,1.21846967915e-07,0.0,0.0,0.0,1.21846967915e-07,-0.1176798,0.2157463,9.9831697,9e-08,0.0,0.0,0.0,9e-08,0.0,0.0,0.0,9e-08
1536691602228247032,962,1536691602227663096,base_link,-0.094488867468,-0.0358773120159,-0.907952596019,-0.40670229381,1.0,0.0,0.0,0.0,1.0,0.0,0.0,0.0,1.0,0.022085910663,0.0535590685904,-0.0543515309691,1.21846967915e-07,0.0,0.0,0.0,1.21846967915e-07,0.0,0.0,0.0,1.21846967915e-07,-0.12748645,0.5099458,8.62004535,9e-08,0.0,0.0,0.0,9e-08,0.0,0.0,0.0,9e-08
1536691602678338072,963,1536691602676893240,base_link,-0.0776538323266,-0.0342760263509,-0.904559739816,-0.417811815829,1.0,0.0,0.0,0.0,1.0,0.0,0.0,0.0,1.0,-0.0985307693481,0.0862182453275,-0.0416143499315,1.21846967915e-07,0.0,0.0,0.0,1.21846967915e-07,0.0,0.0,0.0,1.21846967915e-07,-0.12748645,0.22555295,8.20816605,9e-08,0.0,0.0,0.0,9e-08,0.0,0.0,0.0,9e-08
1536691603121414040,964,1536691603121133016,base_link,-0.0554107244754,-0.0394547825862,-0.901845346714,-0.426670765761,1.0,0.0,0.0,0.0,1.0,0.0,0.0,0.0,1.0,0.00440895929933,0.102007485926,-0.0540283843875,1.21846967915e-07,0.0,0.0,0.0,1.21846967915e-07,0.0,0.0,0.0,1.21846967915e-07,-0.3334261,0.4511059,7.9041599,9e-08,0.0,0.0,0.0,9e-08,0.0,0.0,0.0,9e-08
1536691603493649176,965,1536691603493383096,base_link,-0.0356009706957,-0.0482617379519,-0.898563437118,-0.434726494489,1.0,0.0,0.0,0.0,1.0,0.0,0.0,0.0,1.0,-0.00161055661738,0.106407567859,-0.0559629499912,1.21846967915e-07,0.0,0.0,0.0,1.21846967915e-07,0.0,0.0,0.0,1.21846967915e-07,-0.2745862,0.22555295,7.73744685,9e-08,0.0,0.0,0.0,9e-08,0.0,0.0,0.0,9e-08
1536691603838220056,966,1536691603837948632,base_link,-0.0175398830744,-0.0550010190197,-0.895683190659,-0.440929543554,1.0,0.0,0.0,0.0,1.0,0.0,0.0,0.0,1.0,-0.0587758086622,0.0808661580086,-0.0401200652122,1.21846967915e-07,0.0,0.0,0.0,1.21846967915e-07,0.0,0.0,0.0,1.21846967915e-07,-0.2941995,0.4903325,8.4729456,9e-08,0.0,0.0,0.0,9e-08,0.0,0.0,0.0,9e-08
1536691604246926008,967,1536691604246571480,base_link,-0.00409437535557,-0.0628016674894,-0.890415013296,-0.45077742928,1.0,0.0,0.0,0.0,1.0,0.0,0.0,0.0,1.0,0.100741378963,0.0506735146046,-0.0604002699256,1.21846967915e-07,0.0,0.0,0.0,1.21846967915e-07,0.0,0.0,0.0,1.21846967915e-07,-0.1765197,0.18632635,8.7083052,9e-08,0.0,0.0,0.0,9e-08,0.0,0.0,0.0,9e-08
1536691604554191352,968,1536691604553865624,base_link,-0.0111712853519,-0.0881549122027,-0.887407123407,-0.452341144674,1.0,0.0,0.0,0.0,1.0,0.0,0.0,0.0,1.0,0.124582655728,0.018667222932,-7.74299260229e-05,1.21846967915e-07,0.0,0.0,0.0,1.21846967915e-07,0.0,0.0,0.0,1.21846967915e-07,-0.196133,0.5099458,9.414384,9e-08,0.0,0.0,0.0,9e-08,0.0,0.0,0.0,9e-08
1536691604965622968,969,1536691604964217912,base_link,-0.0172673486697,-0.109432548792,-0.88105872947,-0.459849835445,1.0,0.0,0.0,0.0,1.0,0.0,0.0,0.0,1.0,0.165541544557,-0.00229835044593,-0.0968856960535,1.21846967915e-07,0.0,0.0,0.0,1.21846967915e-07,0.0,0.0,0.0,1.21846967915e-07,-0.0980665,0.4903325,9.81645665,9e-08,0.0,0.0,0.0,9e-08,0.0,0.0,0.0,9e-08
1536691605345389912,970,1536691605343107640,base_link,-0.0351888031346,-0.14677418085,-0.865688668706,-0.477286304899,1.0,0.0,0.0,0.0,1.0,0.0,0.0,0.0,1.0,0.17659072578,-0.0308472663164,-0.114616110921,1.21846967915e-07,0.0,0.0,0.0,1.21846967915e-07,0.0,0.0,0.0,1.21846967915e-07,-0.04903325,0.4511059,9.1790244,9e-08,0.0,0.0,0.0,9e-08,0.0,0.0,0.0,9e-08
1536691605737084920,971,1536691605736822680,base_link,-0.0892222598971,-0.226684939133,-0.833247505237,-0.496338515255,1.0,0.0,0.0,0.0,1.0,0.0,0.0,0.0,1.0,0.592062115669,-0.108663186431,-0.150780379772,1.21846967915e-07,0.0,0.0,0.0,1.21846967915e-07,0.0,0.0,0.0,1.21846967915e-07,0.1176798,0.7453054,10.30678915,9e-08,0.0,0.0,0.0,9e-08,0.0,0.0,0.0,9e-08
1536691606197626328,972,1536691606197290840,base_link,-0.153172896843,-0.285868502522,-0.781776795432,-0.532580796747,1.0,0.0,0.0,0.0,1.0,0.0,0.0,0.0,1.0,0.211212798953,-0.193465992808,-0.242346659303,1.21846967915e-07,0.0,0.0,0.0,1.21846967915e-07,0.0,0.0,0.0,1.21846967915e-07,0.30400615,0.9022118,11.3168741,9e-08,0.0,0.0,0.0,9e-08,0.0,0.0,0.0,9e-08
1536691606616699672,973,1536691606614932024,base_link,-0.194719320661,-0.295486146117,-0.727637535985,-0.58763589053,1.0,0.0,0.0,0.0,1.0,0.0,0.0,0.0,1.0,0.180333510041,-0.275723785162,-0.320622742176,1.21846967915e-07,0.0,0.0,0.0,1.21846967915e-07,0.0,0.0,0.0,1.21846967915e-07,0.9022118,0.9414384,12.2386992,9e-08,0.0,0.0,0.0,9e-08,0.0,0.0,0.0,9e-08
1536691607047580760,974,1536691607047093304,base_link,-0.241536377918,-0.279220507472,-0.663128805041,-0.651119247354,1.0,0.0,0.0,0.0,1.0,0.0,0.0,0.0,1.0,0.0759851410985,-0.367954820395,-0.260393112898,1.21846967915e-07,0.0,0.0,0.0,1.21846967915e-07,0.0,0.0,0.0,1.21846967915e-07,1.46119085,0.784532,14.709975,9e-08,0.0,0.0,0.0,9e-08,0.0,0.0,0.0,9e-08
1536691607394955704,975,1536691607394209624,base_link,-0.278328807573,-0.253870690197,-0.612440059797,-0.694981957097,1.0,0.0,0.0,0.0,1.0,0.0,0.0,0.0,1.0,0.0429596528411,-0.383338034153,-0.264519989491,1.21846967915e-07,0.0,0.0,0.0,1.21846967915e-07,0.0,0.0,0.0,1.21846967915e-07,1.53964405,1.0002783,15.56315355,9e-08,0.0,0.0,0.0,9e-08,0.0,0.0,0.0,9e-08
1536691607865701944,976,1536691607865281656,base_link,-0.319977169571,-0.206326490344,-0.53470650145,-0.754409005542,1.0,0.0,0.0,0.0,1.0,0.0,0.0,0.0,1.0,-0.0114715397358,-0.409274607897,-0.260245084763,1.21846967915e-07,0.0,0.0,0.0,1.21846967915e-07,0.0,0.0,0.0,1.21846967915e-07,1.87307015,1.2160246,16.62227175,9e-08,0.0,0.0,0.0,9e-08,0.0,0.0,0.0,9e-08
1536691608298406968,977,1536691608298111064,base_link,-0.346399163116,-0.159764918043,-0.463428786586,-0.799822824454,1.0,0.0,0.0,0.0,1.0,0.0,0.0,0.0,1.0,-0.0330995097756,-0.37056851387,-0.268723756075,1.21846967915e-07,0.0,0.0,0.0,1.21846967915e-07,0.0,0.0,0.0,1.21846967915e-07,1.4317709,1.04931155,15.26895405,9e-08,0.0,0.0,0.0,9e-08,0.0,0.0,0.0,9e-08
1536691608593468312,978,1536691608592280440,base_link,-0.366732797908,-0.137364198937,-0.408401717808,-0.824527845909,1.0,0.0,0.0,0.0,1.0,0.0,0.0,0.0,1.0,0.0341089144349,-0.305276572704,-0.320075035095,1.21846967915e-07,0.0,0.0,0.0,1.21846967915e-07,0.0,0.0,0.0,1.21846967915e-07,1.3925443,1.16699135,14.50403535,9e-08,0.0,0.0,0.0,9e-08,0.0,0.0,0.0,9e-08
1536691609161740760,979,1536691609161431512,base_link,-0.390923569453,-0.101868709662,-0.300212939728,-0.864102840903,1.0,0.0,0.0,0.0,1.0,0.0,0.0,0.0,1.0,-0.00902641937137,-0.306247115135,-0.286463409662,1.21846967915e-07,0.0,0.0,0.0,1.21846967915e-07,0.0,0.0,0.0,1.21846967915e-07,0.8237586,0.87279185,12.60154525,9e-08,0.0,0.0,0.0,9e-08,0.0,0.0,0.0,9e-08
1536691609486262328,980,1536691609485687928,base_link,-0.398894081723,-0.076752358355,-0.238759463631,-0.882035433291,1.0,0.0,0.0,0.0,1.0,0.0,0.0,0.0,1.0,-0.0355634763837,-0.30226790905,-0.297829985619,1.21846967915e-07,0.0,0.0,0.0,1.21846967915e-07,0.0,0.0,0.0,1.21846967915e-07,0.59820565,0.9414384,13.1212977,9e-08,0.0,0.0,0.0,9e-08,0.0,0.0,0.0,9e-08
1536691609888868888,981,1536691609888543192,base_link,-0.399248509147,-0.0418610621974,-0.15954678736,-0.90188308669,1.0,0.0,0.0,0.0,1.0,0.0,0.0,0.0,1.0,-0.119833007455,-0.302764952183,-0.314336061478,1.21846967915e-07,0.0,0.0,0.0,1.21846967915e-07,0.0,0.0,0.0,1.21846967915e-07,0.75511205,1.0787315,14.0627361,9e-08,0.0,0.0,0.0,9e-08,0.0,0.0,0.0,9e-08
1536691610324903960,982,1536691610324426200,base_link,-0.375412829351,-0.0094908312752,-0.0659554984194,-0.924459303544,1.0,0.0,0.0,0.0,1.0,0.0,0.0,0.0,1.0,-0.288047224283,-0.254068046808,-0.324691474438,1.21846967915e-07,0.0,0.0,0.0,1.21846967915e-07,0.0,0.0,0.0,1.21846967915e-07,0.2157463,0.51975245,11.4933938,9e-08,0.0,0.0,0.0,9e-08,0.0,0.0,0.0,9e-08
1536691610621627672,983,1536691610620298616,base_link,-0.347076113962,0.0136422891789,-0.0118481847641,-0.937662881627,1.0,0.0,0.0,0.0,1.0,0.0,0.0,0.0,1.0,-0.292688012123,-0.247678413987,-0.262598276138,1.21846967915e-07,0.0,0.0,0.0,1.21846967915e-07,0.0,0.0,0.0,1.21846967915e-07,-0.02941995,0.93163175,13.3174307,9e-08,0.0,0.0,0.0,9e-08,0.0,0.0,0.0,9e-08
1536691611044931640,984,1536691611044363000,base_link,-0.267930257928,0.0297751532626,0.0572589282981,-0.961274275254,1.0,0.0,0.0,0.0,1.0,0.0,0.0,0.0,1.0,-0.570120632648,-0.122233055532,-0.25449681282,1.21846967915e-07,0.0,0.0,0.0,1.21846967915e-07,0.0,0.0,0.0,1.21846967915e-07,-0.3334261,0.93163175,11.7287534,9e-08,0.0,0.0,0.0,9e-08,0.0,0.0,0.0,9e-08
1536691611321501176,985,1536691611320501272,base_link,-0.193120903476,0.0281614321432,0.0941793270238,-0.976238446662,1.0,0.0,0.0,0.0,1.0,0.0,0.0,0.0,1.0,-0.566024780273,-0.0596845671535,-0.225502118468,1.21846967915e-07,0.0,0.0,0.0,1.21846967915e-07,0.0,0.0,0.0,1.21846967915e-07,-0.53936575,0.71588545,10.79712165,9e-08,0.0,0.0,0.0,9e-08,0.0,0.0,0.0,9e-08
1536691611682233816,986,1536691611681930456,base_link,-0.0957286112432,0.0162011889477,0.128219430743,-0.986981930962,1.0,0.0,0.0,0.0,1.0,0.0,0.0,0.0,1.0,-0.527081489563,0.0131913758814,-0.133627712727,1.21846967915e-07,0.0,0.0,0.0,1.21846967915e-07,0.0,0.0,0.0,1.21846967915e-07,-0.7256921,0.4314926,9.14960445,9e-08,0.0,0.0,0.0,9e-08,0.0,0.0,0.0,9e-08
1536691612130390872,987,1536691612127275512,base_link,-0.00105921654858,-0.0048807628297,0.146855584117,-0.989145334937,1.0,0.0,0.0,0.0,1.0,0.0,0.0,0.0,1.0,-0.397231191397,0.041709471494,-0.0335311591625,1.21846967915e-07,0.0,0.0,0.0,1.21846967915e-07,0.0,0.0,0.0,1.21846967915e-07,-0.8237586,0.24516625,8.8063717,9e-08,0.0,0.0,0.0,9e-08,0.0,0.0,0.0,9e-08
1536691612599538872,988,1536691612599275704,base_link,0.0654718979298,-0.0283928787398,0.13911286759,-0.987701819928,1.0,0.0,0.0,0.0,1.0,0.0,0.0,0.0,1.0,-0.236887857318,0.0651709735394,0.0635003075004,1.21846967915e-07,0.0,0.0,0.0,1.21846967915e-07,0.0,0.0,0.0,1.21846967915e-07,-0.8237586,0.1372931,8.71811185,9e-08,0.0,0.0,0.0,9e-08,0.0,0.0,0.0,9e-08
1536691613038176248,989,1536691613037928504,base_link,0.0933378439453,-0.0476031691981,0.120394329449,-0.987181437531,1.0,0.0,0.0,0.0,1.0,0.0,0.0,0.0,1.0,-0.0884918570518,0.0709514841437,0.0954897031188,1.21846967915e-07,0.0,0.0,0.0,1.21846967915e-07,0.0,0.0,0.0,1.21846967915e-07,-0.8433719,0.2353596,8.48275225,9e-08,0.0,0.0,0.0,9e-08,0.0,0.0,0.0,9e-08
1536691613402166072,990,1536691613401828568,base_link,0.107967395015,-0.0608326952617,0.103253103941,-0.986904869442,1.0,0.0,0.0,0.0,1.0,0.0,0.0,0.0,1.0,-0.0720008313656,0.0399504266679,0.0912080258131,1.21846967915e-07,0.0,0.0,0.0,1.21846967915e-07,0.0,0.0,0.0,1.21846967915e-07,-0.67665885,0.10787315,8.825985,9e-08,0.0,0.0,0.0,9e-08,0.0,0.0,0.0,9e-08
1536691613683532088,991,1536691613676173272,base_link,0.111527074363,-0.0650206776203,0.0867874256605,-0.987826890661,1.0,0.0,0.0,0.0,1.0,0.0,0.0,0.0,1.0,-0.0412326082587,-0.00689173862338,0.126971900463,1.21846967915e-07,0.0,0.0,0.0,1.21846967915e-07,0.0,0.0,0.0,1.21846967915e-07,-0.8237586,0.3138128,9.09076455,9e-08,0.0,0.0,0.0,9e-08,0.0,0.0,0.0,9e-08
1536691614090651448,992,1536691614088020824,base_link,0.108468581026,-0.0625439924669,0.0572996333948,-0.990474415596,1.0,0.0,0.0,0.0,1.0,0.0,0.0,0.0,1.0,0.0249145831913,-0.0461733825505,0.139794260263,1.21846967915e-07,0.0,0.0,0.0,1.21846967915e-07,0.0,0.0,0.0,1.21846967915e-07,-0.7060788,0.08825985,10.38524235,9e-08,0.0,0.0,0.0,9e-08,0.0,0.0,0.0,9e-08
1536691614576307448,993,1536691614576049880,base_link,0.0918954320854,-0.0537477446285,0.0274535771401,-0.99393798127,1.0,0.0,0.0,0.0,1.0,0.0,0.0,0.0,1.0,0.142369657755,-0.0395825877786,0.0903471708298,1.21846967915e-07,0.0,0.0,0.0,1.21846967915e-07,0.0,0.0,0.0,1.21846967915e-07,-0.6668522,0.50013915,10.5519554,9e-08,0.0,0.0,0.0,9e-08,0.0,0.0,0.0,9e-08
1536691615007075704,994,1536691615006757496,base_link,0.0640233863709,-0.0432001561625,0.0105979892048,-0.996956586382,1.0,0.0,0.0,0.0,1.0,0.0,0.0,0.0,1.0,0.190441474319,-0.0510887801647,0.0949537158012,1.21846967915e-07,0.0,0.0,0.0,1.21846967915e-07,0.0,0.0,0.0,1.21846967915e-07,-0.5295591,0.00980665,10.26756255,9e-08,0.0,0.0,0.0,9e-08,0.0,0.0,0.0,9e-08
1536691615474146008,995,1536691615473851896,base_link,0.0247138178525,-0.032072460939,-0.0199805766345,-0.998980160471,1.0,0.0,0.0,0.0,1.0,0.0,0.0,0.0,1.0,0.0933851599693,-0.0455996841192,0.0871142223477,1.21846967915e-07,0.0,0.0,0.0,1.21846967915e-07,0.0,0.0,0.0,1.21846967915e-07,-0.40207265,0.4511059,10.7480884,9e-08,0.0,0.0,0.0,9e-08,0.0,0.0,0.0,9e-08
1536691615888172376,996,1536691615884263768,base_link,-0.000774152753766,-0.0261445540113,-0.0292202420826,-0.999230724325,1.0,0.0,0.0,0.0,1.0,0.0,0.0,0.0,1.0,0.158150479198,0.00301991123706,0.0181800946593,1.21846967915e-07,0.0,0.0,0.0,1.21846967915e-07,0.0,0.0,0.0,1.21846967915e-07,-0.3334261,0.50013915,10.787315,9e-08,0.0,0.0,0.0,9e-08,0.0,0.0,0.0,9e-08
1536691616295109784,997,1536691616289298232,base_link,-0.0221587300484,-0.026441799913,-0.0266617333528,-0.99904903477,1.0,0.0,0.0,0.0,1.0,0.0,0.0,0.0,1.0,0.00590100232512,0.0109544126317,-0.0229798667133,1.21846967915e-07,0.0,0.0,0.0,1.21846967915e-07,0.0,0.0,0.0,1.21846967915e-07,-0.28439285,0.46091255,10.65982855,9e-08,0.0,0.0,0.0,9e-08,0.0,0.0,0.0,9e-08
1536691616545660824,998,1536691616545349752,base_link,-0.021160227142,-0.027569245488,-0.0239134320804,-0.999109768372,1.0,0.0,0.0,0.0,1.0,0.0,0.0,0.0,1.0,0.0107674850151,0.0176899246871,-0.0127115510404,1.21846967915e-07,0.0,0.0,0.0,1.21846967915e-07,0.0,0.0,0.0,1.21846967915e-07,-0.28439285,0.24516625,9.24767095,9e-08,0.0,0.0,0.0,9e-08,0.0,0.0,0.0,9e-08
1536691616926595192,999,1536691616926281048,base_link,-0.0152682843534,-0.0277394010638,-0.0271403639711,-0.999130024454,1.0,0.0,0.0,0.0,1.0,0.0,0.0,0.0,1.0,-0.0571666434407,0.0100338663906,0.0117033012211,1.21846967915e-07,0.0,0.0,0.0,1.21846967915e-07,0.0,0.0,0.0,1.21846967915e-07,-0.24516625,0.48052585,10.3558224,9e-08,0.0,0.0,0.0,9e-08,0.0,0.0,0.0,9e-08
1536691617245143608,1000,1536691617244875960,base_link,-0.00039288019303,-0.0246295652145,-0.0292666582449,-0.999268078584,1.0,0.0,0.0,0.0,1.0,0.0,0.0,0.0,1.0,0.0009755063802,-0.0182275790721,0.00400345819071,1.21846967915e-07,0.0,0.0,0.0,1.21846967915e-07,0.0,0.0,0.0,1.21846967915e-07,-0.22555295,0.46091255,10.52253545,9e-08,0.0,0.0,0.0,9e-08,0.0,0.0,0.0,9e-08
1536691617624801784,1001,1536691617624310520,base_link,-0.0153535487186,-0.0222785436426,-0.0323559789593,-0.999110116884,1.0,0.0,0.0,0.0,1.0,0.0,0.0,0.0,1.0,0.0803665816784,-0.0205387696624,0.0276923961937,1.21846967915e-07,0.0,0.0,0.0,1.21846967915e-07,0.0,0.0,0.0,1.21846967915e-07,-0.0588399,0.40207265,10.60098865,9e-08,0.0,0.0,0.0,9e-08,0.0,0.0,0.0,9e-08
1536691617934239416,1002,1536691617933792280,base_link,-0.0195552416821,-0.020392932145,-0.0344852503927,-0.999005749907,1.0,0.0,0.0,0.0,1.0,0.0,0.0,0.0,1.0,-0.0346451289952,-0.0143954027444,-0.00472972495481,1.21846967915e-07,0.0,0.0,0.0,1.21846967915e-07,0.0,0.0,0.0,1.21846967915e-07,-0.16671305,0.38245935,9.93413645,9e-08,0.0,0.0,0.0,9e-08,0.0,0.0,0.0,9e-08
1536691618248220952,1003,1536691618247986296,base_link,-0.0247860427195,-0.0172890965256,-0.0340076710786,-0.998964572713,1.0,0.0,0.0,0.0,1.0,0.0,0.0,0.0,1.0,0.0190821383148,-0.019989553839,0.0191466063261,1.21846967915e-07,0.0,0.0,0.0,1.21846967915e-07,0.0,0.0,0.0,1.21846967915e-07,-0.0980665,0.4314926,10.6304086,9e-08,0.0,0.0,0.0,9e-08,0.0,0.0,0.0,9e-08
1536691618647637016,1004,1536691618647353272,base_link,-0.0407732286896,-0.0139925772071,-0.0375625898662,-0.99836406358,1.0,0.0,0.0,0.0,1.0,0.0,0.0,0.0,1.0,0.090735591948,-0.0175972450525,0.00492840167135,1.21846967915e-07,0.0,0.0,0.0,1.21846967915e-07,0.0,0.0,0.0,1.21846967915e-07,0.0196133,0.6080123,10.30678915,9e-08,0.0,0.0,0.0,9e-08,0.0,0.0,0.0,9e-08
1536691618958045304,1005,1536691618953985208,base_link,-0.0580059450433,-0.0139217451376,-0.0324234479155,-0.997692445284,1.0,0.0,0.0,0.0,1.0,0.0,0.0,0.0,1.0,0.209497660398,0.00634745135903,-0.0779924541712,1.21846967915e-07,0.0,0.0,0.0,1.21846967915e-07,0.0,0.0,0.0,1.21846967915e-07,0.0,0.53936575,9.69877685,9e-08,0.0,0.0,0.0,9e-08,0.0,0.0,0.0,9e-08
1536691619293772824,1006,1536691619292848440,base_link,-0.128757659962,-0.0186196464797,-0.0137730867447,-0.991405606121,1.0,0.0,0.0,0.0,1.0,0.0,0.0,0.0,1.0,0.523865759373,0.021062778309,-0.127123773098,1.21846967915e-07,0.0,0.0,0.0,1.21846967915e-07,0.0,0.0,0.0,1.21846967915e-07,0.02941995,0.59820565,7.9826131,9e-08,0.0,0.0,0.0,9e-08,0.0,0.0,0.0,9e-08
1536691619653864024,1007,1536691619653643160,base_link,-0.188324242987,-0.0203081759027,0.0161961519611,-0.981763333068,1.0,0.0,0.0,0.0,1.0,0.0,0.0,0.0,1.0,0.266680687666,-0.0146372392774,-0.172550261021,1.21846967915e-07,0.0,0.0,0.0,1.21846967915e-07,0.0,0.0,0.0,1.21846967915e-07,0.0784532,0.6472389,11.3168741,9e-08,0.0,0.0,0.0,9e-08,0.0,0.0,0.0,9e-08
1536691620051511384,1008,1536691620050785368,base_link,-0.228804338984,-0.0152523850356,0.0565550096642,-0.971708531451,1.0,0.0,0.0,0.0,1.0,0.0,0.0,0.0,1.0,0.321489840746,-0.0798001438379,-0.24478712678,1.21846967915e-07,0.0,0.0,0.0,1.21846967915e-07,0.0,0.0,0.0,1.21846967915e-07,0.02941995,0.5687857,9.65955025,9e-08,0.0,0.0,0.0,9e-08,0.0,0.0,0.0,9e-08
1536691620328785944,1009,1536691620327287672,base_link,-0.28322056318,-0.0015878335434,0.0892547463197,-0.954891188375,1.0,0.0,0.0,0.0,1.0,0.0,0.0,0.0,1.0,0.397880017757,-0.183768123388,-0.131181612611,1.21846967915e-07,0.0,0.0,0.0,1.21846967915e-07,0.0,0.0,0.0,1.21846967915e-07,0.20593965,-0.48052585,11.91507975,9e-08,0.0,0.0,0.0,9e-08,0.0,0.0,0.0,9e-08
1536691620797928632,1010,1536691620797656248,base_link,-0.319424112905,0.0335640805911,0.120817597141,-0.939278870629,1.0,0.0,0.0,0.0,1.0,0.0,0.0,0.0,1.0,-0.0698274448514,-0.117852889001,-0.33733934164,1.21846967915e-07,0.0,0.0,0.0,1.21846967915e-07,0.0,0.0,0.0,1.21846967915e-07,0.24516625,1.89268345,11.2188076,9e-08,0.0,0.0,0.0,9e-08,0.0,0.0,0.0,9e-08
1536691621150668984,1011,1536691621150141048,base_link,-0.34657616137,0.0449940585557,0.198844384067,-0.915598935118,1.0,0.0,0.0,0.0,1.0,0.0,0.0,0.0,1.0,0.224035471678,-0.258245706558,-0.40055090189,1.21846967915e-07,0.0,0.0,0.0,1.21846967915e-07,0.0,0.0,0.0,1.21846967915e-07,0.4314926,0.7453054,12.24850585,9e-08,0.0,0.0,0.0,9e-08,0.0,0.0,0.0,9e-08
1536691621486059384,1012,1536691621485569336,base_link,-0.366489160732,0.0798816809782,0.267901315089,-0.887430840958,1.0,0.0,0.0,0.0,1.0,0.0,0.0,0.0,1.0,0.183094203472,-0.367802023888,-0.272596567869,1.21846967915e-07,0.0,0.0,0.0,1.21846967915e-07,0.0,0.0,0.0,1.21846967915e-07,0.65704555,0.3726527,13.4547238,9e-08,0.0,0.0,0.0,9e-08,0.0,0.0,0.0,9e-08
1536691621854671192,1013,1536691621854071704,base_link,-0.353155361467,0.121511018931,0.327601878582,-0.867867139656,1.0,0.0,0.0,0.0,1.0,0.0,0.0,0.0,1.0,-0.0854044482112,-0.309843569994,-0.276373416185,1.21846967915e-07,0.0,0.0,0.0,1.21846967915e-07,0.0,0.0,0.0,1.21846967915e-07,0.97085835,1.30428445,12.17005265,9e-08,0.0,0.0,0.0,9e-08,0.0,0.0,0.0,9e-08
1536691622241468376,1014,1536691622241113752,base_link,-0.334638384965,0.14754382297,0.404493512432,-0.838232050217,1.0,0.0,0.0,0.0,1.0,0.0,0.0,0.0,1.0,0.0573474466801,-0.35200047493,-0.366883218288,1.21846967915e-07,0.0,0.0,0.0,1.21846967915e-07,0.0,0.0,0.0,1.21846967915e-07,0.67665885,0.7649187,13.337044,9e-08,0.0,0.0,0.0,9e-08,0.0,0.0,0.0,9e-08
1536691622584511000,1015,1536691622582312568,base_link,-0.322661624519,0.186216676629,0.464820174918,-0.803215432121,1.0,0.0,0.0,0.0,1.0,0.0,0.0,0.0,1.0,0.0651956275105,-0.364829719067,-0.245715647936,1.21846967915e-07,0.0,0.0,0.0,1.21846967915e-07,0.0,0.0,0.0,1.21846967915e-07,0.91201845,0.89240515,15.91619295,9e-08,0.0,0.0,0.0,9e-08,0.0,0.0,0.0,9e-08
1536691622975727000,1016,1536691622975419160,base_link,-0.312034187129,0.225068332053,0.525284455097,-0.758982972934,1.0,0.0,0.0,0.0,1.0,0.0,0.0,0.0,1.0,0.0651827603579,-0.286585211754,-0.315600812435,1.21846967915e-07,0.0,0.0,0.0,1.21846967915e-07,0.0,0.0,0.0,1.21846967915e-07,0.73549875,0.8237586,12.46425215,9e-08,0.0,0.0,0.0,9e-08,0.0,0.0,0.0,9e-08
1536691623418698456,1017,1536691623412951384,base_link,-0.288330897427,0.249470137267,0.597031845904,-0.705820741532,1.0,0.0,0.0,0.0,1.0,0.0,0.0,0.0,1.0,-0.152484610677,-0.31043201685,-0.312153100967,1.21846967915e-07,0.0,0.0,0.0,1.21846967915e-07,0.0,0.0,0.0,1.21846967915e-07,0.69627215,0.9022118,13.71950335,9e-08,0.0,0.0,0.0,9e-08,0.0,0.0,0.0,9e-08
1536691623807170904,1018,1536691623806700824,base_link,-0.243354860447,0.253043359771,0.660190829797,-0.663999652277,1.0,0.0,0.0,0.0,1.0,0.0,0.0,0.0,1.0,-0.137935966253,-0.307632952929,-0.314503133297,1.21846967915e-07,0.0,0.0,0.0,1.21846967915e-07,0.0,0.0,0.0,1.21846967915e-07,0.44129925,1.06892485,14.68055505,9e-08,0.0,0.0,0.0,9e-08,0.0,0.0,0.0,9e-08
1536691624192336152,1019,1536691624192050392,base_link,0.179739709925,-0.236595335761,-0.70908284693,0.639466809116,1.0,0.0,0.0,0.0,1.0,0.0,0.0,0.0,1.0,-0.428658753633,-0.223405092955,-0.123156994581,1.21846967915e-07,0.0,0.0,0.0,1.21846967915e-07,0.0,0.0,0.0,1.21846967915e-07,0.0784532,0.42168595,11.48358715,9e-08,0.0,0.0,0.0,9e-08,0.0,0.0,0.0,9e-08
1536691624514073944,1020,1536691624513734488,base_link,0.121552240882,-0.189470600664,-0.744966493268,0.627973620568,1.0,0.0,0.0,0.0,1.0,0.0,0.0,0.0,1.0,-0.42093154788,-0.0428378880024,-0.224074319005,1.21846967915e-07,0.0,0.0,0.0,1.21846967915e-07,0.0,0.0,0.0,1.21846967915e-07,0.0196133,1.0591182,12.36618565,9e-08,0.0,0.0,0.0,9e-08,0.0,0.0,0.0,9e-08
1536691625006909272,1021,1536691625006520088,base_link,0.0587537029494,-0.109123623788,-0.790101272184,0.600316597151,1.0,0.0,0.0,0.0,1.0,0.0,0.0,0.0,1.0,-0.39649233222,-0.006705715321,-0.130379229784,1.21846967915e-07,0.0,0.0,0.0,1.21846967915e-07,0.0,0.0,0.0,1.21846967915e-07,-0.28439285,0.36284605,11.09132115,9e-08,0.0,0.0,0.0,9e-08,0.0,0.0,0.0,9e-08
1536691625391972312,1022,1536691625391558072,base_link,0.0176709502757,-0.0464283343391,-0.804867045715,0.591372290531,1.0,0.0,0.0,0.0,1.0,0.0,0.0,0.0,1.0,-0.334614992142,0.0340911485255,-0.00776636041701,1.21846967915e-07,0.0,0.0,0.0,1.21846967915e-07,0.0,0.0,0.0,1.21846967915e-07,-0.5295591,0.16671305,10.5127288,9e-08,0.0,0.0,0.0,9e-08,0.0,0.0,0.0,9e-08
1536691625895470072,1023,1536691625891645592,base_link,-0.0154723904101,0.0373042726531,-0.802253021424,0.595616559535,1.0,0.0,0.0,0.0,1.0,0.0,0.0,0.0,1.0,-0.23628821969,0.104520969093,0.0277479495853,1.21846967915e-07,0.0,0.0,0.0,1.21846967915e-07,0.0,0.0,0.0,1.21846967915e-07,-0.85317855,0.4511059,7.9041599,9e-08,0.0,0.0,0.0,9e-08,0.0,0.0,0.0,9e-08
1536691626340879640,1024,1536691626340221496,base_link,-0.0107922007406,0.0790486681486,-0.793757824717,0.602978732765,1.0,0.0,0.0,0.0,1.0,0.0,0.0,0.0,1.0,-0.148892313242,0.130054339767,0.0673850700259,1.21846967915e-07,0.0,0.0,0.0,1.21846967915e-07,0.0,0.0,0.0,1.21846967915e-07,-1.0002783,0.2941995,6.9431082,9e-08,0.0,0.0,0.0,9e-08,0.0,0.0,0.0,9e-08
1536691626622973304,1025,1536691626622434424,base_link,-0.00982025915399,0.0965605514063,-0.786405461238,0.610037763551,1.0,0.0,0.0,0.0,1.0,0.0,0.0,0.0,1.0,-0.096747815609,0.070040024817,0.0797923356295,1.21846967915e-07,0.0,0.0,0.0,1.21846967915e-07,0.0,0.0,0.0,1.21846967915e-07,-0.8825985,0.3334261,7.77667345,9e-08,0.0,0.0,0.0,9e-08,0.0,0.0,0.0,9e-08
1536691627000096216,1026,1536691626998149880,base_link,-0.00933920720543,0.120591576477,-0.771347364309,0.62481492817,1.0,0.0,0.0,0.0,1.0,0.0,0.0,0.0,1.0,-0.0631754472852,0.0546967536211,0.0957282632589,1.21846967915e-07,0.0,0.0,0.0,1.21846967915e-07,0.0,0.0,0.0,1.21846967915e-07,-0.71588545,0.2157463,8.6690786,9e-08,0.0,0.0,0.0,9e-08,0.0,0.0,0.0,9e-08
1536691627303991864,1027,1536691627302952216,base_link,-0.00788735176014,0.128770482693,-0.762740441546,0.633705745042,1.0,0.0,0.0,0.0,1.0,0.0,0.0,0.0,1.0,0.0520958155394,0.0184844303876,0.0544589757919,1.21846967915e-07,0.0,0.0,0.0,1.21846967915e-07,0.0,0.0,0.0,1.21846967915e-07,-0.8041453,0.2157463,8.03164635,9e-08,0.0,0.0,0.0,9e-08,0.0,0.0,0.0,9e-08
1536691627804141048,1028,1536691627803836696,base_link,-0.00753292955288,0.127529013063,-0.749147289174,0.649967649136,1.0,0.0,0.0,0.0,1.0,0.0,0.0,0.0,1.0,-0.010826642625,-0.0256695225835,0.0599747411907,1.21846967915e-07,0.0,0.0,0.0,1.21846967915e-07,0.0,0.0,0.0,1.21846967915e-07,-0.59820565,0.4707192,9.54187045,9e-08,0.0,0.0,0.0,9e-08,0.0,0.0,0.0,9e-08
1536691628160390488,1029,1536691628159902488,base_link,-0.0131041898548,0.12295540174,-0.74097754043,0.660047372519,1.0,0.0,0.0,0.0,1.0,0.0,0.0,0.0,1.0,0.112498439848,-0.0620710216463,0.0563686303794,1.21846967915e-07,0.0,0.0,0.0,1.21846967915e-07,0.0,0.0,0.0,1.21846967915e-07,-0.51975245,0.04903325,10.22833595,9e-08,0.0,0.0,0.0,9e-08,0.0,0.0,0.0,9e-08
1536691628501121912,1030,1536691628500805560,base_link,-0.00603124083128,0.0941548859161,-0.727129924233,0.679985701965,1.0,0.0,0.0,0.0,1.0,0.0,0.0,0.0,1.0,0.0726331174374,-0.107028871775,0.193978354335,1.21846967915e-07,0.0,0.0,0.0,1.21846967915e-07,0.0,0.0,0.0,1.21846967915e-07,-0.30400615,-0.0784532,12.0621795,9e-08,0.0,0.0,0.0,9e-08,0.0,0.0,0.0,9e-08
1536691628939546264,1031,1536691628939246296,base_link,0.0102958244091,-0.0699931279116,0.699738902948,-0.710887069615,1.0,0.0,0.0,0.0,1.0,0.0,0.0,0.0,1.0,0.131976887584,-0.0924840196967,0.0665206238627,1.21846967915e-07,0.0,0.0,0.0,1.21846967915e-07,0.0,0.0,0.0,1.21846967915e-07,-0.2353596,0.4707192,12.748645,9e-08,0.0,0.0,0.0,9e-08,0.0,0.0,0.0,9e-08
1536691629279918872,1032,1536691629279625048,base_link,-0.0106860120462,-0.0363178488509,0.695972624082,-0.717069682478,1.0,0.0,0.0,0.0,1.0,0.0,0.0,0.0,1.0,0.298639059067,-0.0508945286274,-0.00113845686428,1.21846967915e-07,0.0,0.0,0.0,1.21846967915e-07,0.0,0.0,0.0,1.21846967915e-07,-0.44129925,0.53936575,10.16949605,9e-08,0.0,0.0,0.0,9e-08,0.0,0.0,0.0,9e-08
1536691629718976632,1033,1536691629718705592,base_link,-0.0435962615904,0.00905774051103,0.698760646965,-0.713968403758,1.0,0.0,0.0,0.0,1.0,0.0,0.0,0.0,1.0,0.288247972727,-0.0149045381695,-0.0437312051654,1.21846967915e-07,0.0,0.0,0.0,1.21846967915e-07,0.0,0.0,0.0,1.21846967915e-07,-0.61781895,0.30400615,10.26756255,9e-08,0.0,0.0,0.0,9e-08,0.0,0.0,0.0,9e-08
1536691630088987832,1034,1536691630088427224,base_link,-0.0712079703992,0.043356184491,0.699665778274,-0.709589645451,1.0,0.0,0.0,0.0,1.0,0.0,0.0,0.0,1.0,0.255169421434,-0.0173358414322,-0.0110642509535,1.21846967915e-07,0.0,0.0,0.0,1.21846967915e-07,0.0,0.0,0.0,1.21846967915e-07,-0.46091255,0.20593965,10.3558224,9e-08,0.0,0.0,0.0,9e-08,0.0,0.0,0.0,9e-08
1536691630586113976,1035,1536691630585690168,base_link,0.0865631374143,-0.0519533524694,-0.708884785522,0.698061625692,1.0,0.0,0.0,0.0,1.0,0.0,0.0,0.0,1.0,0.0745529979467,0.0404037199914,-0.104921475053,1.21846967915e-07,0.0,0.0,0.0,1.21846967915e-07,0.0,0.0,0.0,1.21846967915e-07,-0.40207265,0.4511059,10.38524235,9e-08,0.0,0.0,0.0,9e-08,0.0,0.0,0.0,9e-08
1536691631041035544,1036,1536691631040583448,base_link,0.133051594359,-0.0885779259053,-0.71855412347,0.676853895553,1.0,0.0,0.0,0.0,1.0,0.0,0.0,0.0,1.0,0.272397726774,0.00643798802048,-0.0845693126321,1.21846967915e-07,0.0,0.0,0.0,1.21846967915e-07,0.0,0.0,0.0,1.21846967915e-07,-0.59820565,0.3726527,9.46341725,9e-08,0.0,0.0,0.0,9e-08,0.0,0.0,0.0,9e-08
1536691631502424024,1037,1536691631502056056,base_link,0.181151425452,-0.141072363419,-0.731802735247,0.641675545756,1.0,0.0,0.0,0.0,1.0,0.0,0.0,0.0,1.0,0.33760035038,-0.0639860183001,-0.140864357352,1.21846967915e-07,0.0,0.0,0.0,1.21846967915e-07,0.0,0.0,0.0,1.21846967915e-07,-0.46091255,0.2549729,9.7870367,9e-08,0.0,0.0,0.0,9e-08,0.0,0.0,0.0,9e-08
1536691631808416248,1038,1536691631807018328,base_link,0.191084041105,-0.167232349931,-0.74096045568,0.62168949926,1.0,0.0,0.0,0.0,1.0,0.0,0.0,0.0,1.0,0.107878684998,-0.107287503779,-0.131840899587,1.21846967915e-07,0.0,0.0,0.0,1.21846967915e-07,0.0,0.0,0.0,1.21846967915e-07,-0.2549729,0.95124505,13.3174307,9e-08,0.0,0.0,0.0,9e-08,0.0,0.0,0.0,9e-08
1536691632283587256,1039,1536691632282997304,base_link,0.206243761041,-0.20371941555,-0.7733339058,0.563840918079,1.0,0.0,0.0,0.0,1.0,0.0,0.0,0.0,1.0,0.340229362249,-0.137607887387,-0.252461791039,1.21846967915e-07,0.0,0.0,0.0,1.21846967915e-07,0.0,0.0,0.0,1.21846967915e-07,-0.26477955,0.51975245,11.73856005,9e-08,0.0,0.0,0.0,9e-08,0.0,0.0,0.0,9e-08
1536691632720825048,1040,1536691632713823000,base_link,0.231520675069,-0.268959214676,-0.790401797693,0.499323658622,1.0,0.0,0.0,0.0,1.0,0.0,0.0,0.0,1.0,0.363901793957,-0.16809527576,-0.262890249491,1.21846967915e-07,0.0,0.0,0.0,1.21846967915e-07,0.0,0.0,0.0,1.21846967915e-07,-0.196133,0.36284605,8.38468575,9e-08,0.0,0.0,0.0,9e-08,0.0,0.0,0.0,9e-08
1536691633087086744,1041,1536691633086409112,base_link,0.224063984141,-0.299749479773,-0.818826083254,0.435280858492,1.0,0.0,0.0,0.0,1.0,0.0,0.0,0.0,1.0,0.0528781153262,-0.274353802204,-0.344762116671,1.21846967915e-07,0.0,0.0,0.0,1.21846967915e-07,0.0,0.0,0.0,1.21846967915e-07,0.16671305,0.97085835,10.8657682,9e-08,0.0,0.0,0.0,9e-08,0.0,0.0,0.0,9e-08
1536691633458832152,1042,1536691633458207640,base_link,0.199797873289,-0.320824566076,-0.848940124392,0.369395550635,1.0,0.0,0.0,0.0,1.0,0.0,0.0,0.0,1.0,0.0702531039715,-0.374090075493,-0.283490300179,1.21846967915e-07,0.0,0.0,0.0,1.21846967915e-07,0.0,0.0,0.0,1.21846967915e-07,0.5099458,0.8629852,13.9058297,9e-08,0.0,0.0,0.0,9e-08,0.0,0.0,0.0,9e-08
1536691633847207512,1043,1536691633846857400,base_link,0.15158156207,-0.354549149218,-0.87410870258,0.295384337607,1.0,0.0,0.0,0.0,1.0,0.0,0.0,0.0,1.0,0.00428258720785,-0.393595516682,-0.243899330497,1.21846967915e-07,0.0,0.0,0.0,1.21846967915e-07,0.0,0.0,0.0,1.21846967915e-07,1.02969825,1.34351105,15.60238015,9e-08,0.0,0.0,0.0,9e-08,0.0,0.0,0.0,9e-08
1536691634291630936,1044,1536691634290590232,base_link,0.0986671510284,-0.369288418376,-0.899225269975,0.212802187957,1.0,0.0,0.0,0.0,1.0,0.0,0.0,0.0,1.0,-0.0161875002086,-0.396253228188,-0.294907480478,1.21846967915e-07,0.0,0.0,0.0,1.21846967915e-07,0.0,0.0,0.0,1.21846967915e-07,1.12776475,1.08853815,16.2005858,9e-08,0.0,0.0,0.0,9e-08,0.0,0.0,0.0,9e-08
1536691634684828248,1045,1536691634684613784,base_link,0.047262529071,-0.379804884956,-0.914538563607,0.130895830282,1.0,0.0,0.0,0.0,1.0,0.0,0.0,0.0,1.0,-0.0213202163577,-0.397172480822,-0.292359024286,1.21846967915e-07,0.0,0.0,0.0,1.21846967915e-07,0.0,0.0,0.0,1.21846967915e-07,1.2944778,1.0787315,15.3179873,9e-08,0.0,0.0,0.0,9e-08,0.0,0.0,0.0,9e-08
1536691635091307704,1046,1536691635091058232,base_link,-0.00466635124793,-0.37155867284,-0.927172844675,0.0476748770403,1.0,0.0,0.0,0.0,1.0,0.0,0.0,0.0,1.0,-0.213816568255,-0.349131584167,-0.261053293943,1.21846967915e-07,0.0,0.0,0.0,1.21846967915e-07,0.0,0.0,0.0,1.21846967915e-07,1.01008495,1.08853815,14.56287525,9e-08,0.0,0.0,0.0,9e-08,0.0,0.0,0.0,9e-08
1536691635365103736,1047,1536691635364863448,base_link,-0.0324592667473,-0.342907473993,-0.93880796075,-0.000687832692058,1.0,0.0,0.0,0.0,1.0,0.0,0.0,0.0,1.0,-0.259248167276,-0.297667503357,-0.276801884174,1.21846967915e-07,0.0,0.0,0.0,1.21846967915e-07,0.0,0.0,0.0,1.21846967915e-07,0.97085835,0.93163175,13.71950335,9e-08,0.0,0.0,0.0,9e-08,0.0,0.0,0.0,9e-08
1536691635852091448,1048,1536691635851171992,base_link,-0.0661269620142,-0.258947990866,-0.960278230043,-0.080242655899,1.0,0.0,0.0,0.0,1.0,0.0,0.0,0.0,1.0,-0.586179018021,-0.175580471754,-0.196739152074,1.21846967915e-07,0.0,0.0,0.0,1.21846967915e-07,0.0,0.0,0.0,1.21846967915e-07,0.0784532,0.8433719,12.15043935,9e-08,0.0,0.0,0.0,9e-08,0.0,0.0,0.0,9e-08
1536691636278967800,1049,1536691636278637784,base_link,-0.0674545092499,-0.134309630146,-0.97932060598,-0.13543250398,1.0,0.0,0.0,0.0,1.0,0.0,0.0,0.0,1.0,-0.530013859272,-0.033782042563,-0.168404996395,1.21846967915e-07,0.0,0.0,0.0,1.21846967915e-07,0.0,0.0,0.0,1.21846967915e-07,-0.3530394,0.73549875,10.91480145,9e-08,0.0,0.0,0.0,9e-08,0.0,0.0,0.0,9e-08
1536691636693250488,1050,1536691636692813464,base_link,-0.0520264016199,-0.0447969628099,-0.982869412666,-0.171038601794,1.0,0.0,0.0,0.0,1.0,0.0,0.0,0.0,1.0,-0.481616020203,0.0118830827996,-0.10727442801,1.21846967915e-07,0.0,0.0,0.0,1.21846967915e-07,0.0,0.0,0.0,1.21846967915e-07,-0.55897905,0.4707192,8.95347145,9e-08,0.0,0.0,0.0,9e-08,0.0,0.0,0.0,9e-08
1536691637066642744,1051,1536691637066411320,base_link,-0.0264715387702,0.0266336238586,-0.980818336372,-0.19127283851,1.0,0.0,0.0,0.0,1.0,0.0,0.0,0.0,1.0,-0.294532030821,0.0819911509752,-0.0662124603987,1.21846967915e-07,0.0,0.0,0.0,1.21846967915e-07,0.0,0.0,0.0,1.21846967915e-07,-0.65704555,0.2353596,8.09048625,9e-08,0.0,0.0,0.0,9e-08,0.0,0.0,0.0,9e-08
1536691637318771480,1052,1536691637318301880,base_link,-0.0119411317906,0.0474479870025,-0.979785128519,-0.193977317835,1.0,0.0,0.0,0.0,1.0,0.0,0.0,0.0,1.0,-0.165200054646,0.0765313506126,0.0130523359403,1.21846967915e-07,0.0,0.0,0.0,1.21846967915e-07,0.0,0.0,0.0,1.21846967915e-07,-0.8237586,0.4314926,8.62004535,9e-08,0.0,0.0,0.0,9e-08,0.0,0.0,0.0,9e-08
1536691637601397656,1053,1536691637601038840,base_link,0.00479118529092,0.0607785858802,-0.97994253449,-0.189725162112,1.0,0.0,0.0,0.0,1.0,0.0,0.0,0.0,1.0,-0.0242476519197,0.0951289013028,0.0498895347118,1.21846967915e-07,0.0,0.0,0.0,1.21846967915e-07,0.0,0.0,0.0,1.21846967915e-07,-0.8825985,0.18632635,7.7276402,9e-08,0.0,0.0,0.0,9e-08,0.0,0.0,0.0,9e-08
1536691638079019640,1054,1536691638077845528,base_link,0.0322178627959,0.0659740863658,-0.983863088278,-0.163165108923,1.0,0.0,0.0,0.0,1.0,0.0,0.0,0.0,1.0,-0.0483418479562,0.129127383232,0.110336147249,1.21846967915e-07,0.0,0.0,0.0,1.21846967915e-07,0.0,0.0,0.0,1.21846967915e-07,-0.83356525,0.46091255,6.8450417,9e-08,0.0,0.0,0.0,9e-08,0.0,0.0,0.0,9e-08
1536691638422699288,1055,1536691638422413688,base_link,0.0520924398658,0.0590334458618,-0.984156102834,-0.158865336789,1.0,0.0,0.0,0.0,1.0,0.0,0.0,0.0,1.0,-0.00690171401948,0.116195991635,0.00702393893152,1.21846967915e-07,0.0,0.0,0.0,1.21846967915e-07,0.0,0.0,0.0,1.21846967915e-07,-0.83356525,0.0980665,7.5903471,9e-08,0.0,0.0,0.0,9e-08,0.0,0.0,0.0,9e-08
1536691638786114840,1056,1536691638785775032,base_link,0.0686614318911,0.0476937091957,-0.984610398139,-0.153470784677,1.0,0.0,0.0,0.0,1.0,0.0,0.0,0.0,1.0,0.0774498656392,0.0743671506643,0.0581505522132,1.21846967915e-07,0.0,0.0,0.0,1.21846967915e-07,0.0,0.0,0.0,1.21846967915e-07,-0.93163175,0.2157463,8.2768126,9e-08,0.0,0.0,0.0,9e-08,0.0,0.0,0.0,9e-08
1536691639207313720,1057,1536691639206970136,base_link,0.0765297936055,0.0312929847207,-0.98884539409,-0.123889976939,1.0,0.0,0.0,0.0,1.0,0.0,0.0,0.0,1.0,0.0415891483426,0.0202281381935,0.162847012281,1.21846967915e-07,0.0,0.0,0.0,1.21846967915e-07,0.0,0.0,0.0,1.21846967915e-07,-0.6276256,0.30400615,8.825985,9e-08,0.0,0.0,0.0,9e-08,0.0,0.0,0.0,9e-08
1536691639603277176,1058,1536691639602944632,base_link,0.07875054048,0.040391742305,-0.990932148951,-0.101095675987,1.0,0.0,0.0,0.0,1.0,0.0,0.0,0.0,1.0,-0.0398749150336,0.00509627908468,0.0537293516099,1.21846967915e-07,0.0,0.0,0.0,1.21846967915e-07,0.0,0.0,0.0,1.21846967915e-07,-0.5295591,0.30400615,9.9831697,9e-08,0.0,0.0,0.0,9e-08,0.0,0.0,0.0,9e-08
1536691639947587832,1059,1536691639944758552,base_link,0.076106429745,0.0466878392091,-0.991942377232,-0.0898797934626,1.0,0.0,0.0,0.0,1.0,0.0,0.0,0.0,1.0,-0.0960993766785,-0.0303120817989,0.0654332861304,1.21846967915e-07,0.0,0.0,0.0,1.21846967915e-07,0.0,0.0,0.0,1.21846967915e-07,-0.588399,0.38245935,10.09104285,9e-08,0.0,0.0,0.0,9e-08,0.0,0.0,0.0,9e-08
1536691640339563768,1060,1536691640339339352,base_link,0.0682706615168,0.0479556586157,-0.993974022068,-0.0710986289372,1.0,0.0,0.0,0.0,1.0,0.0,0.0,0.0,1.0,0.107522673905,-0.0550620146096,0.133335262537,1.21846967915e-07,0.0,0.0,0.0,1.21846967915e-07,0.0,0.0,0.0,1.21846967915e-07,-0.28439285,0.1176798,10.34601575,9e-08,0.0,0.0,0.0,9e-08,0.0,0.0,0.0,9e-08
1536691640656284120,1061,1536691640655814872,base_link,0.0581673126304,0.0292504788297,-0.99648990542,-0.0526197835897,1.0,0.0,0.0,0.0,1.0,0.0,0.0,0.0,1.0,0.100203298032,-0.0653570517898,0.101609170437,1.21846967915e-07,0.0,0.0,0.0,1.21846967915e-07,0.0,0.0,0.0,1.21846967915e-07,-0.2157463,0.4903325,11.1991943,9e-08,0.0,0.0,0.0,9e-08,0.0,0.0,0.0,9e-08
1536691641039131160,1062,1536691641038723448,base_link,0.0400226288709,0.00522000893622,-0.998207045315,-0.0441999476139,1.0,0.0,0.0,0.0,1.0,0.0,0.0,0.0,1.0,0.161255642772,-0.096959464252,0.0243758540601,1.21846967915e-07,0.0,0.0,0.0,1.21846967915e-07,0.0,0.0,0.0,1.21846967915e-07,-0.0196133,0.4314926,11.1403544,9e-08,0.0,0.0,0.0,9e-08,0.0,0.0,0.0,9e-08
1536691641487686936,1063,1536691641486636696,base_link,0.0141946977939,-0.0292170050456,-0.998771622503,-0.037418220882,1.0,0.0,0.0,0.0,1.0,0.0,0.0,0.0,1.0,0.204048246145,-0.0965470150113,0.0189869794995,1.21846967915e-07,0.0,0.0,0.0,1.21846967915e-07,0.0,0.0,0.0,1.21846967915e-07,0.2353596,0.55897905,13.09187775,9e-08,0.0,0.0,0.0,9e-08,0.0,0.0,0.0,9e-08
1536691641918774008,1064,1536691641918546072,base_link,-0.00405398823109,-0.0489745575629,-0.99803958101,-0.038756323728,1.0,0.0,0.0,0.0,1.0,0.0,0.0,0.0,1.0,0.0815714970231,-0.0578717291355,-0.042178940028,1.21846967915e-07,0.0,0.0,0.0,1.21846967915e-07,0.0,0.0,0.0,1.21846967915e-07,0.26477955,0.7060788,11.9248864,9e-08,0.0,0.0,0.0,9e-08,0.0,0.0,0.0,9e-08
1536691642198650552,1065,1536691642198428216,base_link,-0.0130537586192,-0.0497855454523,-0.997685867475,-0.0444286921905,1.0,0.0,0.0,0.0,1.0,0.0,0.0,0.0,1.0,0.00375669356436,-0.0523289293051,-0.0367245711386,1.21846967915e-07,0.0,0.0,0.0,1.21846967915e-07,0.0,0.0,0.0,1.21846967915e-07,0.1176798,0.3530394,11.5130071,9e-08,0.0,0.0,0.0,9e-08,0.0,0.0,0.0,9e-08
1536691642651911000,1066,1536691642648843928,base_link,-0.0223953307903,-0.0559447119752,-0.997078679026,-0.0469334229731,1.0,0.0,0.0,0.0,1.0,0.0,0.0,0.0,1.0,0.0340796932578,-0.0033194385469,0.0106324413791,1.21846967915e-07,0.0,0.0,0.0,1.21846967915e-07,0.0,0.0,0.0,1.21846967915e-07,0.2745862,0.65704555,10.85596155,9e-08,0.0,0.0,0.0,9e-08,0.0,0.0,0.0,9e-08
1536691643044801432,1067,1536691643044403672,base_link,-0.0201803064224,-0.0524262587327,-0.997005422471,-0.0531453684875,1.0,0.0,0.0,0.0,1.0,0.0,0.0,0.0,1.0,-0.0489879585803,0.0106825716794,-0.0771957784891,1.21846967915e-07,0.0,0.0,0.0,1.21846967915e-07,0.0,0.0,0.0,1.21846967915e-07,0.24516625,0.6864655,9.6301303,9e-08,0.0,0.0,0.0,9e-08,0.0,0.0,0.0,9e-08
1536691643544029720,1068,1536691643543548024,base_link,-0.0191164533408,-0.0633221541464,-0.995692034119,-0.0649787595948,1.0,0.0,0.0,0.0,1.0,0.0,0.0,0.0,1.0,0.00664790393785,-0.00153000466526,-0.0148327350616,1.21846967915e-07,0.0,0.0,0.0,1.21846967915e-07,0.0,0.0,0.0,1.21846967915e-07,0.06864655,0.4511059,10.7284751,9e-08,0.0,0.0,0.0,9e-08,0.0,0.0,0.0,9e-08
1536691643909421624,1069,1536691643907523448,base_link,-0.016521820279,-0.0376547654939,-0.997078644992,-0.0643686553487,1.0,0.0,0.0,0.0,1.0,0.0,0.0,0.0,1.0,-0.404586941004,-0.0214073434472,0.0128585156053,1.21846967915e-07,0.0,0.0,0.0,1.21846967915e-07,0.0,0.0,0.0,1.21846967915e-07,0.12748645,0.3530394,9.30651085,9e-08,0.0,0.0,0.0,9e-08,0.0,0.0,0.0,9e-08
1536691644420306328,1070,1536691644419148728,base_link,-0.00603729136048,0.000828909393719,-0.997295012906,-0.0732497184707,1.0,0.0,0.0,0.0,1.0,0.0,0.0,0.0,1.0,0.148336812854,0.0245339162648,-0.0482729300857,1.21846967915e-07,0.0,0.0,0.0,1.21846967915e-07,0.0,0.0,0.0,1.21846967915e-07,0.02941995,0.30400615,8.07087295,9e-08,0.0,0.0,0.0,9e-08,0.0,0.0,0.0,9e-08
1536691644765962712,1071,1536691644765284760,base_link,-0.00475249891843,-0.0226070564597,-0.997706665042,-0.0636218931165,1.0,0.0,0.0,0.0,1.0,0.0,0.0,0.0,1.0,0.0555730909109,0.0181224681437,0.0921026691794,1.21846967915e-07,0.0,0.0,0.0,1.21846967915e-07,0.0,0.0,0.0,1.21846967915e-07,0.06864655,0.2745862,9.0613446,9e-08,0.0,0.0,0.0,9e-08,0.0,0.0,0.0,9e-08
1536691645301412664,1072,1536691645300994712,base_link,-0.00125106284054,-0.0371726126484,-0.99766918755,-0.0572086000879,1.0,0.0,0.0,0.0,1.0,0.0,0.0,0.0,1.0,-0.000698778778315,0.0302244592458,-0.0482891947031,1.21846967915e-07,0.0,0.0,0.0,1.21846967915e-07,0.0,0.0,0.0,1.21846967915e-07,0.26477955,0.6668522,10.42446895,9e-08,0.0,0.0,0.0,9e-08,0.0,0.0,0.0,9e-08
1536691645642938200,1073,1536691645641731576,base_link,0.00115137902637,-0.0657745709182,-0.995633940004,-0.0662226370612,1.0,0.0,0.0,0.0,1.0,0.0,0.0,0.0,1.0,-0.0154205840081,0.0105992909521,-0.0280247963965,1.21846967915e-07,0.0,0.0,0.0,1.21846967915e-07,0.0,0.0,0.0,1.21846967915e-07,0.16671305,0.30400615,8.6102387,9e-08,0.0,0.0,0.0,9e-08,0.0,0.0,0.0,9e-08
1536691646043563896,1074,1536691646043048216,base_link,0.00330586597044,-0.0453497026084,-0.996375981569,-0.0718844842536,1.0,0.0,0.0,0.0,1.0,0.0,0.0,0.0,1.0,-0.107256062329,0.00664128363132,-0.0587482489645,1.21846967915e-07,0.0,0.0,0.0,1.21846967915e-07,0.0,0.0,0.0,1.21846967915e-07,0.26477955,0.69627215,10.65982855,9e-08,0.0,0.0,0.0,9e-08,0.0,0.0,0.0,9e-08
1536691646378929304,1075,1536691646378673240,base_link,0.00497909354142,-0.0359596039424,-0.995979048779,-0.081901464614,1.0,0.0,0.0,0.0,1.0,0.0,0.0,0.0,1.0,-0.0304398313165,-0.00671880412847,-0.0468840077519,1.21846967915e-07,0.0,0.0,0.0,1.21846967915e-07,0.0,0.0,0.0,1.21846967915e-07,0.2941995,0.50013915,10.38524235,9e-08,0.0,0.0,0.0,9e-08,0.0,0.0,0.0,9e-08
1536691646807784408,1076,1536691646807348472,base_link,0.00304835267525,-0.0249681257857,-0.996514467912,-0.0795375099122,1.0,0.0,0.0,0.0,1.0,0.0,0.0,0.0,1.0,-0.0729084685445,-0.00781356357038,0.054602202028,1.21846967915e-07,0.0,0.0,0.0,1.21846967915e-07,0.0,0.0,0.0,1.21846967915e-07,0.1569064,0.4314926,10.198916,9e-08,0.0,0.0,0.0,9e-08,0.0,0.0,0.0,9e-08
1536691647262283384,1077,1536691647261291512,base_link,0.000376081415579,-0.0215071639896,-0.9972751377,-0.0705662822082,1.0,0.0,0.0,0.0,1.0,0.0,0.0,0.0,1.0,0.0707589387894,0.00145148765296,0.0301874577999,1.21846967915e-07,0.0,0.0,0.0,1.21846967915e-07,0.0,0.0,0.0,1.21846967915e-07,0.0784532,0.3726527,9.3359308,9e-08,0.0,0.0,0.0,9e-08,0.0,0.0,0.0,9e-08
1536691647538627736,1078,1536691647537735032,base_link,-5.5435316746e-05,-0.0152481585428,-0.997579910764,-0.0678366584356,1.0,0.0,0.0,0.0,1.0,0.0,0.0,0.0,1.0,-0.172851160169,-0.00842866487801,-0.00582580082119,1.21846967915e-07,0.0,0.0,0.0,1.21846967915e-07,0.0,0.0,0.0,1.21846967915e-07,0.1569064,0.73549875,10.2185293,9e-08,0.0,0.0,0.0,9e-08,0.0,0.0,0.0,9e-08
1536691647945365400,1079,1536691647943104696,base_link,-0.00139169554469,-0.000397998933639,-0.99745321701,-0.0713090783626,1.0,0.0,0.0,0.0,1.0,0.0,0.0,0.0,1.0,0.157743617892,0.0163194574416,-0.00494685769081,1.21846967915e-07,0.0,0.0,0.0,1.21846967915e-07,0.0,0.0,0.0,1.21846967915e-07,0.0392266,0.3138128,9.3751574,9e-08,0.0,0.0,0.0,9e-08,0.0,0.0,0.0,9e-08
1536691648328393336,1080,1536691648327803672,base_link,-0.00481594364408,-0.00984803097431,-0.997886484035,-0.0640498864408,1.0,0.0,0.0,0.0,1.0,0.0,0.0,0.0,1.0,0.16442656517,-0.0187972988933,0.0657783821225,1.21846967915e-07,0.0,0.0,0.0,1.21846967915e-07,0.0,0.0,0.0,1.21846967915e-07,0.2549729,0.16671305,9.9635564,9e-08,0.0,0.0,0.0,9e-08,0.0,0.0,0.0,9e-08
1536691648680343608,1081,1536691648678810264,base_link,-0.00531362594327,-0.0400588968579,-0.997988501007,-0.048846719639,1.0,0.0,0.0,0.0,1.0,0.0,0.0,0.0,1.0,0.0938565135002,0.0303322244436,0.065560400486,1.21846967915e-07,0.0,0.0,0.0,1.21846967915e-07,0.0,0.0,0.0,1.21846967915e-07,0.0392266,0.46091255,9.5909037,9e-08,0.0,0.0,0.0,9e-08,0.0,0.0,0.0,9e-08
1536691649079380792,1082,1536691649079002072,base_link,0.002039546289,-0.0454967299186,-0.997913505325,-0.0457659667042,1.0,0.0,0.0,0.0,1.0,0.0,0.0,0.0,1.0,-0.0106410710141,0.0438256748021,-0.0366843082011,1.21846967915e-07,0.0,0.0,0.0,1.21846967915e-07,0.0,0.0,0.0,1.21846967915e-07,0.10787315,0.59820565,9.6301303,9e-08,0.0,0.0,0.0,9e-08,0.0,0.0,0.0,9e-08
1536691649446189912,1083,1536691649445878648,base_link,0.0106812323261,-0.0496654661669,-0.997242921956,-0.0540907326203,1.0,0.0,0.0,0.0,1.0,0.0,0.0,0.0,1.0,0.0344800390303,0.0423377305269,-0.0337286889553,1.21846967915e-07,0.0,0.0,0.0,1.21846967915e-07,0.0,0.0,0.0,1.21846967915e-07,0.0588399,0.40207265,9.91452315,9e-08,0.0,0.0,0.0,9e-08,0.0,0.0,0.0,9e-08
1536691649917234680,1084,1536691649915463064,base_link,0.0141551438226,-0.0668895387257,-0.995897344787,-0.0592781591997,1.0,0.0,0.0,0.0,1.0,0.0,0.0,0.0,1.0,0.0154521698132,0.00338056520559,-0.02315004915,1.21846967915e-07,0.0,0.0,0.0,1.21846967915e-07,0.0,0.0,0.0,1.21846967915e-07,0.08825985,0.5099458,9.7674234,9e-08,0.0,0.0,0.0,9e-08,0.0,0.0,0.0,9e-08
1536691650319865880,1085,1536691650319214200,base_link,0.0145481798601,-0.0607029653189,-0.996085449537,-0.062588159295,1.0,0.0,0.0,0.0,1.0,0.0,0.0,0.0,1.0,-0.0626038238406,-0.000236581545323,-0.0193531811237,1.21846967915e-07,0.0,0.0,0.0,1.21846967915e-07,0.0,0.0,0.0,1.21846967915e-07,0.12748645,0.50013915,9.6693569,9e-08,0.0,0.0,0.0,9e-08,0.0,0.0,0.0,9e-08
1536691650739030552,1086,1536691650738646616,base_link,0.0127292318129,-0.0527959355957,-0.996264096502,-0.0671446636941,1.0,0.0,0.0,0.0,1.0,0.0,0.0,0.0,1.0,-0.0127350874245,-0.0335358940065,-0.0124884918332,1.21846967915e-07,0.0,0.0,0.0,1.21846967915e-07,0.0,0.0,0.0,1.21846967915e-07,0.2549729,0.5295591,10.34601575,9e-08,0.0,0.0,0.0,9e-08,0.0,0.0,0.0,9e-08
1536691651086369752,1087,1536691651086002296,base_link,0.00645717632291,-0.0487282162841,-0.996354502081,-0.0697249739713,1.0,0.0,0.0,0.0,1.0,0.0,0.0,0.0,1.0,-0.0457834154367,-0.0464725419879,-0.0236196797341,1.21846967915e-07,0.0,0.0,0.0,1.21846967915e-07,0.0,0.0,0.0,1.21846967915e-07,0.30400615,0.588399,10.4931155,9e-08,0.0,0.0,0.0,9e-08,0.0,0.0,0.0,9e-08
1536691651527588792,1088,1536691651526835864,base_link,-0.00359058918343,-0.0436380651405,-0.996220921313,-0.0750113516686,1.0,0.0,0.0,0.0,1.0,0.0,0.0,0.0,1.0,0.0421978384256,-0.0437236912549,-0.0140936365351,1.21846967915e-07,0.0,0.0,0.0,1.21846967915e-07,0.0,0.0,0.0,1.21846967915e-07,0.2941995,0.51975245,10.7284751,9e-08,0.0,0.0,0.0,9e-08,0.0,0.0,0.0,9e-08
1536691652019816408,1089,1536691652019511864,base_link,-0.0110403024063,-0.0949262587315,-0.991877750776,-0.0839383383317,1.0,0.0,0.0,0.0,1.0,0.0,0.0,0.0,1.0,0.360377818346,-0.0179901979864,-0.0680597648025,1.21846967915e-07,0.0,0.0,0.0,1.21846967915e-07,0.0,0.0,0.0,1.21846967915e-07,0.1765197,0.51975245,10.1400761,9e-08,0.0,0.0,0.0,9e-08,0.0,0.0,0.0,9e-08
1536691652487929240,1090,1536691652487730808,base_link,-0.0216404048913,-0.178792743403,-0.978763436517,-0.0979131406898,1.0,0.0,0.0,0.0,1.0,0.0,0.0,0.0,1.0,0.172946944833,-0.00810902565718,-0.0674400702119,1.21846967915e-07,0.0,0.0,0.0,1.21846967915e-07,0.0,0.0,0.0,1.21846967915e-07,0.24516625,0.7256921,10.4538889,9e-08,0.0,0.0,0.0,9e-08,0.0,0.0,0.0,9e-08
1536691652878288312,1091,1536691652877909720,base_link,-0.0262606618981,-0.227665578607,-0.965443504864,-0.124087069716,1.0,0.0,0.0,0.0,1.0,0.0,0.0,0.0,1.0,0.260135293007,-0.0377229899168,-0.202180430293,1.21846967915e-07,0.0,0.0,0.0,1.21846967915e-07,0.0,0.0,0.0,1.21846967915e-07,0.32361945,0.69627215,9.73800345,9e-08,0.0,0.0,0.0,9e-08,0.0,0.0,0.0,9e-08
1536691653200288344,1092,1536691653200065976,base_link,-0.032654854755,-0.261884169055,-0.950665989988,-0.163047594093,1.0,0.0,0.0,0.0,1.0,0.0,0.0,0.0,1.0,0.230487197638,-0.104801520705,-0.266604393721,1.21846967915e-07,0.0,0.0,0.0,1.21846967915e-07,0.0,0.0,0.0,1.21846967915e-07,0.3726527,0.9218251,9.7281968,9e-08,0.0,0.0,0.0,9e-08,0.0,0.0,0.0,9e-08
1536691653691775864,1093,1536691653689369752,base_link,-0.0690715039143,-0.317412920065,-0.917403596547,-0.229888682985,1.0,0.0,0.0,0.0,1.0,0.0,0.0,0.0,1.0,0.21950301528,-0.224032446742,-0.2036768049,1.21846967915e-07,0.0,0.0,0.0,1.21846967915e-07,0.0,0.0,0.0,1.21846967915e-07,0.53936575,0.6080123,12.0817928,9e-08,0.0,0.0,0.0,9e-08,0.0,0.0,0.0,9e-08
1536691654032340280,1094,1536691654032018072,base_link,-0.099890978167,-0.324654567099,-0.899358036425,-0.275275002245,1.0,0.0,0.0,0.0,1.0,0.0,0.0,0.0,1.0,0.0412193313241,-0.2464800179,-0.219890996814,1.21846967915e-07,0.0,0.0,0.0,1.21846967915e-07,0.0,0.0,0.0,1.21846967915e-07,0.79433865,0.8433719,12.77806495,9e-08,0.0,0.0,0.0,9e-08,0.0,0.0,0.0,9e-08
1536691654560532088,1095,1536691654560311096,base_link,-0.140177531839,-0.326969809208,-0.863135985891,-0.358381463378,1.0,0.0,0.0,0.0,1.0,0.0,0.0,0.0,1.0,0.00466845277697,-0.251697063446,-0.306644111872,1.21846967915e-07,0.0,0.0,0.0,1.21846967915e-07,0.0,0.0,0.0,1.21846967915e-07,1.1571847,0.8041453,12.3367657,9e-08,0.0,0.0,0.0,9e-08,0.0,0.0,0.0,9e-08
1536691655005383576,1096,1536691655005115416,base_link,-0.168882047411,-0.298111470257,-0.830457228706,-0.439259828182,1.0,0.0,0.0,0.0,1.0,0.0,0.0,0.0,1.0,-0.101032212377,-0.300301879644,-0.260223776102,1.21846967915e-07,0.0,0.0,0.0,1.21846967915e-07,0.0,0.0,0.0,1.21846967915e-07,1.3533177,0.87279185,14.1411893,9e-08,0.0,0.0,0.0,9e-08,0.0,0.0,0.0,9e-08
1536691655380956568,1097,1536691655380349688,base_link,-0.19527080613,-0.277359797741,-0.797427662805,-0.499049073202,1.0,0.0,0.0,0.0,1.0,0.0,0.0,0.0,1.0,-0.110756933689,-0.241693213582,-0.307914108038,1.21846967915e-07,0.0,0.0,0.0,1.21846967915e-07,0.0,0.0,0.0,1.21846967915e-07,0.9414384,1.2944778,13.11149105,9e-08,0.0,0.0,0.0,9e-08,0.0,0.0,0.0,9e-08
1536691655805675352,1098,1536691655804951128,base_link,-0.209348363298,-0.247978678585,-0.758290284652,-0.565398692919,1.0,0.0,0.0,0.0,1.0,0.0,0.0,0.0,1.0,-0.214539349079,-0.253899902105,-0.280737191439,1.21846967915e-07,0.0,0.0,0.0,1.21846967915e-07,0.0,0.0,0.0,1.21846967915e-07,0.8237586,1.01008495,12.8270982,9e-08,0.0,0.0,0.0,9e-08,0.0,0.0,0.0,9e-08
1536691656282521720,1099,1536691656282025400,base_link,-0.191214088086,-0.183900378332,-0.720130901644,-0.641115674324,1.0,0.0,0.0,0.0,1.0,0.0,0.0,0.0,1.0,-0.403670787811,-0.145479619503,-0.233241185546,1.21846967915e-07,0.0,0.0,0.0,1.21846967915e-07,0.0,0.0,0.0,1.21846967915e-07,0.3138128,0.67665885,12.01314625,9e-08,0.0,0.0,0.0,9e-08,0.0,0.0,0.0,9e-08
1536691656645169240,1100,1536691656644859928,base_link,-0.140746745113,-0.116971659507,-0.702529499375,-0.687721082359,1.0,0.0,0.0,0.0,1.0,0.0,0.0,0.0,1.0,-0.296154677868,-0.0538246482611,-0.217728093266,1.21846967915e-07,0.0,0.0,0.0,1.21846967915e-07,0.0,0.0,0.0,1.21846967915e-07,0.1176798,0.48052585,10.73828175,9e-08,0.0,0.0,0.0,9e-08,0.0,0.0,0.0,9e-08
1536691656987036920,1101,1536691656986794680,base_link,-0.12595630441,-0.100012332027,-0.683659146488,-0.71185863361,1.0,0.0,0.0,0.0,1.0,0.0,0.0,0.0,1.0,-0.201374337077,-0.0283044334501,-0.108323052526,1.21846967915e-07,0.0,0.0,0.0,1.21846967915e-07,0.0,0.0,0.0,1.21846967915e-07,-0.08825985,0.1372931,10.1008495,9e-08,0.0,0.0,0.0,9e-08,0.0,0.0,0.0,9e-08
1536691657485677816,1102,1536691657485372376,base_link,-0.0664678630364,-0.0529701638884,-0.672164447069,-0.735507403782,1.0,0.0,0.0,0.0,1.0,0.0,0.0,0.0,1.0,-0.219665750861,0.0820618793368,-0.103508681059,1.21846967915e-07,0.0,0.0,0.0,1.21846967915e-07,0.0,0.0,0.0,1.21846967915e-07,-0.20593965,0.57859235,9.77723005,9e-08,0.0,0.0,0.0,9e-08,0.0,0.0,0.0,9e-08
1536691657770893464,1103,1536691657770471800,base_link,-0.0446371443509,-0.0464306502912,-0.662868435575,-0.745960560067,1.0,0.0,0.0,0.0,1.0,0.0,0.0,0.0,1.0,-0.155726760626,0.0709919780493,-0.0877188146114,1.21846967915e-07,0.0,0.0,0.0,1.21846967915e-07,0.0,0.0,0.0,1.21846967915e-07,-0.5295591,0.38245935,8.16893945,9e-08,0.0,0.0,0.0,9e-08,0.0,0.0,0.0,9e-08
1536691658198225400,1104,1536691658197593272,base_link,-0.00615395415945,-0.0323402116356,-0.656831480271,-0.75331842277,1.0,0.0,0.0,0.0,1.0,0.0,0.0,0.0,1.0,-0.141078099608,0.0717623606324,-0.0178065262735,1.21846967915e-07,0.0,0.0,0.0,1.21846967915e-07,0.0,0.0,0.0,1.21846967915e-07,-0.588399,0.34323275,8.8455983,9e-08,0.0,0.0,0.0,9e-08,0.0,0.0,0.0,9e-08
1536691658540393208,1105,1536691658539899096,base_link,0.0205364463804,-0.0239861045927,-0.656837000418,-0.753371140965,1.0,0.0,0.0,0.0,1.0,0.0,0.0,0.0,1.0,-0.143048167229,0.0668761506677,0.0154712190852,1.21846967915e-07,0.0,0.0,0.0,1.21846967915e-07,0.0,0.0,0.0,1.21846967915e-07,-0.63743225,0.40207265,8.67888525,9e-08,0.0,0.0,0.0,9e-08,0.0,0.0,0.0,9e-08
1536691658944545528,1106,1536691658937611608,base_link,0.0345599557076,-0.0344799716286,-0.658893380261,-0.750650554163,1.0,0.0,0.0,0.0,1.0,0.0,0.0,0.0,1.0,0.0333136208355,0.0880218744278,0.00247625843622,1.21846967915e-07,0.0,0.0,0.0,1.21846967915e-07,0.0,0.0,0.0,1.21846967915e-07,-0.3334261,0.16671305,8.0022264,9e-08,0.0,0.0,0.0,9e-08,0.0,0.0,0.0,9e-08
1536691659287802200,1107,1536691659287479352,base_link,0.0331507881722,-0.0515612534248,-0.660651020898,-0.748186267567,1.0,0.0,0.0,0.0,1.0,0.0,0.0,0.0,1.0,0.13471648097,0.0501184910536,0.0396512746811,1.21846967915e-07,0.0,0.0,0.0,1.21846967915e-07,0.0,0.0,0.0,1.21846967915e-07,-0.34323275,1.00160752324e-15,8.1787461,9e-08,0.0,0.0,0.0,9e-08,0.0,0.0,0.0,9e-08
1536691659696488920,1108,1536691659696156344,base_link,0.0292384608405,-0.0606579085131,-0.671751683144,-0.737709568011,1.0,0.0,0.0,0.0,1.0,0.0,0.0,0.0,1.0,-0.0668999999762,-0.0133948326111,0.0606649294496,1.21846967915e-07,0.0,0.0,0.0,1.21846967915e-07,0.0,0.0,0.0,1.21846967915e-07,-0.51975245,0.3530394,9.1790244,9e-08,0.0,0.0,0.0,9e-08,0.0,0.0,0.0,9e-08
1536691660127568824,1109,1536691660126150456,base_link,0.0461485801515,-0.0387574661336,-0.677282150624,-0.733251018285,1.0,0.0,0.0,0.0,1.0,0.0,0.0,0.0,1.0,-0.202026173472,-0.0366521887481,0.00155766820535,1.21846967915e-07,0.0,0.0,0.0,1.21846967915e-07,0.0,0.0,0.0,1.21846967915e-07,-0.4707192,0.4314926,8.9240515,9e-08,0.0,0.0,0.0,9e-08,0.0,0.0,0.0,9e-08
1536691660485401592,1110,1536691660485080216,base_link,0.0611150687744,-0.0154787279357,-0.672027919654,-0.737837266988,1.0,0.0,0.0,0.0,1.0,0.0,0.0,0.0,1.0,0.024891551584,-0.0496001467109,-0.0937330722809,1.21846967915e-07,0.0,0.0,0.0,1.21846967915e-07,0.0,0.0,0.0,1.21846967915e-07,-0.14709975,0.51975245,10.58137535,9e-08,0.0,0.0,0.0,9e-08,0.0,0.0,0.0,9e-08
1536691660892424472,1111,1536691660891909048,base_link,0.0339546512842,-0.0102096188536,-0.67330334301,-0.738515709806,1.0,0.0,0.0,0.0,1.0,0.0,0.0,0.0,1.0,0.116597592831,-0.123231999576,0.081398434937,1.21846967915e-07,0.0,0.0,0.0,1.21846967915e-07,0.0,0.0,0.0,1.21846967915e-07,0.0,0.34323275,12.2583125,9e-08,0.0,0.0,0.0,9e-08,0.0,0.0,0.0,9e-08
1536691661355695800,1112,1536691661355094008,base_link,0.00968778092323,0.00402561497392,-0.687077232272,-0.72650864979,1.0,0.0,0.0,0.0,1.0,0.0,0.0,0.0,1.0,-0.0282792150974,-0.0638963878155,0.022689031437,1.21846967915e-07,0.0,0.0,0.0,1.21846967915e-07,0.0,0.0,0.0,1.21846967915e-07,0.16671305,0.75511205,12.5721253,9e-08,0.0,0.0,0.0,9e-08,0.0,0.0,0.0,9e-08
1536691661872152376,1113,1536691661871583064,base_link,-0.0286785676784,-0.011635077615,-0.69049735631,-0.722672516188,1.0,0.0,0.0,0.0,1.0,0.0,0.0,0.0,1.0,0.1608299613,-0.0495593138039,0.0472175702453,1.21846967915e-07,0.0,0.0,0.0,1.21846967915e-07,0.0,0.0,0.0,1.21846967915e-07,0.2549729,0.24516625,10.26756255,9e-08,0.0,0.0,0.0,9e-08,0.0,0.0,0.0,9e-08
1536691662252570744,1114,1536691662252290136,base_link,-0.0377399501407,-0.0119700272126,-0.700285033914,-0.712764537479,1.0,0.0,0.0,0.0,1.0,0.0,0.0,0.0,1.0,0.0848878845572,-0.0128826927394,0.0619245618582,1.21846967915e-07,0.0,0.0,0.0,1.21846967915e-07,0.0,0.0,0.0,1.21846967915e-07,0.26477955,0.4707192,10.20872265,9e-08,0.0,0.0,0.0,9e-08,0.0,0.0,0.0,9e-08
1536691662569499160,1115,1536691662565716280,base_link,-0.0441923094134,-0.0180361234949,-0.703588677619,-0.709002616895,1.0,0.0,0.0,0.0,1.0,0.0,0.0,0.0,1.0,0.0134443799034,0.020007841289,-0.0029404789675,1.21846967915e-07,0.0,0.0,0.0,1.21846967915e-07,0.0,0.0,0.0,1.21846967915e-07,0.08825985,0.6472389,10.05181625,9e-08,0.0,0.0,0.0,9e-08,0.0,0.0,0.0,9e-08
1536691662914061464,1116,1536691662913762200,base_link,-0.0372505849147,-0.0186463876468,-0.699480906062,-0.713436169679,1.0,0.0,0.0,0.0,1.0,0.0,0.0,0.0,1.0,-0.13889747858,0.0386329069734,-0.0529364421964,1.21846967915e-07,0.0,0.0,0.0,1.21846967915e-07,0.0,0.0,0.0,1.21846967915e-07,0.0196133,0.55897905,10.395049,9e-08,0.0,0.0,0.0,9e-08,0.0,0.0,0.0,9e-08
1536691663304997528,1117,1536691663304136408,base_link,-0.0356961766089,-0.0252935324891,-0.69580021519,-0.716901723203,1.0,0.0,0.0,0.0,1.0,0.0,0.0,0.0,1.0,0.0886459872127,0.0360809750855,0.00403109239414,1.21846967915e-07,0.0,0.0,0.0,1.21846967915e-07,0.0,0.0,0.0,1.21846967915e-07,0.2157463,0.38245935,9.97336305,9e-08,0.0,0.0,0.0,9e-08,0.0,0.0,0.0,9e-08
1536691663744992376,1118,1536691663741391000,base_link,-0.0314368354676,-0.0338938141012,-0.698113201831,-0.714493451454,1.0,0.0,0.0,0.0,1.0,0.0,0.0,0.0,1.0,-0.00400820933282,0.0538878291845,-0.00584090035409,1.21846967915e-07,0.0,0.0,0.0,1.21846967915e-07,0.0,0.0,0.0,1.21846967915e-07,0.0784532,0.5491724,9.85568325,9e-08,0.0,0.0,0.0,9e-08,0.0,0.0,0.0,9e-08
1536691664053785272,1119,1536691664053515128,base_link,-0.0214784436321,-0.0353163105736,-0.694960999627,-0.717858372984,1.0,0.0,0.0,0.0,1.0,0.0,0.0,0.0,1.0,0.020735271275,0.0417793318629,-0.0634225681424,1.21846967915e-07,0.0,0.0,0.0,1.21846967915e-07,0.0,0.0,0.0,1.21846967915e-07,0.0392266,0.5687857,9.3359308,9e-08,0.0,0.0,0.0,9e-08,0.0,0.0,0.0,9e-08
1536691664558930872,1120,1536691664557866136,base_link,-0.0155604161688,-0.038813202597,-0.684305731561,-0.727995243463,1.0,0.0,0.0,0.0,1.0,0.0,0.0,0.0,1.0,0.110231757164,0.0199068374932,-0.0289298221469,1.21846967915e-07,0.0,0.0,0.0,1.21846967915e-07,0.0,0.0,0.0,1.21846967915e-07,-0.12748645,0.44129925,10.002783,9e-08,0.0,0.0,0.0,9e-08,0.0,0.0,0.0,9e-08
1536691664995828696,1121,1536691664995640600,base_link,-0.0226339852693,-0.0486518043961,-0.683661292418,-0.727824114666,1.0,0.0,0.0,0.0,1.0,0.0,0.0,0.0,1.0,0.0409931279719,-0.00244706822559,0.00559165049344,1.21846967915e-07,0.0,0.0,0.0,1.21846967915e-07,0.0,0.0,0.0,1.21846967915e-07,-0.12748645,0.3530394,9.48303055,9e-08,0.0,0.0,0.0,9e-08,0.0,0.0,0.0,9e-08
1536691665381813368,1122,1536691665381343384,base_link,-0.0282532786425,-0.0554572746998,-0.679998437888,-0.730567154613,1.0,0.0,0.0,0.0,1.0,0.0,0.0,0.0,1.0,0.0681089013815,-0.0158383194357,-0.051006320864,1.21846967915e-07,0.0,0.0,0.0,1.21846967915e-07,0.0,0.0,0.0,1.21846967915e-07,0.0,0.5099458,9.54187045,9e-08,0.0,0.0,0.0,9e-08,0.0,0.0,0.0,9e-08
1536691665821522104,1123,1536691665821274136,base_link,-0.0593829728016,-0.0783240998276,-0.670719733713,-0.735169393225,1.0,0.0,0.0,0.0,1.0,0.0,0.0,0.0,1.0,0.167267158628,-0.036817535758,-0.0271234214306,1.21846967915e-07,0.0,0.0,0.0,1.21846967915e-07,0.0,0.0,0.0,1.21846967915e-07,0.0,0.4903325,10.7480884,9e-08,0.0,0.0,0.0,9e-08,0.0,0.0,0.0,9e-08
1536691666197469592,1124,1536691666197266712,base_link,-0.089149587057,-0.10177702273,-0.665001218759,-0.73448428698,1.0,0.0,0.0,0.0,1.0,0.0,0.0,0.0,1.0,0.313886672258,0.0036248373799,-0.0473837926984,1.21846967915e-07,0.0,0.0,0.0,1.21846967915e-07,0.0,0.0,0.0,1.21846967915e-07,0.0392266,0.6276256,9.6693569,9e-08,0.0,0.0,0.0,9e-08,0.0,0.0,0.0,9e-08
1536691666644790424,1125,1536691666644416440,base_link,-0.110589658275,-0.123278531496,-0.640126723699,-0.750206710688,1.0,0.0,0.0,0.0,1.0,0.0,0.0,0.0,1.0,0.21890746057,-0.0112042278051,-0.168990552425,1.21846967915e-07,0.0,0.0,0.0,1.21846967915e-07,0.0,0.0,0.0,1.21846967915e-07,-0.06864655,0.40207265,9.1397978,9e-08,0.0,0.0,0.0,9e-08,0.0,0.0,0.0,9e-08
1536691667106882712,1126,1536691667103494488,base_link,-0.155109791209,-0.156752027012,-0.60969388258,-0.761342974121,1.0,0.0,0.0,0.0,1.0,0.0,0.0,0.0,1.0,0.195096820593,-0.0538294874132,-0.107975021005,1.21846967915e-07,0.0,0.0,0.0,1.21846967915e-07,0.0,0.0,0.0,1.21846967915e-07,0.1176798,0.61781895,9.9047165,9e-08,0.0,0.0,0.0,9e-08,0.0,0.0,0.0,9e-08
1536691667391421624,1127,1536691667391113272,base_link,-0.179296755364,-0.168710748181,-0.587957538139,-0.770516249218,1.0,0.0,0.0,0.0,1.0,0.0,0.0,0.0,1.0,0.158472344279,-0.0752466768026,-0.162517771125,1.21846967915e-07,0.0,0.0,0.0,1.21846967915e-07,0.0,0.0,0.0,1.21846967915e-07,0.0588399,0.9414384,10.81673495,9e-08,0.0,0.0,0.0,9e-08,0.0,0.0,0.0,9e-08
1536691667752828632,1128,1536691667752442552,base_link,-0.193201612227,-0.18242341307,-0.541674285605,-0.797485926968,1.0,0.0,0.0,0.0,1.0,0.0,0.0,0.0,1.0,0.131763100624,-0.0806820392609,-0.347133606672,1.21846967915e-07,0.0,0.0,0.0,1.21846967915e-07,0.0,0.0,0.0,1.21846967915e-07,0.12748645,0.784532,8.79656505,9e-08,0.0,0.0,0.0,9e-08,0.0,0.0,0.0,9e-08
1536691668085124312,1129,1536691668084390424,base_link,-0.218171860243,-0.18877985498,-0.488305249244,-0.823602567573,1.0,0.0,0.0,0.0,1.0,0.0,0.0,0.0,1.0,0.157035917044,-0.193588659167,-0.267840713263,1.21846967915e-07,0.0,0.0,0.0,1.21846967915e-07,0.0,0.0,0.0,1.21846967915e-07,0.18632635,0.5491724,11.30706745,9e-08,0.0,0.0,0.0,9e-08,0.0,0.0,0.0,9e-08
1536691668590558392,1130,1536691668590212952,base_link,-0.269504329258,-0.166915702326,-0.422189560641,-0.849271770233,1.0,0.0,0.0,0.0,1.0,0.0,0.0,0.0,1.0,0.148193880916,-0.275265902281,-0.147301018238,1.21846967915e-07,0.0,0.0,0.0,1.21846967915e-07,0.0,0.0,0.0,1.21846967915e-07,0.32361945,0.4314926,11.9444997,9e-08,0.0,0.0,0.0,9e-08,0.0,0.0,0.0,9e-08
1536691669055789368,1131,1536691669055529592,base_link,-0.306971491043,-0.133406484717,-0.36672170599,-0.86803594619,1.0,0.0,0.0,0.0,1.0,0.0,0.0,0.0,1.0,0.0370803587139,-0.242248773575,-0.229212120175,1.21846967915e-07,0.0,0.0,0.0,1.21846967915e-07,0.0,0.0,0.0,1.21846967915e-07,0.51975245,0.980665,12.356379,9e-08,0.0,0.0,0.0,9e-08,0.0,0.0,0.0,9e-08
1536691669440486744,1132,1536691669440255448,base_link,-0.320833872054,-0.110131453999,-0.308625121676,-0.888643473871,1.0,0.0,0.0,0.0,1.0,0.0,0.0,0.0,1.0,-0.0156724601984,-0.241371825337,-0.263438314199,1.21846967915e-07,0.0,0.0,0.0,1.21846967915e-07,0.0,0.0,0.0,1.21846967915e-07,0.6080123,0.89240515,12.44463885,9e-08,0.0,0.0,0.0,9e-08,0.0,0.0,0.0,9e-08
1536691669803938648,1133,1536691669803538136,base_link,-0.33763288003,-0.0860760474342,-0.245925977787,-0.904497300068,1.0,0.0,0.0,0.0,1.0,0.0,0.0,0.0,1.0,0.0100023271516,-0.264405727386,-0.265715867281,1.21846967915e-07,0.0,0.0,0.0,1.21846967915e-07,0.0,0.0,0.0,1.21846967915e-07,0.65704555,0.9022118,12.0033396,9e-08,0.0,0.0,0.0,9e-08,0.0,0.0,0.0,9e-08
1536691670287169208,1134,1536691670286687768,base_link,-0.340251752094,-0.0530684614917,-0.15959084758,-0.92517200831,1.0,0.0,0.0,0.0,1.0,0.0,0.0,0.0,1.0,-0.0888129323721,-0.240187436342,-0.294308751822,1.21846967915e-07,0.0,0.0,0.0,1.21846967915e-07,0.0,0.0,0.0,1.21846967915e-07,0.97085835,1.04931155,13.2389775,9e-08,0.0,0.0,0.0,9e-08,0.0,0.0,0.0,9e-08
1536691670652070104,1135,1536691670649322488,base_link,-0.318639809628,-0.0250601348023,-0.0946598443268,-0.942804420458,1.0,0.0,0.0,0.0,1.0,0.0,0.0,0.0,1.0,-0.178863495588,-0.290198534727,-0.280194252729,1.21846967915e-07,0.0,0.0,0.0,1.21846967915e-07,0.0,0.0,0.0,1.21846967915e-07,0.81395195,1.06892485,14.93552795,9e-08,0.0,0.0,0.0,9e-08,0.0,0.0,0.0,9e-08
1536691670901273144,1136,1536691670898576600,base_link,-0.293901333899,-0.0026658627111,-0.0598176324202,-0.953958463435,1.0,0.0,0.0,0.0,1.0,0.0,0.0,0.0,1.0,-0.243400469422,-0.239438205957,-0.227190822363,1.21846967915e-07,0.0,0.0,0.0,1.21846967915e-07,0.0,0.0,0.0,1.21846967915e-07,0.83356525,0.91201845,13.925443,9e-08,0.0,0.0,0.0,9e-08,0.0,0.0,0.0,9e-08
1536691671336700280,1137,1536691671335818744,base_link,-0.210358663268,0.0281552513578,-0.00550073659558,-0.977203283102,1.0,0.0,0.0,0.0,1.0,0.0,0.0,0.0,1.0,-0.405058145523,-0.103504344821,-0.152912393212,1.21846967915e-07,0.0,0.0,0.0,1.21846967915e-07,0.0,0.0,0.0,1.21846967915e-07,0.42168595,0.77472535,12.6505785,9e-08,0.0,0.0,0.0,9e-08,0.0,0.0,0.0,9e-08
1536691671679657400,1138,1536691671679304568,base_link,-0.153595267256,0.0364703248369,0.0216032762658,-0.987224243897,1.0,0.0,0.0,0.0,1.0,0.0,0.0,0.0,1.0,-0.348803520203,-0.0485770180821,-0.119484379888,1.21846967915e-07,0.0,0.0,0.0,1.21846967915e-07,0.0,0.0,0.0,1.21846967915e-07,0.18632635,0.6864655,10.7284751,9e-08,0.0,0.0,0.0,9e-08,0.0,0.0,0.0,9e-08
1536691672014211544,1139,1536691672013908824,base_link,-0.071735478214,0.0278724275852,0.0483830798786,-0.995859541566,1.0,0.0,0.0,0.0,1.0,0.0,0.0,0.0,1.0,-0.488941431046,0.054795846343,-0.171696186066,1.21846967915e-07,0.0,0.0,0.0,1.21846967915e-07,0.0,0.0,0.0,1.21846967915e-07,-0.0980665,0.93163175,10.1008495,9e-08,0.0,0.0,0.0,9e-08,0.0,0.0,0.0,9e-08
1536691672414354264,1140,1536691672414072184,base_link,-0.00509933314342,0.0129404122581,0.08217010298,-0.99652125753,1.0,0.0,0.0,0.0,1.0,0.0,0.0,0.0,1.0,-0.269873738289,0.0433164462447,-0.117053419352,1.21846967915e-07,0.0,0.0,0.0,1.21846967915e-07,0.0,0.0,0.0,1.21846967915e-07,-0.14709975,0.50013915,8.629852,9e-08,0.0,0.0,0.0,9e-08,0.0,0.0,0.0,9e-08
1536691672707811960,1141,1536691672707446872,base_link,0.0175801266587,0.00674883252882,0.0860391194733,-0.99611377981,1.0,0.0,0.0,0.0,1.0,0.0,0.0,0.0,1.0,-0.142451897264,0.0314290672541,0.0308872628957,1.21846967915e-07,0.0,0.0,0.0,1.21846967915e-07,0.0,0.0,0.0,1.21846967915e-07,-0.18632635,0.1569064,8.79656505,9e-08,0.0,0.0,0.0,9e-08,0.0,0.0,0.0,9e-08
1536691673084393624,1142,1536691673083905080,base_link,0.0342610790631,-0.00214181394152,0.0732028299129,-0.996726109213,1.0,0.0,0.0,0.0,1.0,0.0,0.0,0.0,1.0,0.16496925056,0.0517194159329,0.0926401913166,1.21846967915e-07,0.0,0.0,0.0,1.21846967915e-07,0.0,0.0,0.0,1.21846967915e-07,-0.20593965,0.24516625,8.7671451,9e-08,0.0,0.0,0.0,9e-08,0.0,0.0,0.0,9e-08
1536691673446068312,1143,1536691673445756504,base_link,0.0325042527607,-0.0105033505095,0.0519110726764,-0.998067329249,1.0,0.0,0.0,0.0,1.0,0.0,0.0,0.0,1.0,-0.11229300499,0.05687533319,0.144815310836,1.21846967915e-07,0.0,0.0,0.0,1.21846967915e-07,0.0,0.0,0.0,1.21846967915e-07,-0.40207265,0.0588399,10.60098865,9e-08,0.0,0.0,0.0,9e-08,0.0,0.0,0.0,9e-08
1536691673884094584,1144,1536691673883589080,base_link,0.0685766713208,-0.0282489589929,0.0254101349955,-0.996922043846,1.0,0.0,0.0,0.0,1.0,0.0,0.0,0.0,1.0,-0.271070599556,0.103523135185,0.0699296221137,1.21846967915e-07,0.0,0.0,0.0,1.21846967915e-07,0.0,0.0,0.0,1.21846967915e-07,-0.4511059,0.40207265,9.16921775,9e-08,0.0,0.0,0.0,9e-08,0.0,0.0,0.0,9e-08
1536691674151652536,1145,1536691674151332568,base_link,0.07723215348,-0.0391304637382,0.0226014999879,-0.995988540835,1.0,0.0,0.0,0.0,1.0,0.0,0.0,0.0,1.0,0.147005841136,0.0855882689357,0.0267798677087,1.21846967915e-07,0.0,0.0,0.0,1.21846967915e-07,0.0,0.0,0.0,1.21846967915e-07,-0.55897905,0.24516625,8.7279185,9e-08,0.0,0.0,0.0,9e-08,0.0,0.0,0.0,9e-08
1536691674577453656,1146,1536691674577113624,base_link,0.0523205141647,-0.0537988051856,0.0062696384101,-0.997160440447,1.0,0.0,0.0,0.0,1.0,0.0,0.0,0.0,1.0,0.109259359539,0.0520885773003,0.0990868657827,1.21846967915e-07,0.0,0.0,0.0,1.21846967915e-07,0.0,0.0,0.0,1.21846967915e-07,-0.63743225,0.4118793,8.5513988,9e-08,0.0,0.0,0.0,9e-08,0.0,0.0,0.0,9e-08
1536691675027523224,1147,1536691675027089048,base_link,0.0299688665501,-0.0606093609152,-0.0131968570493,-0.997624285676,1.0,0.0,0.0,0.0,1.0,0.0,0.0,0.0,1.0,0.057795714587,0.0207372233272,0.0453750863671,1.21846967915e-07,0.0,0.0,0.0,1.21846967915e-07,0.0,0.0,0.0,1.21846967915e-07,-0.53936575,0.57859235,9.87529655,9e-08,0.0,0.0,0.0,9e-08,0.0,0.0,0.0,9e-08
1536691675444212568,1148,1536691675443936920,base_link,0.0118990758402,-0.065043209494,-0.0203187566314,-0.997604601544,1.0,0.0,0.0,0.0,1.0,0.0,0.0,0.0,1.0,0.179992124438,0.00777362287045,0.0121986363083,1.21846967915e-07,0.0,0.0,0.0,1.21846967915e-07,0.0,0.0,0.0,1.21846967915e-07,-0.6276256,0.0392266,6.54103555,9e-08,0.0,0.0,0.0,9e-08,0.0,0.0,0.0,9e-08
1536691675889966328,1149,1536691675889431928,base_link,-0.00579862633145,-0.0633933322442,-0.0293896832809,-0.997538925494,1.0,0.0,0.0,0.0,1.0,0.0,0.0,0.0,1.0,-0.141637295485,-0.0212739873677,0.0199452321976,1.21846967915e-07,0.0,0.0,0.0,1.21846967915e-07,0.0,0.0,0.0,1.21846967915e-07,-0.5099458,0.73549875,10.09104285,9e-08,0.0,0.0,0.0,9e-08,0.0,0.0,0.0,9e-08
1536691676286342744,1150,1536691676286044280,base_link,-0.00482522616846,-0.0577381423931,-0.0313727247836,-0.997827027217,1.0,0.0,0.0,0.0,1.0,0.0,0.0,0.0,1.0,0.14375911653,-0.00769814057276,0.0599273592234,1.21846967915e-07,0.0,0.0,0.0,1.21846967915e-07,0.0,0.0,0.0,1.21846967915e-07,-0.392266,0.18632635,9.7870367,9e-08,0.0,0.0,0.0,9e-08,0.0,0.0,0.0,9e-08
1536691676701484248,1151,1536691676701037528,base_link,-0.0225401283125,-0.0448500015199,-0.0452282163145,-0.997714803152,1.0,0.0,0.0,0.0,1.0,0.0,0.0,0.0,1.0,0.0257172212005,-0.0889857411385,0.0612386167049,1.21846967915e-07,0.0,0.0,0.0,1.21846967915e-07,0.0,0.0,0.0,1.21846967915e-07,-0.24516625,0.4511059,10.6500219,9e-08,0.0,0.0,0.0,9e-08,0.0,0.0,0.0,9e-08
1536691677008604568,1152,1536691677008016216,base_link,-0.0256890682595,-0.0323216531117,-0.0482499882533,-0.997981623651,1.0,0.0,0.0,0.0,1.0,0.0,0.0,0.0,1.0,0.0744974762201,-0.0656059086323,-0.0160326324403,1.21846967915e-07,0.0,0.0,0.0,1.21846967915e-07,0.0,0.0,0.0,1.21846967915e-07,-0.2745862,0.59820565,11.0030613,9e-08,0.0,0.0,0.0,9e-08,0.0,0.0,0.0,9e-08
1536691677346093848,1153,1536691677345695224,base_link,-0.0378939293254,-0.0199243462995,-0.0446992943391,-0.998082683764,1.0,0.0,0.0,0.0,1.0,0.0,0.0,0.0,1.0,0.0226144231856,-0.0693900510669,-0.0210181176662,1.21846967915e-07,0.0,0.0,0.0,1.21846967915e-07,0.0,0.0,0.0,1.21846967915e-07,-0.0980665,0.53936575,10.5519554,9e-08,0.0,0.0,0.0,9e-08,0.0,0.0,0.0,9e-08
1536691677751405464,1154,1536691677750336728,base_link,-0.0518278246958,-0.0100804368047,-0.0428601830484,-0.997684953325,1.0,0.0,0.0,0.0,1.0,0.0,0.0,0.0,1.0,0.0396752133965,-0.0454888679087,0.00580374523997,1.21846967915e-07,0.0,0.0,0.0,1.21846967915e-07,0.0,0.0,0.0,1.21846967915e-07,0.0392266,0.3334261,10.5323421,9e-08,0.0,0.0,0.0,9e-08,0.0,0.0,0.0,9e-08
1536691678239499864,1155,1536691678236704856,base_link,-0.0526030713623,0.000682922272213,-0.0397956853026,-0.997822005135,1.0,0.0,0.0,0.0,1.0,0.0,0.0,0.0,1.0,-0.0184310097247,-0.0402932092547,-0.0217064358294,1.21846967915e-07,0.0,0.0,0.0,1.21846967915e-07,0.0,0.0,0.0,1.21846967915e-07,0.0588399,0.5295591,10.81673495,9e-08,0.0,0.0,0.0,9e-08,0.0,0.0,0.0,9e-08
1536691678718390008,1156,1536691678717987864,base_link,-0.0457255866954,0.0100711425479,-0.0352213736193,-0.998282123275,1.0,0.0,0.0,0.0,1.0,0.0,0.0,0.0,1.0,-0.0505291596055,-0.0214242041111,0.00691420026124,1.21846967915e-07,0.0,0.0,0.0,1.21846967915e-07,0.0,0.0,0.0,1.21846967915e-07,0.06864655,0.36284605,10.56176205,9e-08,0.0,0.0,0.0,9e-08,0.0,0.0,0.0,9e-08
1536691679198259416,1157,1536691679197355928,base_link,-0.0291583944127,0.00854675240863,-0.0370085635408,-0.998852895717,1.0,0.0,0.0,0.0,1.0,0.0,0.0,0.0,1.0,-0.0841556563973,0.0268669817597,-0.00390260200948,1.21846967915e-07,0.0,0.0,0.0,1.21846967915e-07,0.0,0.0,0.0,1.21846967915e-07,0.1765197,0.6080123,9.6693569,9e-08,0.0,0.0,0.0,9e-08,0.0,0.0,0.0,9e-08
1536691679481524216,1158,1536691679480514744,base_link,-0.0245409240465,0.00409159173711,-0.0348030450822,-0.999084455878,1.0,0.0,0.0,0.0,1.0,0.0,0.0,0.0,1.0,0.0315986573696,0.034428589046,-0.0196962542832,1.21846967915e-07,0.0,0.0,0.0,1.21846967915e-07,0.0,0.0,0.0,1.21846967915e-07,0.12748645,0.2941995,9.48303055,9e-08,0.0,0.0,0.0,9e-08,0.0,0.0,0.0,9e-08
1536691679993717976,1159,1536691679993377016,base_link,-0.0193071709491,0.0010121263026,-0.033798239659,-0.999241656331,1.0,0.0,0.0,0.0,1.0,0.0,0.0,0.0,1.0,-0.0217593815178,0.00132806552574,0.0113100875169,1.21846967915e-07,0.0,0.0,0.0,1.21846967915e-07,0.0,0.0,0.0,1.21846967915e-07,0.1372931,0.3530394,9.7870367,9e-08,0.0,0.0,0.0,9e-08,0.0,0.0,0.0,9e-08
1536691680304322424,1160,1536691680303940408,base_link,-0.0192074483158,0.00160766458927,-0.0363742515917,-0.999152342321,1.0,0.0,0.0,0.0,1.0,0.0,0.0,0.0,1.0,0.0244199261069,-0.0132418777794,0.0226098187268,1.21846967915e-07,0.0,0.0,0.0,1.21846967915e-07,0.0,0.0,0.0,1.21846967915e-07,0.1372931,0.3138128,9.9439431,9e-08,0.0,0.0,0.0,9e-08,0.0,0.0,0.0,9e-08
1536691680681923416,1161,1536691680681117848,base_link,-0.0200722945705,0.00305483483481,-0.0429907477802,-0.998869143872,1.0,0.0,0.0,0.0,1.0,0.0,0.0,0.0,1.0,0.0206571035087,-0.00229999888688,0.0337793976068,1.21846967915e-07,0.0,0.0,0.0,1.21846967915e-07,0.0,0.0,0.0,1.21846967915e-07,0.2549729,0.44129925,9.81645665,9e-08,0.0,0.0,0.0,9e-08,0.0,0.0,0.0,9e-08
1536691681018318712,1162,1536691681018051320,base_link,-0.0292334014115,0.00413154796117,-0.0470361011249,-0.99845678111,1.0,0.0,0.0,0.0,1.0,0.0,0.0,0.0,1.0,0.0479056760669,-0.0273236148059,0.0224446933717,1.21846967915e-07,0.0,0.0,0.0,1.21846967915e-07,0.0,0.0,0.0,1.21846967915e-07,0.24516625,0.36284605,10.4342756,9e-08,0.0,0.0,0.0,9e-08,0.0,0.0,0.0,9e-08
1536691681289303480,1163,1536691681288860792,base_link,-0.0247422980167,0.00518463717471,-0.0494965215487,-0.99845432173,1.0,0.0,0.0,0.0,1.0,0.0,0.0,0.0,1.0,-0.0377795398235,0.00633457396179,-0.0110909184441,1.21846967915e-07,0.0,0.0,0.0,1.21846967915e-07,0.0,0.0,0.0,1.21846967915e-07,0.16671305,0.69627215,10.0812362,9e-08,0.0,0.0,0.0,9e-08,0.0,0.0,0.0,9e-08
1536691681584038584,1164,1536691681583128792,base_link,-0.030321480393,0.00363778820842,-0.0451277855706,-0.998514325032,1.0,0.0,0.0,0.0,1.0,0.0,0.0,0.0,1.0,0.0623297616839,0.000202028080821,-0.0280120819807,1.21846967915e-07,0.0,0.0,0.0,1.21846967915e-07,0.0,0.0,0.0,1.21846967915e-07,0.3530394,0.55897905,9.65955025,9e-08,0.0,0.0,0.0,9e-08,0.0,0.0,0.0,9e-08
1536691682037870072,1165,1536691682037600088,base_link,-0.0384791252798,0.00498963003185,-0.0471270070547,-0.998135013771,1.0,0.0,0.0,0.0,1.0,0.0,0.0,0.0,1.0,-0.00911565683782,-0.00351315876469,0.0259386226535,1.21846967915e-07,0.0,0.0,0.0,1.21846967915e-07,0.0,0.0,0.0,1.21846967915e-07,0.1765197,0.51975245,10.79712165,9e-08,0.0,0.0,0.0,9e-08,0.0,0.0,0.0,9e-08
1536691682370660440,1166,1536691682370424888,base_link,-0.0409893728636,0.00449450355501,-0.047869495529,-0.998002095262,1.0,0.0,0.0,0.0,1.0,0.0,0.0,0.0,1.0,0.0796399489045,0.00974523182958,-0.0117353834212,1.21846967915e-07,0.0,0.0,0.0,1.21846967915e-07,0.0,0.0,0.0,1.21846967915e-07,0.1176798,0.4511059,9.77723005,9e-08,0.0,0.0,0.0,9e-08,0.0,0.0,0.0,9e-08
1536691682795559928,1167,1536691682795328280,base_link,-0.046185215113,-0.00112099107794,-0.0463265613217,-0.99785746427,1.0,0.0,0.0,0.0,1.0,0.0,0.0,0.0,1.0,-0.00674958899617,0.0334899313748,-0.0240823719651,1.21846967915e-07,0.0,0.0,0.0,1.21846967915e-07,0.0,0.0,0.0,1.21846967915e-07,0.1765197,0.5099458,9.42419065,9e-08,0.0,0.0,0.0,9e-08,0.0,0.0,0.0,9e-08
1536691683099346424,1168,1536691683099076216,base_link,-0.052602430469,-0.00644254403578,-0.0449025802672,-0.997584701276,1.0,0.0,0.0,0.0,1.0,0.0,0.0,0.0,1.0,0.101486638188,0.0339837409556,0.00563572533429,1.21846967915e-07,0.0,0.0,0.0,1.21846967915e-07,0.0,0.0,0.0,1.21846967915e-07,0.18632635,0.46091255,10.4342756,9e-08,0.0,0.0,0.0,9e-08,0.0,0.0,0.0,9e-08
1536691683350857560,1169,1536691683350245432,base_link,-0.0599470736801,-0.0110505020816,-0.042739341329,-0.997224941256,1.0,0.0,0.0,0.0,1.0,0.0,0.0,0.0,1.0,0.035530552268,0.0322358869016,-0.0280322209001,1.21846967915e-07,0.0,0.0,0.0,1.21846967915e-07,0.0,0.0,0.0,1.21846967915e-07,-0.0196133,0.4707192,10.2969825,9e-08,0.0,0.0,0.0,9e-08,0.0,0.0,0.0,9e-08
1536691683640195320,1170,1536691683639916408,base_link,-0.0495453867411,-0.015912712277,-0.0369130203149,-0.997962659207,1.0,0.0,0.0,0.0,1.0,0.0,0.0,0.0,1.0,-0.20408269763,0.0356196910143,-0.054135851562,1.21846967915e-07,0.0,0.0,0.0,1.21846967915e-07,0.0,0.0,0.0,1.21846967915e-07,0.04903325,0.51975245,9.97336305,9e-08,0.0,0.0,0.0,9e-08,0.0,0.0,0.0,9e-08
1536691683990378968,1171,1536691683990143448,base_link,-0.023208223039,-0.0201907727774,-0.0250704088715,-0.999212282589,1.0,0.0,0.0,0.0,1.0,0.0,0.0,0.0,1.0,-0.0618539378047,0.0016889073886,-0.068837210536,1.21846967915e-07,0.0,0.0,0.0,1.21846967915e-07,0.0,0.0,0.0,1.21846967915e-07,-0.0588399,0.3138128,8.6886919,9e-08,0.0,0.0,0.0,9e-08,0.0,0.0,0.0,9e-08
1536691684394269208,1172,1536691684393805784,base_link,-0.0441217704865,-0.0229132581566,-0.0230384354627,-0.998497612647,1.0,0.0,0.0,0.0,1.0,0.0,0.0,0.0,1.0,0.102374807,-0.0147055014968,0.049876049161,1.21846967915e-07,0.0,0.0,0.0,1.21846967915e-07,0.0,0.0,0.0,1.21846967915e-07,0.0,0.196133,9.7478101,9e-08,0.0,0.0,0.0,9e-08,0.0,0.0,0.0,9e-08
1536691684797676216,1173,1536691684797190040,base_link,-0.042880066191,-0.017229579917,-0.0296443559312,-0.99849168933,1.0,0.0,0.0,0.0,1.0,0.0,0.0,0.0,1.0,-0.0940415486693,-0.0238051563501,0.00582527229562,1.21846967915e-07,0.0,0.0,0.0,1.21846967915e-07,0.0,0.0,0.0,1.21846967915e-07,-0.0196133,0.50013915,10.73828175,9e-08,0.0,0.0,0.0,9e-08,0.0,0.0,0.0,9e-08
1536691685150589528,1174,1536691685150232152,base_link,-0.0307966841127,-0.0162285557356,-0.0256250815589,-0.999065339916,1.0,0.0,0.0,0.0,1.0,0.0,0.0,0.0,1.0,-0.0258952639997,0.00111604854465,-0.0533859170973,1.21846967915e-07,0.0,0.0,0.0,1.21846967915e-07,0.0,0.0,0.0,1.21846967915e-07,-0.0980665,0.6276256,10.36562905,9e-08,0.0,0.0,0.0,9e-08,0.0,0.0,0.0,9e-08
1536691685534494936,1175,1536691685534139288,base_link,-0.0329623272214,-0.015948880248,-0.0170387036656,-0.999184067517,1.0,0.0,0.0,0.0,1.0,0.0,0.0,0.0,1.0,0.0520221367478,-0.02081223391,-0.0146416602656,1.21846967915e-07,0.0,0.0,0.0,1.21846967915e-07,0.0,0.0,0.0,1.21846967915e-07,-0.1176798,0.28439285,10.20872265,9e-08,0.0,0.0,0.0,9e-08,0.0,0.0,0.0,9e-08
1536691685895323160,1176,1536691685894764184,base_link,-0.0344753350264,-0.0139838532675,-0.0202151594349,-0.999103223121,1.0,0.0,0.0,0.0,1.0,0.0,0.0,0.0,1.0,-0.0282257981598,-0.00861795805395,0.0339086763561,1.21846967915e-07,0.0,0.0,0.0,1.21846967915e-07,0.0,0.0,0.0,1.21846967915e-07,-0.1765197,0.34323275,9.8851032,9e-08,0.0,0.0,0.0,9e-08,0.0,0.0,0.0,9e-08
1536691686310166040,1177,1536691686309910712,base_link,-0.0181567762877,-0.0175255315414,-0.0274059293355,-0.999305810178,1.0,0.0,0.0,0.0,1.0,0.0,0.0,0.0,1.0,-0.0430241562426,0.040191359818,0.00962598435581,1.21846967915e-07,0.0,0.0,0.0,1.21846967915e-07,0.0,0.0,0.0,1.21846967915e-07,-0.10787315,0.46091255,9.610517,9e-08,0.0,0.0,0.0,9e-08,0.0,0.0,0.0,9e-08
1536691686712270712,1178,1536691686712021592,base_link,-0.0146184790736,-0.0251872238026,-0.0304070760183,-0.999113263627,1.0,0.0,0.0,0.0,1.0,0.0,0.0,0.0,1.0,0.00981976371258,0.0334113575518,0.0142698427662,1.21846967915e-07,0.0,0.0,0.0,1.21846967915e-07,0.0,0.0,0.0,1.21846967915e-07,-0.18632635,0.46091255,9.3359308,9e-08,0.0,0.0,0.0,9e-08,0.0,0.0,0.0,9e-08
1536691687119886296,1179,1536691687119621528,base_link,-0.0249825460455,-0.0313037586756,-0.0319485975977,-0.998686754792,1.0,0.0,0.0,0.0,1.0,0.0,0.0,0.0,1.0,0.254300236702,0.0161148030311,0.00119715137407,1.21846967915e-07,0.0,0.0,0.0,1.21846967915e-07,0.0,0.0,0.0,1.21846967915e-07,-0.1569064,0.34323275,9.24767095,9e-08,0.0,0.0,0.0,9e-08,0.0,0.0,0.0,9e-08
1536691687421533048,1180,1536691687420586072,base_link,-0.0537504950587,-0.0317553404373,-0.031125550639,-0.997563874011,1.0,0.0,0.0,0.0,1.0,0.0,0.0,0.0,1.0,0.225192263722,-0.00718327611685,-0.00414882274345,1.21846967915e-07,0.0,0.0,0.0,1.21846967915e-07,0.0,0.0,0.0,1.21846967915e-07,-0.0196133,0.36284605,10.32640245,9e-08,0.0,0.0,0.0,9e-08,0.0,0.0,0.0,9e-08
1536691687889866520,1181,1536691687889481176,base_link,-0.129878162842,-0.0327035488585,-0.0185394411527,-0.990817051645,1.0,0.0,0.0,0.0,1.0,0.0,0.0,0.0,1.0,0.282050311565,-0.0228198636323,-0.114130690694,1.21846967915e-07,0.0,0.0,0.0,1.21846967915e-07,0.0,0.0,0.0,1.21846967915e-07,0.1176798,0.8237586,10.13026945,9e-08,0.0,0.0,0.0,9e-08,0.0,0.0,0.0,9e-08
1536691688388555480,1182,1536691688387677528,base_link,-0.204669159536,-0.0308815483731,0.0230967398598,-0.978071268218,1.0,0.0,0.0,0.0,1.0,0.0,0.0,0.0,1.0,0.358868330717,-0.0440959483385,-0.212745934725,1.21846967915e-07,0.0,0.0,0.0,1.21846967915e-07,0.0,0.0,0.0,1.21846967915e-07,0.08825985,1.04931155,10.14988275,9e-08,0.0,0.0,0.0,9e-08,0.0,0.0,0.0,9e-08
1536691688799469720,1183,1536691688799052888,base_link,-0.260715767202,-0.0202203358615,0.0814060847241,-0.961764771719,1.0,0.0,0.0,0.0,1.0,0.0,0.0,0.0,1.0,0.272043317556,-0.138814657927,-0.2985932827,1.21846967915e-07,0.0,0.0,0.0,1.21846967915e-07,0.0,0.0,0.0,1.21846967915e-07,0.2353596,0.784532,11.44436055,9e-08,0.0,0.0,0.0,9e-08,0.0,0.0,0.0,9e-08
1536691689147222392,1184,1536691689146974520,base_link,-0.306979646123,0.00768874296649,0.136811916355,-0.941799808686,1.0,0.0,0.0,0.0,1.0,0.0,0.0,0.0,1.0,0.289356648922,-0.241280049086,-0.220040082932,1.21846967915e-07,0.0,0.0,0.0,1.21846967915e-07,0.0,0.0,0.0,1.21846967915e-07,0.4118793,0.51975245,12.52309205,9e-08,0.0,0.0,0.0,9e-08,0.0,0.0,0.0,9e-08
1536691689527709976,1185,1536691689527438456,base_link,-0.341376813391,0.0477846534033,0.186707180376,-0.919955937518,1.0,0.0,0.0,0.0,1.0,0.0,0.0,0.0,1.0,0.143033176661,-0.281208395958,-0.206340119243,1.21846967915e-07,0.0,0.0,0.0,1.21846967915e-07,0.0,0.0,0.0,1.21846967915e-07,0.46091255,0.5687857,12.1406327,9e-08,0.0,0.0,0.0,9e-08,0.0,0.0,0.0,9e-08
1536691689845904920,1186,1536691689845651384,base_link,-0.355540850523,0.0838747372869,0.229634229446,-0.902121861348,1.0,0.0,0.0,0.0,1.0,0.0,0.0,0.0,1.0,0.127569422126,-0.296416699886,-0.210811436176,1.21846967915e-07,0.0,0.0,0.0,1.21846967915e-07,0.0,0.0,0.0,1.21846967915e-07,0.85317855,1.01008495,13.97447625,9e-08,0.0,0.0,0.0,9e-08,0.0,0.0,0.0,9e-08
1536691690258959256,1187,1536691690258257432,base_link,-0.3545165381,0.116938088702,0.293847356634,-0.879941610917,1.0,0.0,0.0,0.0,1.0,0.0,0.0,0.0,1.0,-0.0538243949413,-0.267857670784,-0.307033568621,1.21846967915e-07,0.0,0.0,0.0,1.21846967915e-07,0.0,0.0,0.0,1.21846967915e-07,0.87279185,1.2160246,12.93497135,9e-08,0.0,0.0,0.0,9e-08,0.0,0.0,0.0,9e-08
1536691690572691736,1188,1536691690572363928,base_link,-0.342225397503,0.136451300945,0.347265814564,-0.862362611556,1.0,0.0,0.0,0.0,1.0,0.0,0.0,0.0,1.0,-0.0489690974355,-0.276640594006,-0.283944219351,1.21846967915e-07,0.0,0.0,0.0,1.21846967915e-07,0.0,0.0,0.0,1.21846967915e-07,1.04931155,0.91201845,13.925443,9e-08,0.0,0.0,0.0,9e-08,0.0,0.0,0.0,9e-08
1536691690966505048,1189,1536691690966232312,base_link,-0.323988813092,0.167036358649,0.416925637419,-0.832648255113,1.0,0.0,0.0,0.0,1.0,0.0,0.0,0.0,1.0,0.00805381685495,-0.291952311993,-0.281100898981,1.21846967915e-07,0.0,0.0,0.0,1.21846967915e-07,0.0,0.0,0.0,1.21846967915e-07,0.79433865,0.87279185,13.28801075,9e-08,0.0,0.0,0.0,9e-08,0.0,0.0,0.0,9e-08
1536691691289525112,1190,1536691691288865496,base_link,-0.316477828078,0.192287617896,0.470650936744,-0.800846397308,1.0,0.0,0.0,0.0,1.0,0.0,0.0,0.0,1.0,0.00277428049594,-0.294204831123,-0.310005635023,1.21846967915e-07,0.0,0.0,0.0,1.21846967915e-07,0.0,0.0,0.0,1.21846967915e-07,0.6080123,1.02969825,12.60154525,9e-08,0.0,0.0,0.0,9e-08,0.0,0.0,0.0,9e-08
1536691691721355576,1191,1536691691721112152,base_link,-0.294921907435,0.222612539066,0.543485127434,-0.753716552972,1.0,0.0,0.0,0.0,1.0,0.0,0.0,0.0,1.0,-0.116813614964,-0.294184833765,-0.285259544849,1.21846967915e-07,0.0,0.0,0.0,1.21846967915e-07,0.0,0.0,0.0,1.21846967915e-07,0.55897905,1.32389775,13.69989005,9e-08,0.0,0.0,0.0,9e-08,0.0,0.0,0.0,9e-08
1536691692088428664,1192,1536691692088189208,base_link,-0.249522581684,0.225433271879,0.602532981324,-0.723790251093,1.0,0.0,0.0,0.0,1.0,0.0,0.0,0.0,1.0,-0.242879867554,-0.218062907457,-0.255256086588,1.21846967915e-07,0.0,0.0,0.0,1.21846967915e-07,0.0,0.0,0.0,1.21846967915e-07,0.3530394,0.99047165,12.83690485,9e-08,0.0,0.0,0.0,9e-08,0.0,0.0,0.0,9e-08
1536691692510469784,1193,1536691692510193784,base_link,-0.199162323183,0.213370830619,0.658393614892,-0.693775976476,1.0,0.0,0.0,0.0,1.0,0.0,0.0,0.0,1.0,-0.330530554056,-0.168696671724,-0.221292868257,1.21846967915e-07,0.0,0.0,0.0,1.21846967915e-07,0.0,0.0,0.0,1.21846967915e-07,0.14709975,0.6472389,12.56231865,9e-08,0.0,0.0,0.0,9e-08,0.0,0.0,0.0,9e-08
1536691693073904824,1194,1536691693072878392,base_link,0.116986706587,-0.15038638292,-0.7189150565,0.668475270935,1.0,0.0,0.0,0.0,1.0,0.0,0.0,0.0,1.0,-0.492474615574,0.00821969844401,-0.17071865499,1.21846967915e-07,0.0,0.0,0.0,1.21846967915e-07,0.0,0.0,0.0,1.21846967915e-07,-0.2941995,0.77472535,10.95402805,9e-08,0.0,0.0,0.0,9e-08,0.0,0.0,0.0,9e-08
1536691693440054392,1195,1536691693439636792,base_link,0.0700656805285,-0.0728737155716,-0.761333698653,0.640430496843,1.0,0.0,0.0,0.0,1.0,0.0,0.0,0.0,1.0,-0.373889088631,0.0582811199129,-0.303594350815,1.21846967915e-07,0.0,0.0,0.0,1.21846967915e-07,0.0,0.0,0.0,1.21846967915e-07,-0.5687857,0.65704555,8.5317855,9e-08,0.0,0.0,0.0,9e-08,0.0,0.0,0.0,9e-08
1536691693895888216,1196,1536691693895593880,base_link,0.0407952046289,-0.0274575331596,-0.78682184626,0.615218024281,1.0,0.0,0.0,0.0,1.0,0.0,0.0,0.0,1.0,-0.194325357676,-0.0221219379455,0.0155342929065,1.21846967915e-07,0.0,0.0,0.0,1.21846967915e-07,0.0,0.0,0.0,1.21846967915e-07,-0.75511205,-0.0588399,9.5320638,9e-08,0.0,0.0,0.0,9e-08,0.0,0.0,0.0,9e-08
1536691694201049944,1197,1536691694200740920,base_link,0.0143427471997,0.00233115258615,-0.780672573021,0.62477130621,1.0,0.0,0.0,0.0,1.0,0.0,0.0,0.0,1.0,-0.242635712028,0.00878642499447,0.0804696902633,1.21846967915e-07,0.0,0.0,0.0,1.21846967915e-07,0.0,0.0,0.0,1.21846967915e-07,-0.55897905,0.22555295,9.7085835,9e-08,0.0,0.0,0.0,9e-08,0.0,0.0,0.0,9e-08
1536691694683122072,1198,1536691694682717240,base_link,-0.0161255551708,0.0521431149106,-0.775159395394,0.629403665202,1.0,0.0,0.0,0.0,1.0,0.0,0.0,0.0,1.0,-0.232368990779,0.0605357140303,-0.020430020988,1.21846967915e-07,0.0,0.0,0.0,1.21846967915e-07,0.0,0.0,0.0,1.21846967915e-07,-0.7060788,0.55897905,9.0417313,9e-08,0.0,0.0,0.0,9e-08,0.0,0.0,0.0,9e-08
1536691695087956024,1199,1536691695087599032,base_link,-0.0338334747767,0.0881283013567,-0.772694354119,0.627719789076,1.0,0.0,0.0,0.0,1.0,0.0,0.0,0.0,1.0,0.0171577688307,0.0617331936955,0.0136256963015,1.21846967915e-07,0.0,0.0,0.0,1.21846967915e-07,0.0,0.0,0.0,1.21846967915e-07,-0.65704555,0.34323275,8.5710121,9e-08,0.0,0.0,0.0,9e-08,0.0,0.0,0.0,9e-08
1536691695282868344,1200,1536691695282621048,base_link,-0.0248505827608,0.0847318610002,-0.769871568272,0.632060700118,1.0,0.0,0.0,0.0,1.0,0.0,0.0,0.0,1.0,0.0595093779266,0.0434418059886,0.0956964045763,1.21846967915e-07,0.0,0.0,0.0,1.21846967915e-07,0.0,0.0,0.0,1.21846967915e-07,-0.53936575,0.04903325,8.22777935,9e-08,0.0,0.0,0.0,9e-08,0.0,0.0,0.0,9e-08
1536691695591201560,1201,1536691695588592760,base_link,-0.0179229274419,0.0884181974044,-0.752544972898,0.652332012709,1.0,0.0,0.0,0.0,1.0,0.0,0.0,0.0,1.0,0.0772705078125,0.0384044125676,0.163584008813,1.21846967915e-07,0.0,0.0,0.0,1.21846967915e-07,0.0,0.0,0.0,1.21846967915e-07,-0.2941995,0.1372931,9.77723005,9e-08,0.0,0.0,0.0,9e-08,0.0,0.0,0.0,9e-08
1536691696018168888,1202,1536691696017838200,base_link,0.0135461289111,0.0676254969293,-0.731344524887,0.67851196045,1.0,0.0,0.0,0.0,1.0,0.0,0.0,0.0,1.0,0.0257986597717,0.0415389463305,0.149836376309,1.21846967915e-07,0.0,0.0,0.0,1.21846967915e-07,0.0,0.0,0.0,1.21846967915e-07,-0.4118793,0.2941995,9.36535075,9e-08,0.0,0.0,0.0,9e-08,0.0,0.0,0.0,9e-08
1536691696484269528,1203,1536691696483821400,base_link,0.0325281737281,0.0542371563191,-0.720616282791,0.690443641266,1.0,0.0,0.0,0.0,1.0,0.0,0.0,0.0,1.0,0.0719713270664,0.0135467983782,-0.00396934943274,1.21846967915e-07,0.0,0.0,0.0,1.21846967915e-07,0.0,0.0,0.0,1.21846967915e-07,-0.14709975,0.57859235,10.198916,9e-08,0.0,0.0,0.0,9e-08,0.0,0.0,0.0,9e-08
1536691696802806232,1204,1536691696797350840,base_link,0.0467480504974,0.0380289797655,-0.722182587692,0.68907236667,1.0,0.0,0.0,0.0,1.0,0.0,0.0,0.0,1.0,0.150928467512,-0.00967834703624,-0.00473019573838,1.21846967915e-07,0.0,0.0,0.0,1.21846967915e-07,0.0,0.0,0.0,1.21846967915e-07,-0.38245935,0.38245935,9.4339973,9e-08,0.0,0.0,0.0,9e-08,0.0,0.0,0.0,9e-08
1536691697246906616,1205,1536691697246683480,base_link,0.0636640184795,0.00142661854206,-0.719710590124,0.691347614427,1.0,0.0,0.0,0.0,1.0,0.0,0.0,0.0,1.0,0.252295702696,-0.0408041328192,-0.0131547460333,1.21846967915e-07,0.0,0.0,0.0,1.21846967915e-07,0.0,0.0,0.0,1.21846967915e-07,-0.2353596,0.36284605,10.591182,9e-08,0.0,0.0,0.0,9e-08,0.0,0.0,0.0,9e-08
1536691697503550328,1206,1536691697503095448,base_link,0.0660684018866,-0.0117543559808,-0.719754972354,0.690977265299,1.0,0.0,0.0,0.0,1.0,0.0,0.0,0.0,1.0,-0.196887373924,-0.0817789956927,-0.00491909123957,1.21846967915e-07,0.0,0.0,0.0,1.21846967915e-07,0.0,0.0,0.0,1.21846967915e-07,-0.3530394,0.4511059,8.91424485,9e-08,0.0,0.0,0.0,9e-08,0.0,0.0,0.0,9e-08
1536691698017376664,1207,1536691698011234680,base_link,0.0475904524779,-0.0187257075734,-0.726803590068,0.684938711253,1.0,0.0,0.0,0.0,1.0,0.0,0.0,0.0,1.0,0.172293275595,-0.0605246908963,-0.0747627913952,1.21846967915e-07,0.0,0.0,0.0,1.21846967915e-07,0.0,0.0,0.0,1.21846967915e-07,0.18632635,0.40207265,11.4149406,9e-08,0.0,0.0,0.0,9e-08,0.0,0.0,0.0,9e-08
1536691698442535352,1208,1536691698442236792,base_link,0.04702557453,-0.0411831067748,-0.729346305044,0.681282991403,1.0,0.0,0.0,0.0,1.0,0.0,0.0,0.0,1.0,-0.121193394065,-0.0808422416449,0.0204334165901,1.21846967915e-07,0.0,0.0,0.0,1.21846967915e-07,0.0,0.0,0.0,1.21846967915e-07,0.20593965,0.38245935,12.0621795,9e-08,0.0,0.0,0.0,9e-08,0.0,0.0,0.0,9e-08
1536691698827810008,1209,1536691698827554264,base_link,0.0238798979103,-0.0354227879403,-0.730059729756,0.682046748808,1.0,0.0,0.0,0.0,1.0,0.0,0.0,0.0,1.0,-0.0733565688133,-0.0436009429395,-0.0343074463308,1.21846967915e-07,0.0,0.0,0.0,1.21846967915e-07,0.0,0.0,0.0,1.21846967915e-07,0.20593965,0.6080123,11.6110736,9e-08,0.0,0.0,0.0,9e-08,0.0,0.0,0.0,9e-08
1536691699232632728,1210,1536691699232278616,base_link,0.0205168399291,-0.0450568862738,-0.73340838865,0.677983091041,1.0,0.0,0.0,0.0,1.0,0.0,0.0,0.0,1.0,0.0633930116892,-0.0336514934897,0.00833040848374,1.21846967915e-07,0.0,0.0,0.0,1.21846967915e-07,0.0,0.0,0.0,1.21846967915e-07,0.24516625,0.40207265,10.46369555,9e-08,0.0,0.0,0.0,9e-08,0.0,0.0,0.0,9e-08
1536691699494959992,1211,1536691699493316152,base_link,0.0225577944396,-0.0528973750091,-0.730271958571,0.680731870969,1.0,0.0,0.0,0.0,1.0,0.0,0.0,0.0,1.0,0.0663778781891,-0.0140216108412,0.0388429313898,1.21846967915e-07,0.0,0.0,0.0,1.21846967915e-07,0.0,0.0,0.0,1.21846967915e-07,0.2353596,0.36284605,10.8657682,9e-08,0.0,0.0,0.0,9e-08,0.0,0.0,0.0,9e-08
1536691699914060472,1212,1536691699913850360,base_link,0.0495001365812,-0.0789873216332,-0.725522995224,0.681855646674,1.0,0.0,0.0,0.0,1.0,0.0,0.0,0.0,1.0,0.242786556482,0.0327343977988,-0.0257392618805,1.21846967915e-07,0.0,0.0,0.0,1.21846967915e-07,0.0,0.0,0.0,1.21846967915e-07,0.0,0.59820565,9.69877685,9e-08,0.0,0.0,0.0,9e-08,0.0,0.0,0.0,9e-08
1536691700243843128,1213,1536691700243419800,base_link,0.089644977573,-0.114708438002,-0.728273933111,0.669643808751,1.0,0.0,0.0,0.0,1.0,0.0,0.0,0.0,1.0,0.368880480528,0.0176383554935,-0.088395178318,1.21846967915e-07,0.0,0.0,0.0,1.21846967915e-07,0.0,0.0,0.0,1.21846967915e-07,-0.0784532,0.51975245,9.218251,9e-08,0.0,0.0,0.0,9e-08,0.0,0.0,0.0,9e-08
1536691700687498968,1214,1536691700684583768,base_link,0.157891044638,-0.179406358351,-0.731438821852,0.638655639993,1.0,0.0,0.0,0.0,1.0,0.0,0.0,0.0,1.0,0.348903387785,-0.000814587809145,-0.207736179233,1.21846967915e-07,0.0,0.0,0.0,1.21846967915e-07,0.0,0.0,0.0,1.21846967915e-07,0.0980665,0.91201845,9.99297635,9e-08,0.0,0.0,0.0,9e-08,0.0,0.0,0.0,9e-08
1536691701133012408,1215,1536691701132812472,base_link,0.194894990542,-0.210085086791,-0.759870697851,0.583503831622,1.0,0.0,0.0,0.0,1.0,0.0,0.0,0.0,1.0,0.270681649446,-0.0841829627752,-0.3109395504,1.21846967915e-07,0.0,0.0,0.0,1.21846967915e-07,0.0,0.0,0.0,1.21846967915e-07,0.0588399,0.6472389,9.1005712,9e-08,0.0,0.0,0.0,9e-08,0.0,0.0,0.0,9e-08
1536691701575998840,1216,1536691701575737208,base_link,0.211729726724,-0.258538647892,-0.793185299156,0.509102515777,1.0,0.0,0.0,0.0,1.0,0.0,0.0,0.0,1.0,0.366156935692,-0.236345052719,-0.296245872974,1.21846967915e-07,0.0,0.0,0.0,1.21846967915e-07,0.0,0.0,0.0,1.21846967915e-07,0.4707192,0.8433719,11.4149406,9e-08,0.0,0.0,0.0,9e-08,0.0,0.0,0.0,9e-08
1536691702064382648,1217,1536691702064098296,base_link,0.189796811209,-0.312088428439,-0.821680285786,0.437515132583,1.0,0.0,0.0,0.0,1.0,0.0,0.0,0.0,1.0,-0.0134733328596,-0.337757468224,-0.208072245121,1.21846967915e-07,0.0,0.0,0.0,1.21846967915e-07,0.0,0.0,0.0,1.21846967915e-07,0.99047165,0.8041453,13.8666031,9e-08,0.0,0.0,0.0,9e-08,0.0,0.0,0.0,9e-08
1536691702431558872,1218,1536691702429358968,base_link,0.15827507903,-0.322282009599,-0.852126610829,0.380740784213,1.0,0.0,0.0,0.0,1.0,0.0,0.0,0.0,1.0,-0.0753645375371,-0.281783431768,-0.304122239351,1.21846967915e-07,0.0,0.0,0.0,1.21846967915e-07,0.0,0.0,0.0,1.21846967915e-07,1.06892485,1.18660465,13.2782041,9e-08,0.0,0.0,0.0,9e-08,0.0,0.0,0.0,9e-08
1536691702892663832,1219,1536691702892338488,base_link,0.123748661644,-0.342115535423,-0.883205163349,0.295959234687,1.0,0.0,0.0,0.0,1.0,0.0,0.0,0.0,1.0,0.108412533998,-0.28718072176,-0.309311896563,1.21846967915e-07,0.0,0.0,0.0,1.21846967915e-07,0.0,0.0,0.0,1.21846967915e-07,1.20621795,1.24544455,12.77806495,9e-08,0.0,0.0,0.0,9e-08,0.0,0.0,0.0,9e-08
1536691703334987864,1220,1536691703334752344,base_link,0.100050569061,-0.39143040979,-0.892983511079,0.198374814087,1.0,0.0,0.0,0.0,1.0,0.0,0.0,0.0,1.0,0.188196510077,-0.352963626385,-0.303828954697,1.21846967915e-07,0.0,0.0,0.0,1.21846967915e-07,0.0,0.0,0.0,1.21846967915e-07,1.30428445,0.6472389,13.75872995,9e-08,0.0,0.0,0.0,9e-08,0.0,0.0,0.0,9e-08
1536691703725709080,1221,1536691703725318072,base_link,0.0529569802046,-0.384859404324,-0.913184386148,0.123179032493,1.0,0.0,0.0,0.0,1.0,0.0,0.0,0.0,1.0,-0.100683808327,-0.335394412279,-0.289557754993,1.21846967915e-07,0.0,0.0,0.0,1.21846967915e-07,0.0,0.0,0.0,1.21846967915e-07,1.42196425,1.52003075,14.40596885,9e-08,0.0,0.0,0.0,9e-08,0.0,0.0,0.0,9e-08
1536691704244014392,1222,1536691704242856280,base_link,-0.00350210234362,-0.361843806566,-0.932129577901,0.0138291333975,1.0,0.0,0.0,0.0,1.0,0.0,0.0,0.0,1.0,-0.125094801188,-0.3452732265,-0.302509903908,1.21846967915e-07,0.0,0.0,0.0,1.21846967915e-07,0.0,0.0,0.0,1.21846967915e-07,0.99047165,0.5687857,16.05348605,9e-08,0.0,0.0,0.0,9e-08,0.0,0.0,0.0,9e-08
1536691704640294200,1223,1536691704639188664,base_link,-0.0448750772354,-0.316536470176,-0.945957481872,-0.0543629743592,1.0,0.0,0.0,0.0,1.0,0.0,0.0,0.0,1.0,-0.441771268845,-0.241198837757,-0.198262423277,1.21846967915e-07,0.0,0.0,0.0,1.21846967915e-07,0.0,0.0,0.0,1.21846967915e-07,0.24516625,0.83356525,12.5328987,9e-08,0.0,0.0,0.0,9e-08,0.0,0.0,0.0,9e-08
1536691705144128792,1224,1536691705143783192,base_link,-0.0584870521445,-0.19953985575,-0.96883411127,-0.134623829754,1.0,0.0,0.0,0.0,1.0,0.0,0.0,0.0,1.0,-0.453221201897,-0.086599253118,-0.258888840675,1.21846967915e-07,0.0,0.0,0.0,1.21846967915e-07,0.0,0.0,0.0,1.21846967915e-07,-0.2549729,0.4118793,11.03248125,9e-08,0.0,0.0,0.0,9e-08,0.0,0.0,0.0,9e-08
1536691705548940696,1225,1536691705547823768,base_link,-0.0545171808973,-0.112744943093,-0.976387407942,-0.176022965566,1.0,0.0,0.0,0.0,1.0,0.0,0.0,0.0,1.0,-0.533283948898,-0.018949681893,-0.128080934286,1.21846967915e-07,0.0,0.0,0.0,1.21846967915e-07,0.0,0.0,0.0,1.21846967915e-07,-0.38245935,0.50013915,10.8853815,9e-08,0.0,0.0,0.0,9e-08,0.0,0.0,0.0,9e-08
1536691705915528056,1226,1536691705915125208,base_link,-0.0380218322719,-0.0339703583658,-0.978401060961,-0.200329026686,1.0,0.0,0.0,0.0,1.0,0.0,0.0,0.0,1.0,-0.363848358393,0.0462440401316,-0.0804328545928,1.21846967915e-07,0.0,0.0,0.0,1.21846967915e-07,0.0,0.0,0.0,1.21846967915e-07,-0.67665885,0.46091255,9.14960445,9e-08,0.0,0.0,0.0,9e-08,0.0,0.0,0.0,9e-08
1536691706284017720,1227,1536691706283720216,base_link,-0.0200415466305,0.00334328646299,-0.978077950671,-0.207245461361,1.0,0.0,0.0,0.0,1.0,0.0,0.0,0.0,1.0,-0.0500583127141,0.0665243640542,0.0475361086428,1.21846967915e-07,0.0,0.0,0.0,1.21846967915e-07,0.0,0.0,0.0,1.21846967915e-07,-0.6472389,-0.0588399,7.6295737,9e-08,0.0,0.0,0.0,9e-08,0.0,0.0,0.0,9e-08
1536691706781260376,1228,1536691706781016408,base_link,0.0158786085583,0.0707631707037,-0.979567757707,-0.187583185608,1.0,0.0,0.0,0.0,1.0,0.0,0.0,0.0,1.0,-0.278237104416,0.121964886785,0.0174124836922,1.21846967915e-07,0.0,0.0,0.0,1.21846967915e-07,0.0,0.0,0.0,1.21846967915e-07,-0.784532,0.588399,8.2964259,9e-08,0.0,0.0,0.0,9e-08,0.0,0.0,0.0,9e-08
1536691707250335224,1229,1536691707249985752,base_link,0.0472253507987,0.0906950434001,-0.977642314207,-0.183738076665,1.0,0.0,0.0,0.0,1.0,0.0,0.0,0.0,1.0,0.0946809053421,0.081390991807,0.070109911263,1.21846967915e-07,0.0,0.0,0.0,1.21846967915e-07,0.0,0.0,0.0,1.21846967915e-07,-0.85317855,1.03403366608e-15,8.44352565,9e-08,0.0,0.0,0.0,9e-08,0.0,0.0,0.0,9e-08
1536691707680191416,1230,1536691707679931288,base_link,0.0613596330036,0.076375911951,-0.983456745464,-0.152363201967,1.0,0.0,0.0,0.0,1.0,0.0,0.0,0.0,1.0,-0.146991953254,0.0556984879076,0.201857045293,1.21846967915e-07,0.0,0.0,0.0,1.21846967915e-07,0.0,0.0,0.0,1.21846967915e-07,-0.6864655,0.26477955,9.12999115,9e-08,0.0,0.0,0.0,9e-08,0.0,0.0,0.0,9e-08
1536691708155724472,1231,1536691708155290328,base_link,0.077052971976,0.082180835749,-0.987194040746,-0.11294722511,1.0,0.0,0.0,0.0,1.0,0.0,0.0,0.0,1.0,-0.00053880456835,0.0388382673264,0.101872473955,1.21846967915e-07,0.0,0.0,0.0,1.21846967915e-07,0.0,0.0,0.0,1.21846967915e-07,-0.63743225,0.67665885,8.5513988,9e-08,0.0,0.0,0.0,9e-08,0.0,0.0,0.0,9e-08
1536691708647095992,1232,1536691708646750296,base_link,0.0715567843967,0.0428314069772,-0.992549139917,-0.088833000813,1.0,0.0,0.0,0.0,1.0,0.0,0.0,0.0,1.0,0.190137133002,-0.0254418421537,0.158940628171,1.21846967915e-07,0.0,0.0,0.0,1.21846967915e-07,0.0,0.0,0.0,1.21846967915e-07,-0.4707192,0.18632635,10.1596894,9e-08,0.0,0.0,0.0,9e-08,0.0,0.0,0.0,9e-08
1536691709015247704,1233,1536691709014657592,base_link,0.0636337427742,0.0255422496995,-0.995581259211,-0.0641583709942,1.0,0.0,0.0,0.0,1.0,0.0,0.0,0.0,1.0,-0.0632672458887,-0.0609602034092,0.0705715417862,1.21846967915e-07,0.0,0.0,0.0,1.21846967915e-07,0.0,0.0,0.0,1.21846967915e-07,-0.5099458,0.89240515,10.62060195,9e-08,0.0,0.0,0.0,9e-08,0.0,0.0,0.0,9e-08
1536691709352808312,1234,1536691709351926552,base_link,0.0550242726941,0.0300560748042,-0.99596275314,-0.064242946228,1.0,0.0,0.0,0.0,1.0,0.0,0.0,0.0,1.0,0.0482111684978,-0.0597548186779,-0.0476923808455,1.21846967915e-07,0.0,0.0,0.0,1.21846967915e-07,0.0,0.0,0.0,1.21846967915e-07,-0.40207265,0.50013915,9.6301303,9e-08,0.0,0.0,0.0,9e-08,0.0,0.0,0.0,9e-08
1536691709675513912,1235,1536691709674894488,base_link,0.0403736746518,0.0138382219806,-0.996714238532,-0.0688418238751,1.0,0.0,0.0,0.0,1.0,0.0,0.0,0.0,1.0,0.178481861949,-0.0822788476944,0.00871276296675,1.21846967915e-07,0.0,0.0,0.0,1.21846967915e-07,0.0,0.0,0.0,1.21846967915e-07,-0.3334261,0.1765197,11.8072066,9e-08,0.0,0.0,0.0,9e-08,0.0,0.0,0.0,9e-08
1536691710042648664,1236,1536691710042413848,base_link,0.0211168747563,-0.008340327746,-0.99823579417,-0.0548617879015,1.0,0.0,0.0,0.0,1.0,0.0,0.0,0.0,1.0,0.0752884447575,-0.0982879176736,0.104094088078,1.21846967915e-07,0.0,0.0,0.0,1.21846967915e-07,0.0,0.0,0.0,1.21846967915e-07,-0.12748645,0.36284605,11.9052731,9e-08,0.0,0.0,0.0,9e-08,0.0,0.0,0.0,9e-08
1536691710382811992,1237,1536691710382498840,base_link,0.00959003329874,-0.00952040216475,-0.999037218882,-0.0417376148364,1.0,0.0,0.0,0.0,1.0,0.0,0.0,0.0,1.0,0.00954858213663,-0.0213797520846,-0.0144994501024,1.21846967915e-07,0.0,0.0,0.0,1.21846967915e-07,0.0,0.0,0.0,1.21846967915e-07,-0.1372931,0.8041453,10.95402805,9e-08,0.0,0.0,0.0,9e-08,0.0,0.0,0.0,9e-08
1536691710802154648,1238,1536691710801804696,base_link,0.00137611354912,-0.0155853645742,-0.998580209417,-0.0509192309784,1.0,0.0,0.0,0.0,1.0,0.0,0.0,0.0,1.0,0.163217961788,-0.0255050621927,-0.0441233441234,1.21846967915e-07,0.0,0.0,0.0,1.21846967915e-07,0.0,0.0,0.0,1.21846967915e-07,-0.0392266,0.3726527,10.2577559,9e-08,0.0,0.0,0.0,9e-08,0.0,0.0,0.0,9e-08
1536691711195318552,1239,1536691711194688152,base_link,-0.00443203131393,-0.0486503456245,-0.997863230602,-0.0433874864642,1.0,0.0,0.0,0.0,1.0,0.0,0.0,0.0,1.0,0.0500265732408,-0.00224248412997,0.0738407969475,1.21846967915e-07,0.0,0.0,0.0,1.21846967915e-07,0.0,0.0,0.0,1.21846967915e-07,-0.1176798,0.4314926,10.14988275,9e-08,0.0,0.0,0.0,9e-08,0.0,0.0,0.0,9e-08
1536691711528757432,1240,1536691711527109144,base_link,-0.0042895394581,-0.0497247308389,-0.997940777269,-0.0402896519977,1.0,0.0,0.0,0.0,1.0,0.0,0.0,0.0,1.0,-0.0453539639711,0.0224997773767,-0.0413471721113,1.21846967915e-07,0.0,0.0,0.0,1.21846967915e-07,0.0,0.0,0.0,1.21846967915e-07,-0.02941995,0.7453054,11.0226746,9e-08,0.0,0.0,0.0,9e-08,0.0,0.0,0.0,9e-08
1536691712001157688,1241,1536691712000726904,base_link,0.000762055830445,-0.0614186952568,-0.996369847182,-0.0589431146993,1.0,0.0,0.0,0.0,1.0,0.0,0.0,0.0,1.0,0.121956802905,0.0175133738667,-0.0704445317388,1.21846967915e-07,0.0,0.0,0.0,1.21846967915e-07,0.0,0.0,0.0,1.21846967915e-07,-0.14709975,0.3726527,9.16921775,9e-08,0.0,0.0,0.0,9e-08,0.0,0.0,0.0,9e-08
1536691712344167288,1242,1536691712343835736,base_link,0.00230643685474,-0.0687364657502,-0.995609346794,-0.0634980881673,1.0,0.0,0.0,0.0,1.0,0.0,0.0,0.0,1.0,0.0113341007382,-0.00179323600605,-0.00260147429071,1.21846967915e-07,0.0,0.0,0.0,1.21846967915e-07,0.0,0.0,0.0,1.21846967915e-07,0.0,0.392266,10.0812362,9e-08,0.0,0.0,0.0,9e-08,0.0,0.0,0.0,9e-08
1536691712676120440,1243,1536691712675158360,base_link,0.00373493228443,-0.0646115566595,-0.996039347046,-0.0609673368592,1.0,0.0,0.0,0.0,1.0,0.0,0.0,0.0,1.0,-0.0240948218852,0.0106718186289,0.00886701233685,1.21846967915e-07,0.0,0.0,0.0,1.21846967915e-07,0.0,0.0,0.0,1.21846967915e-07,0.00980665,0.48052585,9.7674234,9e-08,0.0,0.0,0.0,9e-08,0.0,0.0,0.0,9e-08
1536691713143127864,1244,1536691713142727064,base_link,0.00806527704434,-0.0529837020814,-0.996718069735,-0.0606693339587,1.0,0.0,0.0,0.0,1.0,0.0,0.0,0.0,1.0,-0.0299741309136,0.0200557112694,-0.0153459310532,1.21846967915e-07,0.0,0.0,0.0,1.21846967915e-07,0.0,0.0,0.0,1.21846967915e-07,0.10787315,0.5491724,9.26728425,9e-08,0.0,0.0,0.0,9e-08,0.0,0.0,0.0,9e-08
1536691713450515448,1245,1536691713446296152,base_link,-0.000381165087155,-0.0404100130569,-0.997150640834,-0.0636983912136,1.0,0.0,0.0,0.0,1.0,0.0,0.0,0.0,1.0,-0.0947578027844,-0.137128040195,-0.0429385229945,1.21846967915e-07,0.0,0.0,0.0,1.21846967915e-07,0.0,0.0,0.0,1.21846967915e-07,0.20593965,0.57859235,10.67944185,9e-08,0.0,0.0,0.0,9e-08,0.0,0.0,0.0,9e-08
1536691713851468184,1246,1536691713851041176,base_link,-0.0370908832027,-0.0311718188928,-0.996569844302,-0.0670904577238,1.0,0.0,0.0,0.0,1.0,0.0,0.0,0.0,1.0,0.0207654777914,-0.20813986659,0.0338589511812,1.21846967915e-07,0.0,0.0,0.0,1.21846967915e-07,0.0,0.0,0.0,1.21846967915e-07,0.4707192,0.5295591,12.81729155,9e-08,0.0,0.0,0.0,9e-08,0.0,0.0,0.0,9e-08
1536691714233501880,1247,1536691714233197656,base_link,-0.0767768044193,-0.0186272196983,-0.99512202702,-0.0590804564134,1.0,0.0,0.0,0.0,1.0,0.0,0.0,0.0,1.0,-0.126514524221,-0.209296867251,0.0394220501184,1.21846967915e-07,0.0,0.0,0.0,1.21846967915e-07,0.0,0.0,0.0,1.21846967915e-07,0.4903325,0.57859235,13.6704701,9e-08,0.0,0.0,0.0,9e-08,0.0,0.0,0.0,9e-08
1536691714699761400,1248,1536691714698945208,base_link,-0.120761139676,-0.00572110900737,-0.991220222625,-0.0535395770831,1.0,0.0,0.0,0.0,1.0,0.0,0.0,0.0,1.0,0.0779839456081,-0.181981042027,0.0128166526556,1.21846967915e-07,0.0,0.0,0.0,1.21846967915e-07,0.0,0.0,0.0,1.21846967915e-07,0.46091255,0.53936575,12.71922505,9e-08,0.0,0.0,0.0,9e-08,0.0,0.0,0.0,9e-08
1536691715048615128,1249,1536691715048271352,base_link,-0.150950993869,-0.0118151850642,-0.987385423851,-0.046305762254,1.0,0.0,0.0,0.0,1.0,0.0,0.0,0.0,1.0,0.0261064246297,-0.161795333028,0.0453654676676,1.21846967915e-07,0.0,0.0,0.0,1.21846967915e-07,0.0,0.0,0.0,1.21846967915e-07,0.50013915,0.44129925,11.9444997,9e-08,0.0,0.0,0.0,9e-08,0.0,0.0,0.0,9e-08
1536691715358138552,1250,1536691715357610744,base_link,-0.176749699854,-0.0192123997253,-0.983412910162,-0.0359092665769,1.0,0.0,0.0,0.0,1.0,0.0,0.0,0.0,1.0,0.102594092488,-0.133753910661,0.0497511997819,1.21846967915e-07,0.0,0.0,0.0,1.21846967915e-07,0.0,0.0,0.0,1.21846967915e-07,0.2549729,0.63743225,11.1991943,9e-08,0.0,0.0,0.0,9e-08,0.0,0.0,0.0,9e-08
1536691715783382808,1251,1536691715782773176,base_link,-0.196251423702,-0.0350193187072,-0.979617363164,-0.0246748414474,1.0,0.0,0.0,0.0,1.0,0.0,0.0,0.0,1.0,0.0754464417696,-0.0561447665095,0.0121153313667,1.21846967915e-07,0.0,0.0,0.0,1.21846967915e-07,0.0,0.0,0.0,1.21846967915e-07,0.26477955,0.8433719,9.8458766,9e-08,0.0,0.0,0.0,9e-08,0.0,0.0,0.0,9e-08
1536691716057589528,1252,1536691716057240088,base_link,-0.20026940485,-0.0435573667021,-0.978491894232,-0.0234208071776,1.0,0.0,0.0,0.0,1.0,0.0,0.0,0.0,1.0,0.0531522259116,0.008405668661,-0.0258642733097,1.21846967915e-07,0.0,0.0,0.0,1.21846967915e-07,0.0,0.0,0.0,1.21846967915e-07,0.26477955,0.81395195,9.0417313,9e-08,0.0,0.0,0.0,9e-08,0.0,0.0,0.0,9e-08
1536691716504324280,1253,1536691716503960344,base_link,-0.191089420324,-0.0668334935594,-0.978925974312,-0.0268710698712,1.0,0.0,0.0,0.0,1.0,0.0,0.0,0.0,1.0,0.140703141689,0.0879670381546,-0.056204624474,1.21846967915e-07,0.0,0.0,0.0,1.21846967915e-07,0.0,0.0,0.0,1.21846967915e-07,0.196133,0.57859235,7.5903471,9e-08,0.0,0.0,0.0,9e-08,0.0,0.0,0.0,9e-08
1536691716900589848,1254,1536691716900102296,base_link,-0.161560878057,-0.0763402232644,-0.983270763329,-0.0353391988638,1.0,0.0,0.0,0.0,1.0,0.0,0.0,0.0,1.0,-0.0409583002329,0.217437326908,-0.0721165761352,1.21846967915e-07,0.0,0.0,0.0,1.21846967915e-07,0.0,0.0,0.0,1.21846967915e-07,0.3334261,0.40207265,6.83523505,9e-08,0.0,0.0,0.0,9e-08,0.0,0.0,0.0,9e-08
1536691717249812280,1255,1536691717247069784,base_link,-0.112998100793,-0.0651574458442,-0.990292859507,-0.0480207130034,1.0,0.0,0.0,0.0,1.0,0.0,0.0,0.0,1.0,-0.119821444154,0.33979767561,-0.0779505521059,1.21846967915e-07,0.0,0.0,0.0,1.21846967915e-07,0.0,0.0,0.0,1.21846967915e-07,0.3726527,0.392266,5.77611685,9e-08,0.0,0.0,0.0,9e-08,0.0,0.0,0.0,9e-08
1536691717696754424,1256,1536691717696496920,base_link,-0.00601748505032,-0.0255959383269,-0.997681898086,-0.0627651818044,1.0,0.0,0.0,0.0,1.0,0.0,0.0,0.0,1.0,-0.167721822858,0.548793137074,-0.054901253432,1.21846967915e-07,0.0,0.0,0.0,1.21846967915e-07,0.0,0.0,0.0,1.21846967915e-07,0.3530394,0.2745862,5.57998385,9e-08,0.0,0.0,0.0,9e-08,0.0,0.0,0.0,9e-08
1536691718247168664,1257,1536691718246874136,base_link,0.152960935052,-0.0508937030595,-0.984532908405,-0.068612940508,1.0,0.0,0.0,0.0,1.0,0.0,0.0,0.0,1.0,0.183029666543,0.504511833191,-0.0155770303681,1.21846967915e-07,0.0,0.0,0.0,1.21846967915e-07,0.0,0.0,0.0,1.21846967915e-07,0.0588399,0.30400615,5.93302325,9e-08,0.0,0.0,0.0,9e-08,0.0,0.0,0.0,9e-08
1536691718567759288,1258,1536691718567458712,base_link,0.216145316582,-0.0843082619243,-0.969860327376,-0.0744598178406,1.0,0.0,0.0,0.0,1.0,0.0,0.0,0.0,1.0,0.148976027966,0.261021971703,-0.0303956866264,1.21846967915e-07,0.0,0.0,0.0,1.21846967915e-07,0.0,0.0,0.0,1.21846967915e-07,-0.196133,0.28439285,6.8450417,9e-08,0.0,0.0,0.0,9e-08,0.0,0.0,0.0,9e-08
1536691718947280408,1259,1536691718944906808,base_link,0.250400278178,-0.095715693445,-0.959656693527,-0.0848365327283,1.0,0.0,0.0,0.0,1.0,0.0,0.0,0.0,1.0,0.0049301488325,0.11676222831,-0.076597712934,1.21846967915e-07,0.0,0.0,0.0,1.21846967915e-07,0.0,0.0,0.0,1.21846967915e-07,-0.2157463,0.3334261,7.7472535,9e-08,0.0,0.0,0.0,9e-08,0.0,0.0,0.0,9e-08
1536691719345581976,1260,1536691719345289048,base_link,0.257942994857,-0.0937488303735,-0.956822555989,-0.095745310899,1.0,0.0,0.0,0.0,1.0,0.0,0.0,0.0,1.0,0.024643663317,-0.0327776260674,-0.0468334443867,1.21846967915e-07,0.0,0.0,0.0,1.21846967915e-07,0.0,0.0,0.0,1.21846967915e-07,-0.0784532,0.4511059,9.0613446,9e-08,0.0,0.0,0.0,9e-08,0.0,0.0,0.0,9e-08
1536691719678135256,1261,1536691719677034456,base_link,0.246572111171,-0.0876904216458,-0.959838812591,-0.101104093825,1.0,0.0,0.0,0.0,1.0,0.0,0.0,0.0,1.0,-0.0746066868305,-0.123092480004,-0.00900368299335,1.21846967915e-07,0.0,0.0,0.0,1.21846967915e-07,0.0,0.0,0.0,1.21846967915e-07,0.5099458,0.4707192,10.6696352,9e-08,0.0,0.0,0.0,9e-08,0.0,0.0,0.0,9e-08
1536691720085338392,1262,1536691720084880312,base_link,0.21730613349,-0.0685374932511,-0.968485925736,-0.100576677306,1.0,0.0,0.0,0.0,1.0,0.0,0.0,0.0,1.0,-0.118945449591,-0.196838349104,-0.0133020076901,1.21846967915e-07,0.0,0.0,0.0,1.21846967915e-07,0.0,0.0,0.0,1.21846967915e-07,1.1179581,0.79433865,12.9251647,9e-08,0.0,0.0,0.0,9e-08,0.0,0.0,0.0,9e-08
1536691720516194392,1263,1536691720515557752,base_link,0.171532854205,-0.0341278609451,-0.979690733542,-0.0980705646306,1.0,0.0,0.0,0.0,1.0,0.0,0.0,0.0,1.0,-0.106811948121,-0.26731210947,0.033038135618,1.21846967915e-07,0.0,0.0,0.0,1.21846967915e-07,0.0,0.0,0.0,1.21846967915e-07,2.04958985,0.5099458,14.8668814,9e-08,0.0,0.0,0.0,9e-08,0.0,0.0,0.0,9e-08
1536691720879853432,1264,1536691720878587416,base_link,0.122396229242,-0.0108293505745,-0.988718868341,-0.0856556339052,1.0,0.0,0.0,0.0,1.0,0.0,0.0,0.0,1.0,-0.123172409832,-0.304000735283,0.0368786081672,1.21846967915e-07,0.0,0.0,0.0,1.21846967915e-07,0.0,0.0,0.0,1.21846967915e-07,1.8828768,0.6668522,16.70072495,9e-08,0.0,0.0,0.0,9e-08,0.0,0.0,0.0,9e-08
1536691721225033912,1265,1536691721224757272,base_link,0.0673239164477,0.0131474196159,-0.994665203108,-0.0770439443307,1.0,0.0,0.0,0.0,1.0,0.0,0.0,0.0,1.0,-0.0548650622368,-0.331585109234,0.03190471977,1.21846967915e-07,0.0,0.0,0.0,1.21846967915e-07,0.0,0.0,0.0,1.21846967915e-07,1.4906108,0.4903325,17.6911966,9e-08,0.0,0.0,0.0,9e-08,0.0,0.0,0.0,9e-08
1536691721586525304,1266,1536691721586342552,base_link,0.00337562101445,0.0221341270923,-0.997533427635,-0.0665262831563,1.0,0.0,0.0,0.0,1.0,0.0,0.0,0.0,1.0,0.0721339136362,-0.368559330702,0.0451349280775,1.21846967915e-07,0.0,0.0,0.0,1.21846967915e-07,0.0,0.0,0.0,1.21846967915e-07,1.2944778,0.4903325,18.23056235,9e-08,0.0,0.0,0.0,9e-08,0.0,0.0,0.0,9e-08
1536691722053526360,1267,1536691722050299928,base_link,-0.0860936692413,-0.0161291736526,-0.99487975442,-0.0504182915094,1.0,0.0,0.0,0.0,1.0,0.0,0.0,0.0,1.0,0.286031961441,-0.367145091295,0.0215192250907,1.21846967915e-07,0.0,0.0,0.0,1.21846967915e-07,0.0,0.0,0.0,1.21846967915e-07,1.26505785,0.5099458,19.5348468,9e-08,0.0,0.0,0.0,9e-08,0.0,0.0,0.0,9e-08
1536691722484002776,1268,1536691722483699192,base_link,-0.173869737492,-0.0866426841671,-0.980074388057,-0.0414313110953,1.0,0.0,0.0,0.0,1.0,0.0,0.0,0.0,1.0,0.605329990387,-0.366084486246,-0.0132068395615,1.21846967915e-07,0.0,0.0,0.0,1.21846967915e-07,0.0,0.0,0.0,1.21846967915e-07,1.65732385,0.4118793,18.9268345,9e-08,0.0,0.0,0.0,9e-08,0.0,0.0,0.0,9e-08
1536691722899608088,1269,1536691722898881176,base_link,-0.248200047639,-0.177358867338,-0.951571299364,-0.0381133933793,1.0,0.0,0.0,0.0,1.0,0.0,0.0,0.0,1.0,0.320124566555,-0.348354846239,-0.0537873543799,1.21846967915e-07,0.0,0.0,0.0,1.21846967915e-07,0.0,0.0,0.0,1.21846967915e-07,0.73549875,0.6668522,15.9652262,9e-08,0.0,0.0,0.0,9e-08,0.0,0.0,0.0,9e-08
1536691723235378168,1270,1536691723235071064,base_link,-0.306991856076,-0.208424963329,-0.926764790525,-0.058498359012,1.0,0.0,0.0,0.0,1.0,0.0,0.0,0.0,1.0,-0.0146299870685,-0.338226050138,-0.142348736525,1.21846967915e-07,0.0,0.0,0.0,1.21846967915e-07,0.0,0.0,0.0,1.21846967915e-07,0.10787315,0.81395195,14.11176935,9e-08,0.0,0.0,0.0,9e-08,0.0,0.0,0.0,9e-08
1536691723640064856,1271,1536691723639414104,base_link,-0.353055680731,-0.203309907146,-0.906831761218,-0.108041310644,1.0,0.0,0.0,0.0,1.0,0.0,0.0,0.0,1.0,-0.147067323327,-0.272379040718,-0.212556675076,1.21846967915e-07,0.0,0.0,0.0,1.21846967915e-07,0.0,0.0,0.0,1.21846967915e-07,-0.2745862,0.95124505,10.6892485,9e-08,0.0,0.0,0.0,9e-08,0.0,0.0,0.0,9e-08
