%time,field.header.seq,field.header.stamp,field.header.frame_id,field.orientation.x,field.orientation.y,field.orientation.z,field.orientation.w,field.orientation_covariance0,field.orientation_covariance1,field.orientation_covariance2,field.orientation_covariance3,field.orientation_covariance4,field.orientation_covariance5,field.orientation_covariance6,field.orientation_covariance7,field.orientation_covariance8,field.angular_velocity.x,field.angular_velocity.y,field.angular_velocity.z,field.angular_velocity_covariance0,field.angular_velocity_covariance1,field.angular_velocity_covariance2,field.angular_velocity_covariance3,field.angular_velocity_covariance4,field.angular_velocity_covariance5,field.angular_velocity_covariance6,field.angular_velocity_covariance7,field.angular_velocity_covariance8,field.linear_acceleration.x,field.linear_acceleration.y,field.linear_acceleration.z,field.linear_acceleration_covariance0,field.linear_acceleration_covariance1,field.linear_acceleration_covariance2,field.linear_acceleration_covariance3,field.linear_acceleration_covariance4,field.linear_acceleration_covariance5,field.linear_acceleration_covariance6,field.linear_acceleration_covariance7,field.linear_acceleration_covariance8
1538765325313670280,2802,1538765325313459496,base_link,-0.329514449253,-0.000768842548549,0.0543637089623,-0.942583801984,1.0,0.0,0.0,0.0,1.0,0.0,0.0,0.0,1.0,0.156245231628,-0.173264935613,-0.108695536852,1.21846967915e-07,0.0,0.0,0.0,1.21846967915e-07,0.0,0.0,0.0,1.21846967915e-07,-1.1964113,0.4903325,10.93441475,9e-08,0.0,0.0,0.0,9e-08,0.0,0.0,0.0,9e-08
1538765325631257864,2803,1538765325630913160,base_link,-0.336380925017,0.0148782168833,0.0864773956543,-0.937629016183,1.0,0.0,0.0,0.0,1.0,0.0,0.0,0.0,1.0,-0.0202486664057,-0.145337164402,-0.244812831283,1.21846967915e-07,0.0,0.0,0.0,1.21846967915e-07,0.0,0.0,0.0,1.21846967915e-07,-0.89240515,0.6668522,12.03275955,9e-08,0.0,0.0,0.0,9e-08,0.0,0.0,0.0,9e-08
1538765325942801576,2804,1538765325942579752,base_link,-0.347203300627,0.0299087413334,0.131196534132,-0.92808555891,1.0,0.0,0.0,0.0,1.0,0.0,0.0,0.0,1.0,0.185144707561,-0.186880946159,-0.244133517146,1.21846967915e-07,0.0,0.0,0.0,1.21846967915e-07,0.0,0.0,0.0,1.21846967915e-07,-0.7453054,0.44129925,10.93441475,9e-08,0.0,0.0,0.0,9e-08,0.0,0.0,0.0,9e-08
1538765326427258248,2805,1538765326426997384,base_link,-0.343703637356,0.0591246024995,0.201723946467,-0.915248349067,1.0,0.0,0.0,0.0,1.0,0.0,0.0,0.0,1.0,0.00440336065367,-0.221951246262,-0.19730861485,1.21846967915e-07,0.0,0.0,0.0,1.21846967915e-07,0.0,0.0,0.0,1.21846967915e-07,-0.28439285,0.50013915,13.32723735,9e-08,0.0,0.0,0.0,9e-08,0.0,0.0,0.0,9e-08
1538765326816989832,2806,1538765326816704232,base_link,-0.242742465889,0.0681271499921,0.251369310581,-0.934477531237,1.0,0.0,0.0,0.0,1.0,0.0,0.0,0.0,1.0,-1.23962628841,-0.21820782125,-0.0686173141003,1.21846967915e-07,0.0,0.0,0.0,1.21846967915e-07,0.0,0.0,0.0,1.21846967915e-07,-0.10787315,1.0983448,15.40624715,9e-08,0.0,0.0,0.0,9e-08,0.0,0.0,0.0,9e-08
1538765327155058760,2807,1538765327154827208,base_link,-0.24209443866,0.0809226011433,0.300936046196,-0.918846729055,1.0,0.0,0.0,0.0,1.0,0.0,0.0,0.0,1.0,0.240710943937,-0.116171762347,-0.340083450079,1.21846967915e-07,0.0,0.0,0.0,1.21846967915e-07,0.0,0.0,0.0,1.21846967915e-07,-0.4314926,0.75511205,12.71922505,9e-08,0.0,0.0,0.0,9e-08,0.0,0.0,0.0,9e-08
1538765327617444712,2808,1538765327617160968,base_link,-0.299078744452,0.121717414625,0.356198129782,-0.876846433496,1.0,0.0,0.0,0.0,1.0,0.0,0.0,0.0,1.0,0.240531697869,-0.177398622036,-0.201559573412,1.21846967915e-07,0.0,0.0,0.0,1.21846967915e-07,0.0,0.0,0.0,1.21846967915e-07,-0.34323275,0.5099458,12.2386992,9e-08,0.0,0.0,0.0,9e-08,0.0,0.0,0.0,9e-08
1538765328011801192,2809,1538765328011539112,base_link,-0.305094586301,0.147598678142,0.404403023396,-0.849464606849,1.0,0.0,0.0,0.0,1.0,0.0,0.0,0.0,1.0,-0.036940202117,-0.174167469144,-0.255557566881,1.21846967915e-07,0.0,0.0,0.0,1.21846967915e-07,0.0,0.0,0.0,1.21846967915e-07,-0.1372931,0.77472535,12.05237285,9e-08,0.0,0.0,0.0,9e-08,0.0,0.0,0.0,9e-08
1538765328466979848,2810,1538765328466683048,base_link,-0.300113390375,0.163483101739,0.464772697112,-0.816817953024,1.0,0.0,0.0,0.0,1.0,0.0,0.0,0.0,1.0,0.0908561274409,-0.192860707641,-0.233324155211,1.21846967915e-07,0.0,0.0,0.0,1.21846967915e-07,0.0,0.0,0.0,1.21846967915e-07,-0.10787315,0.42168595,10.6892485,9e-08,0.0,0.0,0.0,9e-08,0.0,0.0,0.0,9e-08
1538765328820472872,2811,1538765328820191048,base_link,-0.293037153988,0.183654550231,0.503937773692,-0.791484019301,1.0,0.0,0.0,0.0,1.0,0.0,0.0,0.0,1.0,-0.0431750267744,-0.127268701792,-0.281119942665,1.21846967915e-07,0.0,0.0,0.0,1.21846967915e-07,0.0,0.0,0.0,1.21846967915e-07,-0.02941995,1.5886773,12.1406327,9e-08,0.0,0.0,0.0,9e-08,0.0,0.0,0.0,9e-08
1538765329116200264,2812,1538765329115958600,base_link,-0.291220401067,0.1828930705,0.553947740642,-0.758210197375,1.0,0.0,0.0,0.0,1.0,0.0,0.0,0.0,1.0,0.0371032655239,-0.179837584496,-0.452198773623,1.21846967915e-07,0.0,0.0,0.0,1.21846967915e-07,0.0,0.0,0.0,1.21846967915e-07,-0.2549729,0.9610517,11.52281375,9e-08,0.0,0.0,0.0,9e-08,0.0,0.0,0.0,9e-08
1538765329425319816,2813,1538765329425059048,base_link,-0.286970515753,0.19692695345,0.60658568546,-0.714787733729,1.0,0.0,0.0,0.0,1.0,0.0,0.0,0.0,1.0,0.0133313350379,-0.255104422569,-0.274096727371,1.21846967915e-07,0.0,0.0,0.0,1.21846967915e-07,0.0,0.0,0.0,1.21846967915e-07,-0.14709975,0.42168595,11.11093445,9e-08,0.0,0.0,0.0,9e-08,0.0,0.0,0.0,9e-08
1538765329821638888,2814,1538765329821376968,base_link,-0.267735081442,0.227176726517,0.65147510272,-0.672524238693,1.0,0.0,0.0,0.0,1.0,0.0,0.0,0.0,1.0,0.0464912801981,-0.256636112928,-0.240719124675,1.21846967915e-07,0.0,0.0,0.0,1.21846967915e-07,0.0,0.0,0.0,1.21846967915e-07,-0.0196133,0.8629852,13.68027675,9e-08,0.0,0.0,0.0,9e-08,0.0,0.0,0.0,9e-08
1538765330143240168,2815,1538765330142873704,base_link,0.258005109413,-0.251951838297,-0.689374262388,0.628264881282,1.0,0.0,0.0,0.0,1.0,0.0,0.0,0.0,1.0,0.0564547292888,-0.259236752987,-0.26915755868,1.21846967915e-07,0.0,0.0,0.0,1.21846967915e-07,0.0,0.0,0.0,1.21846967915e-07,0.0196133,0.5099458,13.0036179,9e-08,0.0,0.0,0.0,9e-08,0.0,0.0,0.0,9e-08
1538765330444805000,2816,1538765330440107016,base_link,0.243038280027,-0.271586750878,-0.721112057377,0.5892117038,1.0,0.0,0.0,0.0,1.0,0.0,0.0,0.0,1.0,0.0808883011341,-0.244604438543,-0.235025703907,1.21846967915e-07,0.0,0.0,0.0,1.21846967915e-07,0.0,0.0,0.0,1.21846967915e-07,0.00980665,0.8433719,12.18966595,9e-08,0.0,0.0,0.0,9e-08,0.0,0.0,0.0,9e-08
1538765330821491976,2817,1538765330821069096,base_link,0.223757402223,-0.287427431651,-0.764348876895,0.532060984168,1.0,0.0,0.0,0.0,1.0,0.0,0.0,0.0,1.0,0.00408229324967,-0.255720049143,-0.346707701683,1.21846967915e-07,0.0,0.0,0.0,1.21846967915e-07,0.0,0.0,0.0,1.21846967915e-07,0.14709975,1.1571847,12.8270982,9e-08,0.0,0.0,0.0,9e-08,0.0,0.0,0.0,9e-08
1538765331261854792,2818,1538765331261350792,base_link,0.198298538938,-0.309740373677,-0.812893045017,0.45160102716,1.0,0.0,0.0,0.0,1.0,0.0,0.0,0.0,1.0,0.058837313205,-0.306903749704,-0.246688619256,1.21846967915e-07,0.0,0.0,0.0,1.21846967915e-07,0.0,0.0,0.0,1.21846967915e-07,-0.00980665,0.50013915,14.2392558,9e-08,0.0,0.0,0.0,9e-08,0.0,0.0,0.0,9e-08
1538765331644068200,2819,1538765331643556552,base_link,0.158825864225,-0.325384091147,-0.841535256276,0.400896433666,1.0,0.0,0.0,0.0,1.0,0.0,0.0,0.0,1.0,-0.0671150311828,-0.296660959721,-0.23704855144,1.21846967915e-07,0.0,0.0,0.0,1.21846967915e-07,0.0,0.0,0.0,1.21846967915e-07,0.26477955,0.8433719,14.5726819,9e-08,0.0,0.0,0.0,9e-08,0.0,0.0,0.0,9e-08
1538765332086666792,2820,1538765332086176904,base_link,0.126003423577,-0.344909705537,-0.871277209787,0.325632393933,1.0,0.0,0.0,0.0,1.0,0.0,0.0,0.0,1.0,0.197003379464,-0.284079760313,-0.264806002378,1.21846967915e-07,0.0,0.0,0.0,1.21846967915e-07,0.0,0.0,0.0,1.21846967915e-07,0.30400615,0.57859235,16.6124651,9e-08,0.0,0.0,0.0,9e-08,0.0,0.0,0.0,9e-08
1538765332528195912,2821,1538765332526706312,base_link,0.0955294992108,-0.360437363359,-0.89055229408,0.260529524975,1.0,0.0,0.0,0.0,1.0,0.0,0.0,0.0,1.0,0.171644330025,-0.235782712698,-0.327110230923,1.21846967915e-07,0.0,0.0,0.0,1.21846967915e-07,0.0,0.0,0.0,1.21846967915e-07,0.1176798,1.3925443,12.93497135,9e-08,0.0,0.0,0.0,9e-08,0.0,0.0,0.0,9e-08
1538765332844732936,2822,1538765332843570632,base_link,0.0863700418492,-0.363069449715,-0.906388563585,0.197940805184,1.0,0.0,0.0,0.0,1.0,0.0,0.0,0.0,1.0,0.127208650112,-0.189294040203,-0.372018307447,1.21846967915e-07,0.0,0.0,0.0,1.21846967915e-07,0.0,0.0,0.0,1.21846967915e-07,-0.1176798,0.588399,11.85623985,9e-08,0.0,0.0,0.0,9e-08,0.0,0.0,0.0,9e-08
1538765333290209192,2823,1538765333289869896,base_link,0.0734193104054,-0.38035090515,-0.914533805181,0.116493403215,1.0,0.0,0.0,0.0,1.0,0.0,0.0,0.0,1.0,-0.380929589272,-0.193669259548,-0.312963157892,1.21846967915e-07,0.0,0.0,0.0,1.21846967915e-07,0.0,0.0,0.0,1.21846967915e-07,-0.53936575,1.14737805,8.58081875,9e-08,0.0,0.0,0.0,9e-08,0.0,0.0,0.0,9e-08
1538765333592351976,2824,1538765333591980968,base_link,0.0616187229379,-0.354788744596,-0.931439854225,0.052420202714,1.0,0.0,0.0,0.0,1.0,0.0,0.0,0.0,1.0,0.0534029453993,-0.214900240302,-0.409134954214,1.21846967915e-07,0.0,0.0,0.0,1.21846967915e-07,0.0,0.0,0.0,1.21846967915e-07,-0.44129925,1.04931155,13.20955755,9e-08,0.0,0.0,0.0,9e-08,0.0,0.0,0.0,9e-08
1538765333911236776,2825,1538765333910949672,base_link,0.0452218018008,-0.356854909257,-0.932979324532,-0.0126151645635,1.0,0.0,0.0,0.0,1.0,0.0,0.0,0.0,1.0,-0.0287898778915,-0.244687706232,-0.222817957401,1.21846967915e-07,0.0,0.0,0.0,1.21846967915e-07,0.0,0.0,0.0,1.21846967915e-07,-0.44129925,0.67665885,12.0425662,9e-08,0.0,0.0,0.0,9e-08,0.0,0.0,0.0,9e-08
1538765334281352392,2826,1538765334280984360,base_link,0.0231881248913,-0.339513881513,-0.937276227841,-0.075537459896,1.0,0.0,0.0,0.0,1.0,0.0,0.0,0.0,1.0,-0.0281000398099,-0.231521859765,-0.361243605614,1.21846967915e-07,0.0,0.0,0.0,1.21846967915e-07,0.0,0.0,0.0,1.21846967915e-07,-0.53936575,0.87279185,12.60154525,9e-08,0.0,0.0,0.0,9e-08,0.0,0.0,0.0,9e-08
1538765334604828520,2827,1538765334604482952,base_link,-0.0052681405794,-0.357086847282,-0.92407663882,-0.136174872061,1.0,0.0,0.0,0.0,1.0,0.0,0.0,0.0,1.0,0.256931573153,-0.319067001343,-0.150277078152,1.21846967915e-07,0.0,0.0,0.0,1.21846967915e-07,0.0,0.0,0.0,1.21846967915e-07,-0.34323275,0.1372931,16.73995155,9e-08,0.0,0.0,0.0,9e-08,0.0,0.0,0.0,9e-08
1538765335001858920,2828,1538765335001481160,base_link,-0.0482182995266,-0.333453023116,-0.924164120693,-0.180013207822,1.0,0.0,0.0,0.0,1.0,0.0,0.0,0.0,1.0,-0.388997912407,-0.24973936379,-0.186140760779,1.21846967915e-07,0.0,0.0,0.0,1.21846967915e-07,0.0,0.0,0.0,1.21846967915e-07,-0.4118793,1.12776475,15.2787607,9e-08,0.0,0.0,0.0,9e-08,0.0,0.0,0.0,9e-08
1538765335455761000,2829,1538765335453970024,base_link,-0.0394196875593,-0.274123134063,-0.923353253377,-0.2659348888,1.0,0.0,0.0,0.0,1.0,0.0,0.0,0.0,1.0,-0.218375906348,-0.116596631706,-0.356735616922,1.21846967915e-07,0.0,0.0,0.0,1.21846967915e-07,0.0,0.0,0.0,1.21846967915e-07,-0.7060788,0.67665885,9.56148375,9e-08,0.0,0.0,0.0,9e-08,0.0,0.0,0.0,9e-08
1538765335812055240,2830,1538765335811626120,base_link,-0.035455487052,-0.223675457051,-0.921197329056,-0.316397976117,1.0,0.0,0.0,0.0,1.0,0.0,0.0,0.0,1.0,-0.442763179541,-0.15143583715,-0.125431448221,1.21846967915e-07,0.0,0.0,0.0,1.21846967915e-07,0.0,0.0,0.0,1.21846967915e-07,-0.9022118,0.61781895,11.01286795,9e-08,0.0,0.0,0.0,9e-08,0.0,0.0,0.0,9e-08
1538765336228091048,2831,1538765336227659816,base_link,-0.0167401045396,-0.143853931579,-0.924798461529,-0.351814753561,1.0,0.0,0.0,0.0,1.0,0.0,0.0,0.0,1.0,-0.28428953886,-0.0788209810853,-0.158281177282,1.21846967915e-07,0.0,0.0,0.0,1.21846967915e-07,0.0,0.0,0.0,1.21846967915e-07,-0.87279185,0.5099458,10.09104285,9e-08,0.0,0.0,0.0,9e-08,0.0,0.0,0.0,9e-08
1538765336483566024,2832,1538765336483302856,base_link,-0.00750603307137,-0.112852162788,-0.922180931696,-0.369851832548,1.0,0.0,0.0,0.0,1.0,0.0,0.0,0.0,1.0,-0.231637224555,-0.00405082944781,-0.0798459425569,1.21846967915e-07,0.0,0.0,0.0,1.21846967915e-07,0.0,0.0,0.0,1.21846967915e-07,-0.8629852,0.3334261,11.50320045,9e-08,0.0,0.0,0.0,9e-08,0.0,0.0,0.0,9e-08
1538765336871033320,2833,1538765336870428104,base_link,0.0170133457782,-0.0671610820713,-0.91934734797,-0.38729883669,1.0,0.0,0.0,0.0,1.0,0.0,0.0,0.0,1.0,-0.102953910828,0.0354394949973,-0.156350985169,1.21846967915e-07,0.0,0.0,0.0,1.21846967915e-07,0.0,0.0,0.0,1.21846967915e-07,-0.8041453,0.4707192,8.5710121,9e-08,0.0,0.0,0.0,9e-08,0.0,0.0,0.0,9e-08
1538765337106818568,2834,1538765337106391336,base_link,0.0192097372944,-0.070600608473,-0.914916922692,-0.396955368584,1.0,0.0,0.0,0.0,1.0,0.0,0.0,0.0,1.0,0.0239920578897,0.00620358716697,-0.0415887087584,1.21846967915e-07,0.0,0.0,0.0,1.21846967915e-07,0.0,0.0,0.0,1.21846967915e-07,-0.69627215,0.32361945,8.825985,9e-08,0.0,0.0,0.0,9e-08,0.0,0.0,0.0,9e-08
1538765337604611432,2835,1538765337602454408,base_link,0.00727042562351,-0.107447890356,-0.907837694753,-0.405256476511,1.0,0.0,0.0,0.0,1.0,0.0,0.0,0.0,1.0,0.181262776256,0.0427890270948,-0.0403063744307,1.21846967915e-07,0.0,0.0,0.0,1.21846967915e-07,0.0,0.0,0.0,1.21846967915e-07,-0.6080123,0.28439285,10.7480884,9e-08,0.0,0.0,0.0,9e-08,0.0,0.0,0.0,9e-08
1538765337968637192,2836,1538765337965749672,base_link,0.00733409770242,-0.123470545963,-0.89709878226,-0.424163895396,1.0,0.0,0.0,0.0,1.0,0.0,0.0,0.0,1.0,0.21696613729,0.028274981305,-0.251931488514,1.21846967915e-07,0.0,0.0,0.0,1.21846967915e-07,0.0,0.0,0.0,1.21846967915e-07,-0.71588545,0.7256921,9.79684335,9e-08,0.0,0.0,0.0,9e-08,0.0,0.0,0.0,9e-08
1538765338257010088,2837,1538765338256429256,base_link,-0.0147025371734,-0.167803946814,-0.875173640009,-0.453538058677,1.0,0.0,0.0,0.0,1.0,0.0,0.0,0.0,1.0,0.457216709852,-0.0715638175607,-0.125928357244,1.21846967915e-07,0.0,0.0,0.0,1.21846967915e-07,0.0,0.0,0.0,1.21846967915e-07,-0.7060788,0.0784532,10.09104285,9e-08,0.0,0.0,0.0,9e-08,0.0,0.0,0.0,9e-08
1538765338720712360,2838,1538765338720325224,base_link,-0.0677823143569,-0.235192729979,-0.850688685069,-0.46520823157,1.0,0.0,0.0,0.0,1.0,0.0,0.0,0.0,1.0,0.236272186041,-0.0840975642204,-0.072612605989,1.21846967915e-07,0.0,0.0,0.0,1.21846967915e-07,0.0,0.0,0.0,1.21846967915e-07,-0.588399,0.6080123,11.69933345,9e-08,0.0,0.0,0.0,9e-08,0.0,0.0,0.0,9e-08
1538765339057786568,2839,1538765339057462504,base_link,-0.0928392901594,-0.262806224064,-0.831882581585,-0.479880323885,1.0,0.0,0.0,0.0,1.0,0.0,0.0,0.0,1.0,0.35404676199,-0.085645660758,-0.149878546596,1.21846967915e-07,0.0,0.0,0.0,1.21846967915e-07,0.0,0.0,0.0,1.21846967915e-07,-0.48052585,0.61781895,10.2773692,9e-08,0.0,0.0,0.0,9e-08,0.0,0.0,0.0,9e-08
1538765339499068968,2840,1538765339498807144,base_link,-0.107837412324,-0.274138171612,-0.800560561173,-0.521844941781,1.0,0.0,0.0,0.0,1.0,0.0,0.0,0.0,1.0,0.107077881694,-0.0659249946475,-0.257957994938,1.21846967915e-07,0.0,0.0,0.0,1.21846967915e-07,0.0,0.0,0.0,1.21846967915e-07,-0.34323275,0.85317855,10.01258965,9e-08,0.0,0.0,0.0,9e-08,0.0,0.0,0.0,9e-08
1538765339816466536,2841,1538765339815921000,base_link,-0.122568533626,-0.285506504064,-0.766025430389,-0.562732645844,1.0,0.0,0.0,0.0,1.0,0.0,0.0,0.0,1.0,0.133737772703,-0.183614075184,-0.28261038661,1.21846967915e-07,0.0,0.0,0.0,1.21846967915e-07,0.0,0.0,0.0,1.21846967915e-07,-0.5099458,0.73549875,10.22833595,9e-08,0.0,0.0,0.0,9e-08,0.0,0.0,0.0,9e-08
1538765340224073512,2842,1538765340223723816,base_link,-0.158368060032,-0.302824313708,-0.704580961457,-0.621918532721,1.0,0.0,0.0,0.0,1.0,0.0,0.0,0.0,1.0,0.195995435119,-0.250227153301,-0.367705702782,1.21846967915e-07,0.0,0.0,0.0,1.21846967915e-07,0.0,0.0,0.0,1.21846967915e-07,-0.24516625,0.53936575,11.964113,9e-08,0.0,0.0,0.0,9e-08,0.0,0.0,0.0,9e-08
1538765340667450888,2843,1538765340666847656,base_link,-0.205908069529,-0.283753273817,-0.644100714031,-0.679867793535,1.0,0.0,0.0,0.0,1.0,0.0,0.0,0.0,1.0,0.0613454543054,-0.355263501406,-0.232205405831,1.21846967915e-07,0.0,0.0,0.0,1.21846967915e-07,0.0,0.0,0.0,1.21846967915e-07,0.0,0.7453054,14.0038962,9e-08,0.0,0.0,0.0,9e-08,0.0,0.0,0.0,9e-08
1538765341026475848,2844,1538765341026017000,base_link,-0.228839753899,-0.2452939303,-0.600118384278,-0.726168836872,1.0,0.0,0.0,0.0,1.0,0.0,0.0,0.0,1.0,-0.156297057867,-0.3236553967,-0.275106668472,1.21846967915e-07,0.0,0.0,0.0,1.21846967915e-07,0.0,0.0,0.0,1.21846967915e-07,0.0980665,0.980665,13.3958839,9e-08,0.0,0.0,0.0,9e-08,0.0,0.0,0.0,9e-08
1538765341460498760,2845,1538765341458887528,base_link,-0.258434754635,-0.21224066554,-0.534310148648,-0.776323413623,1.0,0.0,0.0,0.0,1.0,0.0,0.0,0.0,1.0,0.0847345665097,-0.28644362092,-0.302493661642,1.21846967915e-07,0.0,0.0,0.0,1.21846967915e-07,0.0,0.0,0.0,1.21846967915e-07,0.1372931,0.6276256,13.4743371,9e-08,0.0,0.0,0.0,9e-08,0.0,0.0,0.0,9e-08
1538765341759442632,2846,1538765341758920968,base_link,-0.276353653651,-0.188487054544,-0.488533808617,-0.805875924831,1.0,0.0,0.0,0.0,1.0,0.0,0.0,0.0,1.0,-0.045351177454,-0.295629113913,-0.270869612694,1.21846967915e-07,0.0,0.0,0.0,1.21846967915e-07,0.0,0.0,0.0,1.21846967915e-07,0.16671305,1.0002783,12.5917386,9e-08,0.0,0.0,0.0,9e-08,0.0,0.0,0.0,9e-08
1538765342115198504,2847,1538765342113621512,base_link,-0.29237787893,-0.160665544615,-0.428653743598,-0.839617607477,1.0,0.0,0.0,0.0,1.0,0.0,0.0,0.0,1.0,-0.0526432320476,-0.302996814251,-0.275320678949,1.21846967915e-07,0.0,0.0,0.0,1.21846967915e-07,0.0,0.0,0.0,1.21846967915e-07,0.22555295,0.6864655,13.6704701,9e-08,0.0,0.0,0.0,9e-08,0.0,0.0,0.0,9e-08
1538765342473926632,2848,1538765342473531720,base_link,-0.31640583138,-0.136263473475,-0.372758187588,-0.861609510887,1.0,0.0,0.0,0.0,1.0,0.0,0.0,0.0,1.0,0.00240663974546,-0.285931587219,-0.293390184641,1.21846967915e-07,0.0,0.0,0.0,1.21846967915e-07,0.0,0.0,0.0,1.21846967915e-07,0.32361945,1.176798,13.0820711,9e-08,0.0,0.0,0.0,9e-08,0.0,0.0,0.0,9e-08
1538765342976652232,2849,1538765342974845448,base_link,-0.324301037644,-0.101934421643,-0.268838732354,-0.90120139073,1.0,0.0,0.0,0.0,1.0,0.0,0.0,0.0,1.0,-0.0610107965767,-0.23366767168,-0.331284552813,1.21846967915e-07,0.0,0.0,0.0,1.21846967915e-07,0.0,0.0,0.0,1.21846967915e-07,0.06864655,0.588399,11.89546645,9e-08,0.0,0.0,0.0,9e-08,0.0,0.0,0.0,9e-08
1538765343367158696,2850,1538765343366808776,base_link,-0.298521573442,-0.0643296980847,-0.210991946424,-0.928562845842,1.0,0.0,0.0,0.0,1.0,0.0,0.0,0.0,1.0,-0.166448310018,-0.184900119901,-0.236782327294,1.21846967915e-07,0.0,0.0,0.0,1.21846967915e-07,0.0,0.0,0.0,1.21846967915e-07,0.20593965,0.71588545,11.73856005,9e-08,0.0,0.0,0.0,9e-08,0.0,0.0,0.0,9e-08
1538765343975645608,2851,1538765343971833032,base_link,-0.346578601918,-0.052949028159,-0.12370413171,-0.928319428272,1.0,0.0,0.0,0.0,1.0,0.0,0.0,0.0,1.0,0.14303843677,-0.110667794943,-0.274479329586,1.21846967915e-07,0.0,0.0,0.0,1.21846967915e-07,0.0,0.0,0.0,1.21846967915e-07,0.18632635,0.9218251,8.0806796,9e-08,0.0,0.0,0.0,9e-08,0.0,0.0,0.0,9e-08
1538765344357880392,2852,1538765344357381960,base_link,-0.365439659139,-0.0492563683058,-0.0404909474458,-0.928648560482,1.0,0.0,0.0,0.0,1.0,0.0,0.0,0.0,1.0,0.0258290357888,-0.215116590261,-0.411934942007,1.21846967915e-07,0.0,0.0,0.0,1.21846967915e-07,0.0,0.0,0.0,1.21846967915e-07,0.1765197,0.97085835,9.4732239,9e-08,0.0,0.0,0.0,9e-08,0.0,0.0,0.0,9e-08
1538765344662209864,2853,1538765344661900456,base_link,-0.367400587409,-0.036039345371,0.0262074275454,-0.928994695732,1.0,0.0,0.0,0.0,1.0,0.0,0.0,0.0,1.0,0.0149455890059,-0.283530056477,-0.366941213608,1.21846967915e-07,0.0,0.0,0.0,1.21846967915e-07,0.0,0.0,0.0,1.21846967915e-07,0.30400615,0.59820565,11.9248864,9e-08,0.0,0.0,0.0,9e-08,0.0,0.0,0.0,9e-08
1538765345056664264,2854,1538765345056339560,base_link,-0.382875570335,0.0111355624649,0.103473358417,-0.917919147304,1.0,0.0,0.0,0.0,1.0,0.0,0.0,0.0,1.0,0.055504783988,-0.372301220894,-0.19500015676,1.21846967915e-07,0.0,0.0,0.0,1.21846967915e-07,0.0,0.0,0.0,1.21846967915e-07,0.30400615,0.6864655,10.99325465,9e-08,0.0,0.0,0.0,9e-08,0.0,0.0,0.0,9e-08
1538765345425097704,2855,1538765345421812520,base_link,-0.37725421132,0.0533121520286,0.170198265686,-0.908773692866,1.0,0.0,0.0,0.0,1.0,0.0,0.0,0.0,1.0,-0.00597581267357,-0.366699725389,-0.356101959944,1.21846967915e-07,0.0,0.0,0.0,1.21846967915e-07,0.0,0.0,0.0,1.21846967915e-07,0.95124505,1.14737805,14.22944915,9e-08,0.0,0.0,0.0,9e-08,0.0,0.0,0.0,9e-08
1538765345722661320,2856,1538765345720601416,base_link,-0.37085684182,0.0876109975432,0.239040040529,-0.893112185007,1.0,0.0,0.0,0.0,1.0,0.0,0.0,0.0,1.0,-0.207770437002,-0.423448503017,-0.268378198147,1.21846967915e-07,0.0,0.0,0.0,1.21846967915e-07,0.0,0.0,0.0,1.21846967915e-07,0.79433865,0.8237586,14.8668814,9e-08,0.0,0.0,0.0,9e-08,0.0,0.0,0.0,9e-08
1538765346103191336,2857,1538765346102774504,base_link,-0.317303553834,0.126815760819,0.319404552945,-0.883864779868,1.0,0.0,0.0,0.0,1.0,0.0,0.0,0.0,1.0,-0.326914310455,-0.356908500195,-0.255840867758,1.21846967915e-07,0.0,0.0,0.0,1.21846967915e-07,0.0,0.0,0.0,1.21846967915e-07,1.04931155,1.1571847,14.9845612,9e-08,0.0,0.0,0.0,9e-08,0.0,0.0,0.0,9e-08
1538765346520008904,2858,1538765346519600616,base_link,-0.24329679368,0.138234591772,0.397057186807,-0.874095794651,1.0,0.0,0.0,0.0,1.0,0.0,0.0,0.0,1.0,-0.333511888981,-0.232573449612,-0.292791247368,1.21846967915e-07,0.0,0.0,0.0,1.21846967915e-07,0.0,0.0,0.0,1.21846967915e-07,0.7060788,0.93163175,13.56259695,9e-08,0.0,0.0,0.0,9e-08,0.0,0.0,0.0,9e-08
1538765346894491208,2859,1538765346894251112,base_link,-0.175408701367,0.13430921799,0.459169240713,-0.860439672395,1.0,0.0,0.0,0.0,1.0,0.0,0.0,0.0,1.0,-0.325371801853,-0.166016712785,-0.226240366697,1.21846967915e-07,0.0,0.0,0.0,1.21846967915e-07,0.0,0.0,0.0,1.21846967915e-07,0.4707192,0.67665885,12.1210194,9e-08,0.0,0.0,0.0,9e-08,0.0,0.0,0.0,9e-08
1538765347240473576,2860,1538765347239309384,base_link,-0.125807516861,0.126465196224,0.495665319595,-0.84999700811,1.0,0.0,0.0,0.0,1.0,0.0,0.0,0.0,1.0,-0.404700160027,-0.130549624562,-0.177596434951,1.21846967915e-07,0.0,0.0,0.0,1.21846967915e-07,0.0,0.0,0.0,1.21846967915e-07,0.1569064,0.99047165,11.2384209,9e-08,0.0,0.0,0.0,9e-08,0.0,0.0,0.0,9e-08
1538765347619292328,2861,1538765347618302568,base_link,-0.0700676693319,0.107505331338,0.53120442766,-0.837469391371,1.0,0.0,0.0,0.0,1.0,0.0,0.0,0.0,1.0,-0.135263562202,-0.0612660907209,-0.12911863625,1.21846967915e-07,0.0,0.0,0.0,1.21846967915e-07,0.0,0.0,0.0,1.21846967915e-07,0.42168595,0.3334261,12.36618565,9e-08,0.0,0.0,0.0,9e-08,0.0,0.0,0.0,9e-08
1538765348155963656,2862,1538765348155583080,base_link,-0.0808306614491,0.117251921275,0.558247176837,-0.817360679676,1.0,0.0,0.0,0.0,1.0,0.0,0.0,0.0,1.0,0.0929584652185,0.00182711787056,-0.167824193835,1.21846967915e-07,0.0,0.0,0.0,1.21846967915e-07,0.0,0.0,0.0,1.21846967915e-07,0.2549729,0.5687857,9.99297635,9e-08,0.0,0.0,0.0,9e-08,0.0,0.0,0.0,9e-08
1538765348468993064,2863,1538765348467675368,base_link,-0.0948326785794,0.119418397244,0.574542035243,-0.804143929413,1.0,0.0,0.0,0.0,1.0,0.0,0.0,0.0,1.0,-0.0930567458272,0.00329486024566,-0.129831761122,1.21846967915e-07,0.0,0.0,0.0,1.21846967915e-07,0.0,0.0,0.0,1.21846967915e-07,0.3334261,0.63743225,9.67916355,9e-08,0.0,0.0,0.0,9e-08,0.0,0.0,0.0,9e-08
1538765348807338888,2864,1538765348806999176,base_link,-0.101040065533,0.114971089799,0.591921660008,-0.791328820454,1.0,0.0,0.0,0.0,1.0,0.0,0.0,0.0,1.0,0.188556611538,0.0354491360486,-0.150399237871,1.21846967915e-07,0.0,0.0,0.0,1.21846967915e-07,0.0,0.0,0.0,1.21846967915e-07,0.30400615,0.5295591,10.0223963,9e-08,0.0,0.0,0.0,9e-08,0.0,0.0,0.0,9e-08
1538765349224052712,2865,1538765349223687784,base_link,-0.151220510312,0.141884415248,0.602016276195,-0.771088563764,1.0,0.0,0.0,0.0,1.0,0.0,0.0,0.0,1.0,0.267358422279,0.023602232337,-0.107444413006,1.21846967915e-07,0.0,0.0,0.0,1.21846967915e-07,0.0,0.0,0.0,1.21846967915e-07,0.36284605,0.6864655,9.5320638,9e-08,0.0,0.0,0.0,9e-08,0.0,0.0,0.0,9e-08
1538765349495796616,2866,1538765349494501352,base_link,-0.175251611921,0.152055967905,0.613669701426,-0.754702161582,1.0,0.0,0.0,0.0,1.0,0.0,0.0,0.0,1.0,0.0696175023913,0.0261937268078,-0.215385109186,1.21846967915e-07,0.0,0.0,0.0,1.21846967915e-07,0.0,0.0,0.0,1.21846967915e-07,0.3530394,0.9610517,9.1201845,9e-08,0.0,0.0,0.0,9e-08,0.0,0.0,0.0,9e-08
1538765349927484136,2867,1538765349927028008,base_link,-0.183619668234,0.138512607197,0.658424334747,-0.716641800691,1.0,0.0,0.0,0.0,1.0,0.0,0.0,0.0,1.0,0.0281557422131,-0.0305289234966,-0.312171369791,1.21846967915e-07,0.0,0.0,0.0,1.21846967915e-07,0.0,0.0,0.0,1.21846967915e-07,0.18632635,0.67665885,8.9632781,9e-08,0.0,0.0,0.0,9e-08,0.0,0.0,0.0,9e-08
1538765350265302792,2868,1538765350264990696,base_link,0.191948329337,-0.148618905462,-0.696619172732,0.675122202261,1.0,0.0,0.0,0.0,1.0,0.0,0.0,0.0,1.0,0.156656116247,-0.121513620019,-0.291831314564,1.21846967915e-07,0.0,0.0,0.0,1.21846967915e-07,0.0,0.0,0.0,1.21846967915e-07,0.28439285,0.59820565,9.81645665,9e-08,0.0,0.0,0.0,9e-08,0.0,0.0,0.0,9e-08
1538765350561127144,2869,1538765350560859464,base_link,0.200353307586,-0.172136853826,-0.723985514656,0.637238126812,1.0,0.0,0.0,0.0,1.0,0.0,0.0,0.0,1.0,0.175242722034,-0.171661183238,-0.289384335279,1.21846967915e-07,0.0,0.0,0.0,1.21846967915e-07,0.0,0.0,0.0,1.21846967915e-07,0.2941995,0.588399,11.64049355,9e-08,0.0,0.0,0.0,9e-08,0.0,0.0,0.0,9e-08
1538765350923047304,2870,1538765350922700392,base_link,0.196338211545,-0.200833660797,-0.752648630703,0.59551421988,1.0,0.0,0.0,0.0,1.0,0.0,0.0,0.0,1.0,0.127304986119,-0.203314378858,-0.21276730299,1.21846967915e-07,0.0,0.0,0.0,1.21846967915e-07,0.0,0.0,0.0,1.21846967915e-07,0.4511059,0.73549875,12.0229529,9e-08,0.0,0.0,0.0,9e-08,0.0,0.0,0.0,9e-08
1538765351364336520,2871,1538765351363919944,base_link,0.168514647303,-0.207940945992,-0.790168166413,0.551359814832,1.0,0.0,0.0,0.0,1.0,0.0,0.0,0.0,1.0,-0.0993817895651,-0.194822728634,-0.282419025898,1.21846967915e-07,0.0,0.0,0.0,1.21846967915e-07,0.0,0.0,0.0,1.21846967915e-07,0.53936575,1.04931155,13.20955755,9e-08,0.0,0.0,0.0,9e-08,0.0,0.0,0.0,9e-08
1538765351664720296,2872,1538765351664307656,base_link,0.158384257311,-0.220475405496,-0.820074727458,0.503768264177,1.0,0.0,0.0,0.0,1.0,0.0,0.0,0.0,1.0,0.00402709282935,-0.19096006453,-0.309327811003,1.21846967915e-07,0.0,0.0,0.0,1.21846967915e-07,0.0,0.0,0.0,1.21846967915e-07,0.42168595,0.75511205,11.22861425,9e-08,0.0,0.0,0.0,9e-08,0.0,0.0,0.0,9e-08
1538765352001941640,2873,1538765352001573576,base_link,0.143510593171,-0.234506334631,-0.84529574539,0.458133813958,1.0,0.0,0.0,0.0,1.0,0.0,0.0,0.0,1.0,-0.0548329241574,-0.222995147109,-0.238101273775,1.21846967915e-07,0.0,0.0,0.0,1.21846967915e-07,0.0,0.0,0.0,1.21846967915e-07,0.50013915,0.69627215,12.552512,9e-08,0.0,0.0,0.0,9e-08,0.0,0.0,0.0,9e-08
1538765352434460488,2874,1538765352433685064,base_link,0.110158108584,-0.238353253201,-0.875887483907,0.404813578498,1.0,0.0,0.0,0.0,1.0,0.0,0.0,0.0,1.0,0.0110691152513,-0.169816344976,-0.159077554941,1.21846967915e-07,0.0,0.0,0.0,1.21846967915e-07,0.0,0.0,0.0,1.21846967915e-07,0.16671305,0.26477955,10.14988275,9e-08,0.0,0.0,0.0,9e-08,0.0,0.0,0.0,9e-08
1538765352767622344,2875,1538765352767144904,base_link,0.100341387219,-0.282027930452,-0.879418940538,0.370154264433,1.0,0.0,0.0,0.0,1.0,0.0,0.0,0.0,1.0,0.443387657404,-0.221641108394,-0.0938853472471,1.21846967915e-07,0.0,0.0,0.0,1.21846967915e-07,0.0,0.0,0.0,1.21846967915e-07,0.4707192,0.9218251,13.26839745,9e-08,0.0,0.0,0.0,9e-08,0.0,0.0,0.0,9e-08
1538765353166290792,2876,1538765353165885576,base_link,0.0999613886775,-0.294488964975,-0.898437769203,0.30998958878,1.0,0.0,0.0,0.0,1.0,0.0,0.0,0.0,1.0,-0.013562547043,-0.164857670665,-0.288614571095,1.21846967915e-07,0.0,0.0,0.0,1.21846967915e-07,0.0,0.0,0.0,1.21846967915e-07,0.22555295,0.22555295,11.9444997,9e-08,0.0,0.0,0.0,9e-08,0.0,0.0,0.0,9e-08
1538765353648467112,2877,1538765353647636776,base_link,0.0727036486557,-0.286638839496,-0.920742472123,0.254530263806,1.0,0.0,0.0,0.0,1.0,0.0,0.0,0.0,1.0,-0.255439549685,-0.161588028073,-0.167043507099,1.21846967915e-07,0.0,0.0,0.0,1.21846967915e-07,0.0,0.0,0.0,1.21846967915e-07,0.3334261,0.7256921,11.7091401,9e-08,0.0,0.0,0.0,9e-08,0.0,0.0,0.0,9e-08
1538765353894846216,2878,1538765353894250920,base_link,0.0655512780646,-0.264118188272,-0.935738682509,0.224360715419,1.0,0.0,0.0,0.0,1.0,0.0,0.0,0.0,1.0,-0.140508368611,-0.0575987435877,-0.323603391647,1.21846967915e-07,0.0,0.0,0.0,1.21846967915e-07,0.0,0.0,0.0,1.21846967915e-07,-0.00980665,0.85317855,10.6107953,9e-08,0.0,0.0,0.0,9e-08,0.0,0.0,0.0,9e-08
1538765354222139720,2879,1538765354220101672,base_link,0.0771684430407,-0.263927572531,-0.947463416629,0.163402392903,1.0,0.0,0.0,0.0,1.0,0.0,0.0,0.0,1.0,-0.0269994288683,-0.0553681701422,-0.41720405221,1.21846967915e-07,0.0,0.0,0.0,1.21846967915e-07,0.0,0.0,0.0,1.21846967915e-07,-0.0980665,0.9610517,6.79600845,9e-08,0.0,0.0,0.0,9e-08,0.0,0.0,0.0,9e-08
1538765354620698760,2880,1538765354620222088,base_link,0.0734283400189,-0.269505187463,-0.955408350632,0.0957607244936,1.0,0.0,0.0,0.0,1.0,0.0,0.0,0.0,1.0,0.132132261992,-0.116985835135,-0.186650380492,1.21846967915e-07,0.0,0.0,0.0,1.21846967915e-07,0.0,0.0,0.0,1.21846967915e-07,-0.0196133,0.34323275,9.69877685,9e-08,0.0,0.0,0.0,9e-08,0.0,0.0,0.0,9e-08
1538765354962105064,2881,1538765354961619144,base_link,0.0586121449013,-0.269770798708,-0.959175080098,0.0614125260334,1.0,0.0,0.0,0.0,1.0,0.0,0.0,0.0,1.0,-0.171814024448,-0.193981021643,-0.178509667516,1.21846967915e-07,0.0,0.0,0.0,1.21846967915e-07,0.0,0.0,0.0,1.21846967915e-07,0.0392266,0.8825985,9.4928372,9e-08,0.0,0.0,0.0,9e-08,0.0,0.0,0.0,9e-08
1538765355488946088,2882,1538765355488555080,base_link,0.0420526438024,-0.276255621988,-0.960111168229,-0.0100474430204,1.0,0.0,0.0,0.0,1.0,0.0,0.0,0.0,1.0,0.061533652246,-0.134747639298,-0.347778618336,1.21846967915e-07,0.0,0.0,0.0,1.21846967915e-07,0.0,0.0,0.0,1.21846967915e-07,0.04903325,1.06892485,10.34601575,9e-08,0.0,0.0,0.0,9e-08,0.0,0.0,0.0,9e-08
1538765355964231432,2883,1538765355961115208,base_link,0.0224752717016,-0.295505586548,-0.947715402486,-0.118350438832,1.0,0.0,0.0,0.0,1.0,0.0,0.0,0.0,1.0,0.250345945358,-0.262730062008,-0.318400233984,1.21846967915e-07,0.0,0.0,0.0,1.21846967915e-07,0.0,0.0,0.0,1.21846967915e-07,0.02941995,0.18632635,11.83662655,9e-08,0.0,0.0,0.0,9e-08,0.0,0.0,0.0,9e-08
1538765356310173128,2884,1538765356309912392,base_link,-0.0187993544527,-0.319159415975,-0.932204685228,-0.169641611362,1.0,0.0,0.0,0.0,1.0,0.0,0.0,0.0,1.0,-0.0148680061102,-0.306011736393,-0.184329494834,1.21846967915e-07,0.0,0.0,0.0,1.21846967915e-07,0.0,0.0,0.0,1.21846967915e-07,0.3726527,1.22583125,14.36674225,9e-08,0.0,0.0,0.0,9e-08,0.0,0.0,0.0,9e-08
1538765356702048936,2885,1538765356701639720,base_link,-0.050887696117,-0.317067457584,-0.916104703763,-0.240064244461,1.0,0.0,0.0,0.0,1.0,0.0,0.0,0.0,1.0,0.197924897075,-0.265759110451,-0.343606621027,1.21846967915e-07,0.0,0.0,0.0,1.21846967915e-07,0.0,0.0,0.0,1.21846967915e-07,0.1372931,0.69627215,13.337044,9e-08,0.0,0.0,0.0,9e-08,0.0,0.0,0.0,9e-08
1538765357054502248,2886,1538765357054121480,base_link,-0.102113828741,-0.347386896087,-0.880527884875,-0.305885198015,1.0,0.0,0.0,0.0,1.0,0.0,0.0,0.0,1.0,0.228494256735,-0.323478579521,-0.211928337812,1.21846967915e-07,0.0,0.0,0.0,1.21846967915e-07,0.0,0.0,0.0,1.21846967915e-07,0.2549729,0.6472389,13.7881499,9e-08,0.0,0.0,0.0,9e-08,0.0,0.0,0.0,9e-08
1538765357383036776,2887,1538765357382516264,base_link,-0.123488445493,-0.331850701756,-0.860670509467,-0.365885213842,1.0,0.0,0.0,0.0,1.0,0.0,0.0,0.0,1.0,-0.154904693365,-0.280016422272,-0.390942454338,1.21846967915e-07,0.0,0.0,0.0,1.21846967915e-07,0.0,0.0,0.0,1.21846967915e-07,0.24516625,1.0198916,11.71894675,9e-08,0.0,0.0,0.0,9e-08,0.0,0.0,0.0,9e-08
1538765357800671752,2888,1538765357799541192,base_link,-0.136407881084,-0.30205878225,-0.826840622233,-0.454409471147,1.0,0.0,0.0,0.0,1.0,0.0,0.0,0.0,1.0,-0.0370213352144,-0.269806832075,-0.382059812546,1.21846967915e-07,0.0,0.0,0.0,1.21846967915e-07,0.0,0.0,0.0,1.21846967915e-07,0.24516625,0.9022118,12.3367657,9e-08,0.0,0.0,0.0,9e-08,0.0,0.0,0.0,9e-08
1538765358168319784,2889,1538765358167369864,base_link,-0.157737742173,-0.277028735207,-0.79189888798,-0.520835901009,1.0,0.0,0.0,0.0,1.0,0.0,0.0,0.0,1.0,0.0409211963415,-0.26698577404,-0.272018283606,1.21846967915e-07,0.0,0.0,0.0,1.21846967915e-07,0.0,0.0,0.0,1.21846967915e-07,0.3138128,0.51975245,11.8856598,9e-08,0.0,0.0,0.0,9e-08,0.0,0.0,0.0,9e-08
1538765358484154600,2890,1538765358481913032,base_link,-0.184618478218,-0.277439183231,-0.759633453296,-0.55848055807,1.0,0.0,0.0,0.0,1.0,0.0,0.0,0.0,1.0,0.119070902467,-0.232228457928,-0.244757428765,1.21846967915e-07,0.0,0.0,0.0,1.21846967915e-07,0.0,0.0,0.0,1.21846967915e-07,0.1765197,0.61781895,11.58165365,9e-08,0.0,0.0,0.0,9e-08,0.0,0.0,0.0,9e-08
1538765358759269224,2891,1538765358758187112,base_link,-0.212962246653,-0.277637389471,-0.724561156095,-0.593780845554,1.0,0.0,0.0,0.0,1.0,0.0,0.0,0.0,1.0,0.111714027822,-0.270165115595,-0.262548327446,1.21846967915e-07,0.0,0.0,0.0,1.21846967915e-07,0.0,0.0,0.0,1.21846967915e-07,0.28439285,1.0002783,12.3759923,9e-08,0.0,0.0,0.0,9e-08,0.0,0.0,0.0,9e-08
1538765359116426856,2892,1538765359115853224,base_link,-0.225847589847,-0.268930129473,-0.679998530302,-0.643639223797,1.0,0.0,0.0,0.0,1.0,0.0,0.0,0.0,1.0,0.0456821247935,-0.190157338977,-0.384605586529,1.21846967915e-07,0.0,0.0,0.0,1.21846967915e-07,0.0,0.0,0.0,1.21846967915e-07,0.1569064,0.99047165,11.22861425,9e-08,0.0,0.0,0.0,9e-08,0.0,0.0,0.0,9e-08
1538765359483219464,2893,1538765359482526696,base_link,-0.263897147654,-0.269080042363,-0.619007485831,-0.689045686981,1.0,0.0,0.0,0.0,1.0,0.0,0.0,0.0,1.0,0.107492476702,-0.35573771596,-0.244475394487,1.21846967915e-07,0.0,0.0,0.0,1.21846967915e-07,0.0,0.0,0.0,1.21846967915e-07,0.36284605,0.91201845,13.42530385,9e-08,0.0,0.0,0.0,9e-08,0.0,0.0,0.0,9e-08
1538765359819582056,2894,1538765359819209704,base_link,-0.272961345954,-0.237778091881,-0.575341663493,-0.733440967553,1.0,0.0,0.0,0.0,1.0,0.0,0.0,0.0,1.0,-0.0158010069281,-0.274156391621,-0.307124048471,1.21846967915e-07,0.0,0.0,0.0,1.21846967915e-07,0.0,0.0,0.0,1.21846967915e-07,0.48052585,1.0787315,12.48386545,9e-08,0.0,0.0,0.0,9e-08,0.0,0.0,0.0,9e-08
1538765360184903912,2895,1538765360184412264,base_link,-0.282695036383,-0.216753399676,-0.516693663498,-0.778542958503,1.0,0.0,0.0,0.0,1.0,0.0,0.0,0.0,1.0,-0.0556734502316,-0.24342687428,-0.353359133005,1.21846967915e-07,0.0,0.0,0.0,1.21846967915e-07,0.0,0.0,0.0,1.21846967915e-07,0.4118793,1.12776475,11.11093445,9e-08,0.0,0.0,0.0,9e-08,0.0,0.0,0.0,9e-08
1538765360543166344,2896,1538765360541023624,base_link,-0.291924816281,-0.196938179328,-0.447313106685,-0.822135171216,1.0,0.0,0.0,0.0,1.0,0.0,0.0,0.0,1.0,0.122493304312,-0.298630833626,-0.376800954342,1.21846967915e-07,0.0,0.0,0.0,1.21846967915e-07,0.0,0.0,0.0,1.21846967915e-07,0.3530394,0.8041453,13.52337035,9e-08,0.0,0.0,0.0,9e-08,0.0,0.0,0.0,9e-08
1538765360979637000,2897,1538765360977101832,base_link,-0.318737246418,-0.162744442911,-0.371393315651,-0.856730890734,1.0,0.0,0.0,0.0,1.0,0.0,0.0,0.0,1.0,0.0704147145152,-0.347676634789,-0.281810998917,1.21846967915e-07,0.0,0.0,0.0,1.21846967915e-07,0.0,0.0,0.0,1.21846967915e-07,0.392266,1.1571847,13.3566573,9e-08,0.0,0.0,0.0,9e-08,0.0,0.0,0.0,9e-08
1538765361362597416,2898,1538765361362133928,base_link,-0.320031227948,-0.139049572371,-0.279812603997,-0.894399315857,1.0,0.0,0.0,0.0,1.0,0.0,0.0,0.0,1.0,-0.157281920314,-0.243130028248,-0.524103164673,1.21846967915e-07,0.0,0.0,0.0,1.21846967915e-07,0.0,0.0,0.0,1.21846967915e-07,0.3138128,1.38273765,11.01286795,9e-08,0.0,0.0,0.0,9e-08,0.0,0.0,0.0,9e-08
1538765361670104392,2899,1538765361669727240,base_link,-0.324938012311,-0.117468889756,-0.208558817974,-0.91494238482,1.0,0.0,0.0,0.0,1.0,0.0,0.0,0.0,1.0,0.0896904394031,-0.342661947012,-0.275554269552,1.21846967915e-07,0.0,0.0,0.0,1.21846967915e-07,0.0,0.0,0.0,1.21846967915e-07,0.61781895,-0.12748645,14.7688149,9e-08,0.0,0.0,0.0,9e-08,0.0,0.0,0.0,9e-08
1538765362062989992,2900,1538765362062624296,base_link,-0.343167037907,-0.053609047862,-0.163214762124,-0.923430233156,1.0,0.0,0.0,0.0,1.0,0.0,0.0,0.0,1.0,-0.312486767769,-0.34543004632,-0.136423870921,1.21846967915e-07,0.0,0.0,0.0,1.21846967915e-07,0.0,0.0,0.0,1.21846967915e-07,0.53936575,1.14737805,13.64105015,9e-08,0.0,0.0,0.0,9e-08,0.0,0.0,0.0,9e-08
1538765362406137544,2901,1538765362405633896,base_link,-0.304286765205,-0.0286129319143,-0.110252983895,-0.945745813731,1.0,0.0,0.0,0.0,1.0,0.0,0.0,0.0,1.0,-0.258942067623,-0.151328086853,-0.363172411919,1.21846967915e-07,0.0,0.0,0.0,1.21846967915e-07,0.0,0.0,0.0,1.21846967915e-07,0.4511059,0.99047165,12.356379,9e-08,0.0,0.0,0.0,9e-08,0.0,0.0,0.0,9e-08
1538765362733767976,2902,1538765362733445096,base_link,-0.299057087875,-0.0195024610956,-0.0418127496511,-0.953119198301,1.0,0.0,0.0,0.0,1.0,0.0,0.0,0.0,1.0,0.0536240562797,-0.193345889449,-0.338880419731,1.21846967915e-07,0.0,0.0,0.0,1.21846967915e-07,0.0,0.0,0.0,1.21846967915e-07,0.20593965,0.6080123,11.3953273,9e-08,0.0,0.0,0.0,9e-08,0.0,0.0,0.0,9e-08
1538765363124174920,2903,1538765363123581576,base_link,-0.318304592399,-0.00229355938294,0.0311183034622,-0.947474842533,1.0,0.0,0.0,0.0,1.0,0.0,0.0,0.0,1.0,0.0901483520865,-0.187892690301,-0.302107363939,1.21846967915e-07,0.0,0.0,0.0,1.21846967915e-07,0.0,0.0,0.0,1.21846967915e-07,0.0196133,0.7256921,11.01286795,9e-08,0.0,0.0,0.0,9e-08,0.0,0.0,0.0,9e-08
1538765363555686920,2904,1538765363555388328,base_link,-0.328387001252,0.0236174763355,0.102210713027,-0.938699718953,1.0,0.0,0.0,0.0,1.0,0.0,0.0,0.0,1.0,0.00714530888945,-0.221105217934,-0.286109030247,1.21846967915e-07,0.0,0.0,0.0,1.21846967915e-07,0.0,0.0,0.0,1.21846967915e-07,0.0980665,0.97085835,11.16977435,9e-08,0.0,0.0,0.0,9e-08,0.0,0.0,0.0,9e-08
1538765363957649416,2905,1538765363956197672,base_link,-0.318062419922,0.0479704569796,0.176035540593,-0.930347580606,1.0,0.0,0.0,0.0,1.0,0.0,0.0,0.0,1.0,-0.109508126974,-0.238248303533,-0.283056199551,1.21846967915e-07,0.0,0.0,0.0,1.21846967915e-07,0.0,0.0,0.0,1.21846967915e-07,0.2353596,0.7060788,12.64077185,9e-08,0.0,0.0,0.0,9e-08,0.0,0.0,0.0,9e-08
1538765364298750824,2906,1538765364298463272,base_link,-0.317876736979,0.073656114057,0.231500534363,-0.916480583285,1.0,0.0,0.0,0.0,1.0,0.0,0.0,0.0,1.0,0.0306083690375,-0.267858028412,-0.244448587298,1.21846967915e-07,0.0,0.0,0.0,1.21846967915e-07,0.0,0.0,0.0,1.21846967915e-07,0.2353596,0.9022118,12.5721253,9e-08,0.0,0.0,0.0,9e-08,0.0,0.0,0.0,9e-08
1538765364657912648,2907,1538765364657609384,base_link,-0.308809734871,0.0980826209493,0.290676932153,-0.900290657638,1.0,0.0,0.0,0.0,1.0,0.0,0.0,0.0,1.0,-0.100349441171,-0.227800935507,-0.294781088829,1.21846967915e-07,0.0,0.0,0.0,1.21846967915e-07,0.0,0.0,0.0,1.21846967915e-07,0.26477955,0.8041453,12.62115855,9e-08,0.0,0.0,0.0,9e-08,0.0,0.0,0.0,9e-08
1538765365182892552,2908,1538765365182413544,base_link,-0.310052394139,0.133194283901,0.382615192831,-0.86007697902,1.0,0.0,0.0,0.0,1.0,0.0,0.0,0.0,1.0,-0.00573847256601,-0.246839389205,-0.313290655613,1.21846967915e-07,0.0,0.0,0.0,1.21846967915e-07,0.0,0.0,0.0,1.21846967915e-07,0.63743225,0.9022118,13.97447625,9e-08,0.0,0.0,0.0,9e-08,0.0,0.0,0.0,9e-08
1538765365575092200,2909,1538765365574477608,base_link,-0.296838037957,0.150662453999,0.445460678852,-0.831115387761,1.0,0.0,0.0,0.0,1.0,0.0,0.0,0.0,1.0,-0.0171871241182,-0.230055585504,-0.315088957548,1.21846967915e-07,0.0,0.0,0.0,1.21846967915e-07,0.0,0.0,0.0,1.21846967915e-07,0.4511059,0.77472535,12.2779258,9e-08,0.0,0.0,0.0,9e-08,0.0,0.0,0.0,9e-08
1538765365891224008,2910,1538765365890503400,base_link,-0.269214881722,0.153292783815,0.501714808117,-0.807655199454,1.0,0.0,0.0,0.0,1.0,0.0,0.0,0.0,1.0,-0.122416473925,-0.20549634099,-0.330768078566,1.21846967915e-07,0.0,0.0,0.0,1.21846967915e-07,0.0,0.0,0.0,1.21846967915e-07,0.3530394,0.91201845,11.48358715,9e-08,0.0,0.0,0.0,9e-08,0.0,0.0,0.0,9e-08
1538765366218965736,2911,1538765366218486312,base_link,-0.246168520684,0.159232876025,0.55181996172,-0.780730863015,1.0,0.0,0.0,0.0,1.0,0.0,0.0,0.0,1.0,-0.141855433583,-0.207041710615,-0.283916205168,1.21846967915e-07,0.0,0.0,0.0,1.21846967915e-07,0.0,0.0,0.0,1.21846967915e-07,0.5687857,0.8237586,11.81701325,9e-08,0.0,0.0,0.0,9e-08,0.0,0.0,0.0,9e-08
1538765366659032008,2912,1538765366658481992,base_link,-0.223738739899,0.165376156901,0.617972395055,-0.735324297129,1.0,0.0,0.0,0.0,1.0,0.0,0.0,0.0,1.0,-0.0549502298236,-0.209733605385,-0.376842439175,1.21846967915e-07,0.0,0.0,0.0,1.21846967915e-07,0.0,0.0,0.0,1.21846967915e-07,0.46091255,1.04931155,12.83690485,9e-08,0.0,0.0,0.0,9e-08,0.0,0.0,0.0,9e-08
1538765367081122792,2913,1538765367080660200,base_link,-0.191000086349,0.179800268126,0.675393479613,-0.689227450333,1.0,0.0,0.0,0.0,1.0,0.0,0.0,0.0,1.0,-0.164127677679,-0.259271532297,-0.19222651422,1.21846967915e-07,0.0,0.0,0.0,1.21846967915e-07,0.0,0.0,0.0,1.21846967915e-07,0.3334261,0.63743225,14.15099595,9e-08,0.0,0.0,0.0,9e-08,0.0,0.0,0.0,9e-08
1538765367537381512,2914,1538765367537111368,base_link,0.132205218592,-0.180606429196,-0.709615166436,0.668093865766,1.0,0.0,0.0,0.0,1.0,0.0,0.0,0.0,1.0,-0.223847806454,-0.118349514902,-0.165207102895,1.21846967915e-07,0.0,0.0,0.0,1.21846967915e-07,0.0,0.0,0.0,1.21846967915e-07,0.0196133,1.0787315,11.76798,9e-08,0.0,0.0,0.0,9e-08,0.0,0.0,0.0,9e-08
1538765367833528680,2915,1538765367833030280,base_link,0.126993779104,-0.175371081122,-0.73596227165,0.641464807049,1.0,0.0,0.0,0.0,1.0,0.0,0.0,0.0,1.0,-0.0860931277275,-0.0168897788972,-0.3532576859,1.21846967915e-07,0.0,0.0,0.0,1.21846967915e-07,0.0,0.0,0.0,1.21846967915e-07,-0.0196133,0.5491724,9.71839015,9e-08,0.0,0.0,0.0,9e-08,0.0,0.0,0.0,9e-08
1538765368264169512,2916,1538765368263539336,base_link,0.128163246698,-0.176549433849,-0.765785595446,0.604960247794,1.0,0.0,0.0,0.0,1.0,0.0,0.0,0.0,1.0,-0.0234514176846,-0.0830381959677,-0.0573439262807,1.21846967915e-07,0.0,0.0,0.0,1.21846967915e-07,0.0,0.0,0.0,1.21846967915e-07,-0.1765197,0.06864655,11.46397385,9e-08,0.0,0.0,0.0,9e-08,0.0,0.0,0.0,9e-08
1538765368581548488,2917,1538765368581154056,base_link,0.11589823894,-0.17647091264,-0.770296295392,0.601721889669,1.0,0.0,0.0,0.0,1.0,0.0,0.0,0.0,1.0,-0.154036790133,-0.0312575660646,-0.0641320794821,1.21846967915e-07,0.0,0.0,0.0,1.21846967915e-07,0.0,0.0,0.0,1.21846967915e-07,-0.196133,0.7256921,10.2185293,9e-08,0.0,0.0,0.0,9e-08,0.0,0.0,0.0,9e-08
1538765368945886056,2918,1538765368945349192,base_link,0.109917855624,-0.160739460772,-0.788394663831,0.583536412582,1.0,0.0,0.0,0.0,1.0,0.0,0.0,0.0,1.0,-0.0639134868979,0.0209346227348,-0.173934265971,1.21846967915e-07,0.0,0.0,0.0,1.21846967915e-07,0.0,0.0,0.0,1.21846967915e-07,-0.2353596,0.65704555,9.7085835,9e-08,0.0,0.0,0.0,9e-08,0.0,0.0,0.0,9e-08
1538765369285107528,2919,1538765369284765160,base_link,0.106680877704,-0.13671163269,-0.805954029528,0.566009913435,1.0,0.0,0.0,0.0,1.0,0.0,0.0,0.0,1.0,-0.081473454833,0.0555049590766,-0.160720482469,1.21846967915e-07,0.0,0.0,0.0,1.21846967915e-07,0.0,0.0,0.0,1.21846967915e-07,-0.38245935,0.50013915,8.20816605,9e-08,0.0,0.0,0.0,9e-08,0.0,0.0,0.0,9e-08
1538765369742374184,2920,1538765369741970696,base_link,0.128872199812,-0.146736101911,-0.819945238029,0.538098763375,1.0,0.0,0.0,0.0,1.0,0.0,0.0,0.0,1.0,-0.204066514969,0.00653933174908,-0.0875927954912,1.21846967915e-07,0.0,0.0,0.0,1.21846967915e-07,0.0,0.0,0.0,1.21846967915e-07,-0.392266,0.73549875,10.30678915,9e-08,0.0,0.0,0.0,9e-08,0.0,0.0,0.0,9e-08
1538765370139997544,2921,1538765370139560520,base_link,0.140831509899,-0.119621947134,-0.844518720271,0.502638246351,1.0,0.0,0.0,0.0,1.0,0.0,0.0,0.0,1.0,-0.0311370510608,0.0460737943649,-0.371534436941,1.21846967915e-07,0.0,0.0,0.0,1.21846967915e-07,0.0,0.0,0.0,1.21846967915e-07,-0.4903325,0.73549875,8.4925589,9e-08,0.0,0.0,0.0,9e-08,0.0,0.0,0.0,9e-08
1538765370573192584,2922,1538765370572776200,base_link,0.170737958486,-0.161288391867,-0.869153962742,0.435207988473,1.0,0.0,0.0,0.0,1.0,0.0,0.0,0.0,1.0,0.438645362854,-0.0898588076234,-0.197234913707,1.21846967915e-07,0.0,0.0,0.0,1.21846967915e-07,0.0,0.0,0.0,1.21846967915e-07,-0.59820565,0.1176798,9.3359308,9e-08,0.0,0.0,0.0,9e-08,0.0,0.0,0.0,9e-08
1538765370969516936,2923,1538765370969143656,base_link,0.181155714329,-0.231729010804,-0.872179129208,0.390880850505,1.0,0.0,0.0,0.0,1.0,0.0,0.0,0.0,1.0,0.249984428287,-0.186278983951,-0.132138624787,1.21846967915e-07,0.0,0.0,0.0,1.21846967915e-07,0.0,0.0,0.0,1.21846967915e-07,-0.1372931,0.6668522,11.9837263,9e-08,0.0,0.0,0.0,9e-08,0.0,0.0,0.0,9e-08
1538765371314323528,2924,1538765371311636520,base_link,0.165935382343,-0.254950104407,-0.883004207143,0.357448546391,1.0,0.0,0.0,0.0,1.0,0.0,0.0,0.0,1.0,-0.0595549121499,-0.150325015187,-0.209264010191,1.21846967915e-07,0.0,0.0,0.0,1.21846967915e-07,0.0,0.0,0.0,1.21846967915e-07,-0.2353596,1.2356379,9.9243298,9e-08,0.0,0.0,0.0,9e-08,0.0,0.0,0.0,9e-08
1538765371845859016,2925,1538765371845348744,base_link,0.137913735293,-0.254153699225,-0.917781278781,0.272145591746,1.0,0.0,0.0,0.0,1.0,0.0,0.0,0.0,1.0,-0.0789846479893,-0.163348168135,-0.303337275982,1.21846967915e-07,0.0,0.0,0.0,1.21846967915e-07,0.0,0.0,0.0,1.21846967915e-07,-0.1569064,0.7453054,11.8268199,9e-08,0.0,0.0,0.0,9e-08,0.0,0.0,0.0,9e-08
1538765372228681064,2926,1538765372228423240,base_link,0.125732521882,-0.278779477674,-0.931553220067,0.196677232924,1.0,0.0,0.0,0.0,1.0,0.0,0.0,0.0,1.0,0.113773487508,-0.224951058626,-0.285445511341,1.21846967915e-07,0.0,0.0,0.0,1.21846967915e-07,0.0,0.0,0.0,1.21846967915e-07,-0.28439285,0.6276256,11.4345539,9e-08,0.0,0.0,0.0,9e-08,0.0,0.0,0.0,9e-08
1538765372577467784,2927,1538765372576925736,base_link,0.098599189853,-0.314063984547,-0.93306744536,0.145007433535,1.0,0.0,0.0,0.0,1.0,0.0,0.0,0.0,1.0,0.0912188738585,-0.280775725842,-0.184530779719,1.21846967915e-07,0.0,0.0,0.0,1.21846967915e-07,0.0,0.0,0.0,1.21846967915e-07,-0.12748645,0.7256921,13.1997509,9e-08,0.0,0.0,0.0,9e-08,0.0,0.0,0.0,9e-08
1538765373027388616,2928,1538765373027095368,base_link,0.0639608155207,-0.331103314525,-0.939169975787,0.0651104121384,1.0,0.0,0.0,0.0,1.0,0.0,0.0,0.0,1.0,-0.0274697784334,-0.242239877582,-0.330464959145,1.21846967915e-07,0.0,0.0,0.0,1.21846967915e-07,0.0,0.0,0.0,1.21846967915e-07,-0.0392266,1.0983448,13.83718315,9e-08,0.0,0.0,0.0,9e-08,0.0,0.0,0.0,9e-08
1538765373359378248,2929,1538765373359070696,base_link,0.0405441253197,-0.336009755996,-0.940979639487,-0.0033069394623,1.0,0.0,0.0,0.0,1.0,0.0,0.0,0.0,1.0,0.047454431653,-0.297090232372,-0.319191515446,1.21846967915e-07,0.0,0.0,0.0,1.21846967915e-07,0.0,0.0,0.0,1.21846967915e-07,-0.18632635,0.75511205,13.03303785,9e-08,0.0,0.0,0.0,9e-08,0.0,0.0,0.0,9e-08
1538765373744976520,2930,1538765373744674696,base_link,0.00372568894938,-0.358084507649,-0.930513671291,-0.0768499327511,1.0,0.0,0.0,0.0,1.0,0.0,0.0,0.0,1.0,0.135229125619,-0.259054422379,-0.269463032484,1.21846967915e-07,0.0,0.0,0.0,1.21846967915e-07,0.0,0.0,0.0,1.21846967915e-07,-0.0588399,0.6864655,12.99381125,9e-08,0.0,0.0,0.0,9e-08,0.0,0.0,0.0,9e-08
1538765374108725608,2931,1538765374102767560,base_link,-0.0240484549129,-0.326675316748,-0.933298371278,-0.147170171615,1.0,0.0,0.0,0.0,1.0,0.0,0.0,0.0,1.0,-0.197263434529,-0.243605598807,-0.296118497849,1.21846967915e-07,0.0,0.0,0.0,1.21846967915e-07,0.0,0.0,0.0,1.21846967915e-07,0.38245935,0.79433865,16.2201991,9e-08,0.0,0.0,0.0,9e-08,0.0,0.0,0.0,9e-08
1538765374544649416,2932,1538765374543831368,base_link,-0.0548057255005,-0.31826212774,-0.915334185619,-0.240559512669,1.0,0.0,0.0,0.0,1.0,0.0,0.0,0.0,1.0,0.0801362022758,-0.236975312233,-0.34249484539,1.21846967915e-07,0.0,0.0,0.0,1.21846967915e-07,0.0,0.0,0.0,1.21846967915e-07,0.12748645,0.97085835,15.2787607,9e-08,0.0,0.0,0.0,9e-08,0.0,0.0,0.0,9e-08
1538765374919817000,2933,1538765374918873608,base_link,-0.0766379883306,-0.319100731395,-0.889333425684,-0.318413881495,1.0,0.0,0.0,0.0,1.0,0.0,0.0,0.0,1.0,0.0156355779618,-0.274833977222,-0.318955183029,1.21846967915e-07,0.0,0.0,0.0,1.21846967915e-07,0.0,0.0,0.0,1.21846967915e-07,-0.26477955,0.4314926,11.0619012,9e-08,0.0,0.0,0.0,9e-08,0.0,0.0,0.0,9e-08
1538765375323798568,2934,1538765375317811048,base_link,-0.124573049716,-0.327876274274,-0.860995736097,-0.368327363192,1.0,0.0,0.0,0.0,1.0,0.0,0.0,0.0,1.0,0.0751361474395,-0.293547481298,-0.10529410094,1.21846967915e-07,0.0,0.0,0.0,1.21846967915e-07,0.0,0.0,0.0,1.21846967915e-07,-0.08825985,0.6864655,13.91563635,9e-08,0.0,0.0,0.0,9e-08,0.0,0.0,0.0,9e-08
1538765375834736264,2935,1538765375825554984,base_link,-0.158983748961,-0.332995632888,-0.813514037819,-0.449480796381,1.0,0.0,0.0,0.0,1.0,0.0,0.0,0.0,1.0,-0.040180310607,-0.218961715698,-0.478339284658,1.21846967915e-07,0.0,0.0,0.0,1.21846967915e-07,0.0,0.0,0.0,1.21846967915e-07,-0.04903325,0.89240515,10.93441475,9e-08,0.0,0.0,0.0,9e-08,0.0,0.0,0.0,9e-08
1538765376185269736,2936,1538765376184776584,base_link,-0.191483451123,-0.347392749122,-0.756135009379,-0.520492279861,1.0,0.0,0.0,0.0,1.0,0.0,0.0,0.0,1.0,0.17295755446,-0.337931185961,-0.260449081659,1.21846967915e-07,0.0,0.0,0.0,1.21846967915e-07,0.0,0.0,0.0,1.21846967915e-07,0.2157463,0.6080123,13.58221025,9e-08,0.0,0.0,0.0,9e-08,0.0,0.0,0.0,9e-08
1538765376556614440,2937,1538765376555991496,base_link,-0.198930994699,-0.294996643136,-0.732976398459,-0.579783614108,1.0,0.0,0.0,0.0,1.0,0.0,0.0,0.0,1.0,-0.411491006613,-0.272977828979,-0.267537087202,1.21846967915e-07,0.0,0.0,0.0,1.21846967915e-07,0.0,0.0,0.0,1.21846967915e-07,0.40207265,1.14737805,13.58221025,9e-08,0.0,0.0,0.0,9e-08,0.0,0.0,0.0,9e-08
1538765376925376840,2938,1538765376924419496,base_link,-0.210238774284,-0.293006996579,-0.677056483902,-0.641514672747,1.0,0.0,0.0,0.0,1.0,0.0,0.0,0.0,1.0,0.0641068592668,-0.20579098165,-0.485183089972,1.21846967915e-07,0.0,0.0,0.0,1.21846967915e-07,0.0,0.0,0.0,1.21846967915e-07,-0.2549729,1.1964113,8.48275225,9e-08,0.0,0.0,0.0,9e-08,0.0,0.0,0.0,9e-08
1538765377354969352,2939,1538765377354624584,base_link,-0.241785497713,-0.290857460687,-0.595465683195,-0.708775232917,1.0,0.0,0.0,0.0,1.0,0.0,0.0,0.0,1.0,-0.00208858959377,-0.387333512306,-0.31755360961,1.21846967915e-07,0.0,0.0,0.0,1.21846967915e-07,0.0,0.0,0.0,1.21846967915e-07,-0.20593965,0.71588545,11.9248864,9e-08,0.0,0.0,0.0,9e-08,0.0,0.0,0.0,9e-08
1538765377822222408,2940,1538765377821893256,base_link,-0.283430410266,-0.239447762785,-0.510336334832,-0.775814924311,1.0,0.0,0.0,0.0,1.0,0.0,0.0,0.0,1.0,0.451944828033,-0.460704654455,-0.402045071125,1.21846967915e-07,0.0,0.0,0.0,1.21846967915e-07,0.0,0.0,0.0,1.21846967915e-07,0.16671305,0.77472535,18.13249585,9e-08,0.0,0.0,0.0,9e-08,0.0,0.0,0.0,9e-08
1538765378153128040,2941,1538765378149742856,base_link,-0.351181991771,-0.213436482443,-0.441840282942,-0.797429144807,1.0,0.0,0.0,0.0,1.0,0.0,0.0,0.0,1.0,0.138727352023,-0.469715803862,-0.121529839933,1.21846967915e-07,0.0,0.0,0.0,1.21846967915e-07,0.0,0.0,0.0,1.21846967915e-07,0.42168595,0.3726527,16.60265845,9e-08,0.0,0.0,0.0,9e-08,0.0,0.0,0.0,9e-08
1538765378525317896,2942,1538765378524841576,base_link,-0.343507177965,-0.151475673809,-0.390322870771,-0.840658072871,1.0,0.0,0.0,0.0,1.0,0.0,0.0,0.0,1.0,-0.386860191822,-0.284492701292,-0.302730977535,1.21846967915e-07,0.0,0.0,0.0,1.21846967915e-07,0.0,0.0,0.0,1.21846967915e-07,0.53936575,1.569064,13.66066345,9e-08,0.0,0.0,0.0,9e-08,0.0,0.0,0.0,9e-08
1538765378915529192,2943,1538765378915116456,base_link,-0.299181131295,-0.123994398271,-0.316320117188,-0.891660037984,1.0,0.0,0.0,0.0,1.0,0.0,0.0,0.0,1.0,-0.117393031716,-0.206852778792,-0.365036636591,1.21846967915e-07,0.0,0.0,0.0,1.21846967915e-07,0.0,0.0,0.0,1.21846967915e-07,0.2353596,0.9218251,14.0431228,9e-08,0.0,0.0,0.0,9e-08,0.0,0.0,0.0,9e-08
1538765379242536264,2944,1538765379242212360,base_link,-0.303111970505,-0.117984732066,-0.25592954506,-0.910331150901,1.0,0.0,0.0,0.0,1.0,0.0,0.0,0.0,1.0,0.0741332992911,-0.162623554468,-0.327809423208,1.21846967915e-07,0.0,0.0,0.0,1.21846967915e-07,0.0,0.0,0.0,1.21846967915e-07,-0.1569064,0.4118793,8.7475318,9e-08,0.0,0.0,0.0,9e-08,0.0,0.0,0.0,9e-08
1538765379618041768,2945,1538765379617219720,base_link,-0.328766643115,-0.105457334211,-0.191352807775,-0.918790154493,1.0,0.0,0.0,0.0,1.0,0.0,0.0,0.0,1.0,0.0627112314105,-0.206444755197,-0.270483732224,1.21846967915e-07,0.0,0.0,0.0,1.21846967915e-07,0.0,0.0,0.0,1.21846967915e-07,-0.1765197,0.83356525,11.2188076,9e-08,0.0,0.0,0.0,9e-08,0.0,0.0,0.0,9e-08
1538765380119077896,2946,1538765380118669704,base_link,-0.339045907073,-0.0724431150719,-0.10560607776,-0.932012459314,1.0,0.0,0.0,0.0,1.0,0.0,0.0,0.0,1.0,-0.0738669857383,-0.271242916584,-0.250315129757,1.21846967915e-07,0.0,0.0,0.0,1.21846967915e-07,0.0,0.0,0.0,1.21846967915e-07,0.08825985,0.9218251,13.26839745,9e-08,0.0,0.0,0.0,9e-08,0.0,0.0,0.0,9e-08
1538765380511459208,2947,1538765380510873608,base_link,-0.32479998981,-0.041345358037,-0.0356858208541,-0.944204453589,1.0,0.0,0.0,0.0,1.0,0.0,0.0,0.0,1.0,0.0144406110048,-0.248784661293,-0.32068747282,1.21846967915e-07,0.0,0.0,0.0,1.21846967915e-07,0.0,0.0,0.0,1.21846967915e-07,0.1176798,0.89240515,15.7298666,9e-08,0.0,0.0,0.0,9e-08,0.0,0.0,0.0,9e-08
1538765381006057064,2948,1538765381005820328,base_link,-0.332052793515,-0.0113905438147,0.0542813320283,-0.94162876699,1.0,0.0,0.0,0.0,1.0,0.0,0.0,0.0,1.0,-0.052992772311,-0.209164038301,-0.321610689163,1.21846967915e-07,0.0,0.0,0.0,1.21846967915e-07,0.0,0.0,0.0,1.21846967915e-07,-0.196133,1.06892485,13.0036179,9e-08,0.0,0.0,0.0,9e-08,0.0,0.0,0.0,9e-08
1538765381414027144,2949,1538765381412877192,base_link,-0.33612966145,0.00389931881485,0.137022659271,-0.931786690639,1.0,0.0,0.0,0.0,1.0,0.0,0.0,0.0,1.0,0.171401441097,-0.172211527824,-0.316055089235,1.21846967915e-07,0.0,0.0,0.0,1.21846967915e-07,0.0,0.0,0.0,1.21846967915e-07,-0.42168595,0.6668522,11.69933345,9e-08,0.0,0.0,0.0,9e-08,0.0,0.0,0.0,9e-08
1538765381868006600,2950,1538765381867183080,base_link,-0.340802129536,0.0277664716223,0.208798014922,-0.916234861006,1.0,0.0,0.0,0.0,1.0,0.0,0.0,0.0,1.0,0.0688332021236,-0.211318001151,-0.257399260998,1.21846967915e-07,0.0,0.0,0.0,1.21846967915e-07,0.0,0.0,0.0,1.21846967915e-07,-0.5099458,0.65704555,11.2384209,9e-08,0.0,0.0,0.0,9e-08,0.0,0.0,0.0,9e-08
1538765382239956744,2951,1538765382239451368,base_link,-0.35188058869,0.0431817923292,0.276574523772,-0.893208775659,1.0,0.0,0.0,0.0,1.0,0.0,0.0,0.0,1.0,0.112403094769,-0.225549444556,-0.375641912222,1.21846967915e-07,0.0,0.0,0.0,1.21846967915e-07,0.0,0.0,0.0,1.21846967915e-07,-0.7453054,0.79433865,10.50292215,9e-08,0.0,0.0,0.0,9e-08,0.0,0.0,0.0,9e-08
1538765382845714632,2952,1538765382845364968,base_link,-0.364045745055,0.0915713919202,0.387089693417,-0.8421680028,1.0,0.0,0.0,0.0,1.0,0.0,0.0,0.0,1.0,-0.0231078956276,-0.327988624573,-0.268190026283,1.21846967915e-07,0.0,0.0,0.0,1.21846967915e-07,0.0,0.0,0.0,1.21846967915e-07,-0.6668522,0.55897905,11.66010685,9e-08,0.0,0.0,0.0,9e-08,0.0,0.0,0.0,9e-08
1538765383176867528,2953,1538765383163549160,base_link,-0.348633237618,0.116244089983,0.434710739954,-0.822173187194,1.0,0.0,0.0,0.0,1.0,0.0,0.0,0.0,1.0,-0.00391239160672,-0.313067466021,-0.280391991138,1.21846967915e-07,0.0,0.0,0.0,1.21846967915e-07,0.0,0.0,0.0,1.21846967915e-07,-0.5491724,0.7453054,12.748645,9e-08,0.0,0.0,0.0,9e-08,0.0,0.0,0.0,9e-08
1538765383460087688,2954,1538765383458912584,base_link,-0.32950727429,0.141970234122,0.484943145675,-0.797558495834,1.0,0.0,0.0,0.0,1.0,0.0,0.0,0.0,1.0,-0.14747492969,-0.306057006121,-0.25504809618,1.21846967915e-07,0.0,0.0,0.0,1.21846967915e-07,0.0,0.0,0.0,1.21846967915e-07,-0.3530394,1.08853815,13.1212977,9e-08,0.0,0.0,0.0,9e-08,0.0,0.0,0.0,9e-08
1538765383847769288,2955,1538765383847286472,base_link,-0.304482838137,0.165578782028,0.548991214052,-0.760580380444,1.0,0.0,0.0,0.0,1.0,0.0,0.0,0.0,1.0,-0.0266702733934,-0.305805772543,-0.263377666473,1.21846967915e-07,0.0,0.0,0.0,1.21846967915e-07,0.0,0.0,0.0,1.21846967915e-07,-0.20593965,0.3726527,14.22944915,9e-08,0.0,0.0,0.0,9e-08,0.0,0.0,0.0,9e-08
1538765384192170920,2956,1538765384191769320,base_link,-0.270699365809,0.189549340004,0.589079200141,-0.737413450525,1.0,0.0,0.0,0.0,1.0,0.0,0.0,0.0,1.0,-0.129463270307,-0.279047369957,-0.197743147612,1.21846967915e-07,0.0,0.0,0.0,1.21846967915e-07,0.0,0.0,0.0,1.21846967915e-07,-0.1765197,0.9610517,14.2784824,9e-08,0.0,0.0,0.0,9e-08,0.0,0.0,0.0,9e-08
1538765384642435880,2957,1538765384642036040,base_link,-0.186068547656,0.144938544121,0.666727824278,-0.706997399101,1.0,0.0,0.0,0.0,1.0,0.0,0.0,0.0,1.0,-0.0605669915676,-0.154624953866,-0.375058859587,1.21846967915e-07,0.0,0.0,0.0,1.21846967915e-07,0.0,0.0,0.0,1.21846967915e-07,-0.2157463,0.4903325,14.2588691,9e-08,0.0,0.0,0.0,9e-08,0.0,0.0,0.0,9e-08
1538765384919297640,2958,1538765384918886088,base_link,0.19176577011,-0.177412047615,-0.688174886781,0.676879738195,1.0,0.0,0.0,0.0,1.0,0.0,0.0,0.0,1.0,0.266009837389,-0.229558795691,-0.103347755969,1.21846967915e-07,0.0,0.0,0.0,1.21846967915e-07,0.0,0.0,0.0,1.21846967915e-07,-0.38245935,0.2549729,12.38579895,9e-08,0.0,0.0,0.0,9e-08,0.0,0.0,0.0,9e-08
1538765385291308968,2959,1538765385290815144,base_link,0.162903456364,-0.171187207806,-0.711247318617,0.662030705895,1.0,0.0,0.0,0.0,1.0,0.0,0.0,0.0,1.0,-0.103570565581,-0.03958003968,-0.237706020474,1.21846967915e-07,0.0,0.0,0.0,1.21846967915e-07,0.0,0.0,0.0,1.21846967915e-07,-0.196133,1.2552512,12.32695905,9e-08,0.0,0.0,0.0,9e-08,0.0,0.0,0.0,9e-08
1538765385711179592,2960,1538765385710669384,base_link,0.160328801612,-0.156488870598,-0.755247687568,0.615960095441,1.0,0.0,0.0,0.0,1.0,0.0,0.0,0.0,1.0,-0.047769125551,-0.0412987545133,-0.260316133499,1.21846967915e-07,0.0,0.0,0.0,1.21846967915e-07,0.0,0.0,0.0,1.21846967915e-07,-0.2745862,0.38245935,10.5715687,9e-08,0.0,0.0,0.0,9e-08,0.0,0.0,0.0,9e-08
1538765386043306664,2961,1538765386042966920,base_link,0.164793201942,-0.156916654868,-0.777078097309,0.586830465042,1.0,0.0,0.0,0.0,1.0,0.0,0.0,0.0,1.0,0.166134357452,-0.0460543073714,-0.188804030418,1.21846967915e-07,0.0,0.0,0.0,1.21846967915e-07,0.0,0.0,0.0,1.21846967915e-07,-0.55897905,-0.0980665,9.6497436,9e-08,0.0,0.0,0.0,9e-08,0.0,0.0,0.0,9e-08
1538765386369280968,2962,1538765386368574824,base_link,0.177246955373,-0.186714274271,-0.780371947193,0.569860439606,1.0,0.0,0.0,0.0,1.0,0.0,0.0,0.0,1.0,0.381355673075,-0.105522200465,-0.102931343019,1.21846967915e-07,0.0,0.0,0.0,1.21846967915e-07,0.0,0.0,0.0,1.21846967915e-07,-0.2353596,0.6472389,13.6704701,9e-08,0.0,0.0,0.0,9e-08,0.0,0.0,0.0,9e-08
1538765386664071336,2963,1538765386663676616,base_link,0.179155480956,-0.199266051188,-0.788590882642,0.553462531977,1.0,0.0,0.0,0.0,1.0,0.0,0.0,0.0,1.0,0.0415028594434,-0.0585311539471,-0.158053457737,1.21846967915e-07,0.0,0.0,0.0,1.21846967915e-07,0.0,0.0,0.0,1.21846967915e-07,-0.6472389,0.6472389,8.32584585,9e-08,0.0,0.0,0.0,9e-08,0.0,0.0,0.0,9e-08
1538765387025251176,2964,1538765387024964616,base_link,0.191959633035,-0.21968889975,-0.805336851833,0.516062827272,1.0,0.0,0.0,0.0,1.0,0.0,0.0,0.0,1.0,0.10251583904,-0.0925250649452,-0.254824578762,1.21846967915e-07,0.0,0.0,0.0,1.21846967915e-07,0.0,0.0,0.0,1.21846967915e-07,-0.5491724,0.8433719,10.30678915,9e-08,0.0,0.0,0.0,9e-08,0.0,0.0,0.0,9e-08
1538765387375508072,2965,1538765387375143720,base_link,0.183810444107,-0.209848567783,-0.836704687077,0.471277588964,1.0,0.0,0.0,0.0,1.0,0.0,0.0,0.0,1.0,-0.00558662554249,-0.0908906310797,-0.297761499882,1.21846967915e-07,0.0,0.0,0.0,1.21846967915e-07,0.0,0.0,0.0,1.21846967915e-07,-0.46091255,0.784532,10.5323421,9e-08,0.0,0.0,0.0,9e-08,0.0,0.0,0.0,9e-08
1538765387816125512,2966,1538765387815559272,base_link,0.19152392748,-0.218598557793,-0.869780845135,0.398766268845,1.0,0.0,0.0,0.0,1.0,0.0,0.0,0.0,1.0,0.110869303346,-0.129562079906,-0.37185934186,1.21846967915e-07,0.0,0.0,0.0,1.21846967915e-07,0.0,0.0,0.0,1.21846967915e-07,-0.588399,1.0395049,9.63993695,9e-08,0.0,0.0,0.0,9e-08,0.0,0.0,0.0,9e-08
1538765388115632168,2967,1538765388115227272,base_link,0.183156801084,-0.229277433652,-0.893586562428,0.339688828316,1.0,0.0,0.0,0.0,1.0,0.0,0.0,0.0,1.0,0.227031975985,-0.222157672048,-0.310270518064,1.21846967915e-07,0.0,0.0,0.0,1.21846967915e-07,0.0,0.0,0.0,1.21846967915e-07,-0.6668522,0.2549729,7.77667345,9e-08,0.0,0.0,0.0,9e-08,0.0,0.0,0.0,9e-08
1538765388551154248,2968,1538765388550720424,base_link,0.153217049508,-0.296644290553,-0.900377750203,0.279010049214,1.0,0.0,0.0,0.0,1.0,0.0,0.0,0.0,1.0,0.0891233310103,-0.303598552942,-0.130621418357,1.21846967915e-07,0.0,0.0,0.0,1.21846967915e-07,0.0,0.0,0.0,1.21846967915e-07,-0.12748645,1.04931155,15.75928655,9e-08,0.0,0.0,0.0,9e-08,0.0,0.0,0.0,9e-08
1538765388961250408,2969,1538765388960435432,base_link,0.121364841603,-0.316947906677,-0.915868613103,0.214474434861,1.0,0.0,0.0,0.0,1.0,0.0,0.0,0.0,1.0,0.0846579000354,-0.281652092934,-0.305095165968,1.21846967915e-07,0.0,0.0,0.0,1.21846967915e-07,0.0,0.0,0.0,1.21846967915e-07,-0.34323275,0.9218251,13.337044,9e-08,0.0,0.0,0.0,9e-08,0.0,0.0,0.0,9e-08
1538765389357326056,2970,1538765389356929608,base_link,0.0850985526039,-0.347968737821,-0.923458156237,0.137481007865,1.0,0.0,0.0,0.0,1.0,0.0,0.0,0.0,1.0,0.0332283005118,-0.336351543665,-0.245420485735,1.21846967915e-07,0.0,0.0,0.0,1.21846967915e-07,0.0,0.0,0.0,1.21846967915e-07,-0.20593965,0.71588545,14.60210185,9e-08,0.0,0.0,0.0,9e-08,0.0,0.0,0.0,9e-08
1538765389821082696,2971,1538765389819711368,base_link,0.0374226818362,-0.360245069931,-0.929965915319,0.0631381724397,1.0,0.0,0.0,0.0,1.0,0.0,0.0,0.0,1.0,-0.0287987682968,-0.295232534409,-0.194935247302,1.21846967915e-07,0.0,0.0,0.0,1.21846967915e-07,0.0,0.0,0.0,1.21846967915e-07,-0.2353596,0.7060788,12.3367657,9e-08,0.0,0.0,0.0,9e-08,0.0,0.0,0.0,9e-08
1538765390134767560,2972,1538765390134341768,base_link,0.00879485273791,-0.346545501371,-0.937962354016,0.00744905995326,1.0,0.0,0.0,0.0,1.0,0.0,0.0,0.0,1.0,-0.117756508291,-0.202099397779,-0.307541072369,1.21846967915e-07,0.0,0.0,0.0,1.21846967915e-07,0.0,0.0,0.0,1.21846967915e-07,-0.1176798,1.20621795,13.2585908,9e-08,0.0,0.0,0.0,9e-08,0.0,0.0,0.0,9e-08
1538765390587633384,2973,1538765390587189224,base_link,-0.00404252795945,-0.336618213652,-0.93751403583,-0.0879731142326,1.0,0.0,0.0,0.0,1.0,0.0,0.0,0.0,1.0,-0.00713216979057,-0.20530436933,-0.37061548233,1.21846967915e-07,0.0,0.0,0.0,1.21846967915e-07,0.0,0.0,0.0,1.21846967915e-07,-0.3138128,0.71588545,11.99353295,9e-08,0.0,0.0,0.0,9e-08,0.0,0.0,0.0,9e-08
1538765391001045192,2974,1538765390998680392,base_link,-0.0251242203033,-0.327478090683,-0.930393083276,-0.162774642585,1.0,0.0,0.0,0.0,1.0,0.0,0.0,0.0,1.0,0.0907182842493,-0.246268227696,-0.271290898323,1.21846967915e-07,0.0,0.0,0.0,1.21846967915e-07,0.0,0.0,0.0,1.21846967915e-07,-0.30400615,0.7256921,12.91535805,9e-08,0.0,0.0,0.0,9e-08,0.0,0.0,0.0,9e-08
1538765391391681256,2975,1538765391391245704,base_link,-0.0500737905244,-0.325155775032,-0.917993606741,-0.22148154652,1.0,0.0,0.0,0.0,1.0,0.0,0.0,0.0,1.0,-0.018033567816,-0.200641706586,-0.254971623421,1.21846967915e-07,0.0,0.0,0.0,1.21846967915e-07,0.0,0.0,0.0,1.21846967915e-07,-0.26477955,0.75511205,11.2776475,9e-08,0.0,0.0,0.0,9e-08,0.0,0.0,0.0,9e-08
1538765391732496520,2976,1538765391724693480,base_link,-0.0735378254414,-0.331769495195,-0.900267771235,-0.272101323708,1.0,0.0,0.0,0.0,1.0,0.0,0.0,0.0,1.0,0.0746842697263,-0.224115148187,-0.248551666737,1.21846967915e-07,0.0,0.0,0.0,1.21846967915e-07,0.0,0.0,0.0,1.21846967915e-07,-0.20593965,0.9414384,11.77778665,9e-08,0.0,0.0,0.0,9e-08,0.0,0.0,0.0,9e-08
