%time,field.header.seq,field.header.stamp,field.header.frame_id,field.orientation.x,field.orientation.y,field.orientation.z,field.orientation.w,field.orientation_covariance0,field.orientation_covariance1,field.orientation_covariance2,field.orientation_covariance3,field.orientation_covariance4,field.orientation_covariance5,field.orientation_covariance6,field.orientation_covariance7,field.orientation_covariance8,field.angular_velocity.x,field.angular_velocity.y,field.angular_velocity.z,field.angular_velocity_covariance0,field.angular_velocity_covariance1,field.angular_velocity_covariance2,field.angular_velocity_covariance3,field.angular_velocity_covariance4,field.angular_velocity_covariance5,field.angular_velocity_covariance6,field.angular_velocity_covariance7,field.angular_velocity_covariance8,field.linear_acceleration.x,field.linear_acceleration.y,field.linear_acceleration.z,field.linear_acceleration_covariance0,field.linear_acceleration_covariance1,field.linear_acceleration_covariance2,field.linear_acceleration_covariance3,field.linear_acceleration_covariance4,field.linear_acceleration_covariance5,field.linear_acceleration_covariance6,field.linear_acceleration_covariance7,field.linear_acceleration_covariance8
1536701838102111915,1906,1536701838101738846,base_link,0.000270598359677,-0.172428482249,-0.973313736874,-0.151422306478,1.0,0.0,0.0,0.0,1.0,0.0,0.0,0.0,1.0,0.424964785576,-0.0484355278313,-0.0601795092225,1.21846967915e-07,0.0,0.0,0.0,1.21846967915e-07,0.0,0.0,0.0,1.21846967915e-07,-0.5295591,0.48052585,9.8262633,9e-08,0.0,0.0,0.0,9e-08,0.0,0.0,0.0,9e-08
1536701838429208639,1907,1536701838428773915,base_link,-0.00985433872438,-0.227663677953,-0.958220402761,-0.17287510371,1.0,0.0,0.0,0.0,1.0,0.0,0.0,0.0,1.0,0.348769575357,-0.0733922794461,-0.175760522485,1.21846967915e-07,0.0,0.0,0.0,1.21846967915e-07,0.0,0.0,0.0,1.21846967915e-07,-0.4707192,0.71588545,9.34573745,9e-08,0.0,0.0,0.0,9e-08,0.0,0.0,0.0,9e-08
1536701838855679661,1908,1536701838855424333,base_link,0.0292589964883,0.00525917753488,-0.980246494294,-0.195532766053,1.0,0.0,0.0,0.0,1.0,0.0,0.0,0.0,1.0,-1.29913830757,0.139749094844,-0.0741983056068,1.21846967915e-07,0.0,0.0,0.0,1.21846967915e-07,0.0,0.0,0.0,1.21846967915e-07,-0.51975245,0.71588545,10.79712165,9e-08,0.0,0.0,0.0,9e-08,0.0,0.0,0.0,9e-08
1536701839201534964,1909,1536701839201142208,base_link,0.0749522083519,0.152544840749,-0.966890508715,-0.190354884837,1.0,0.0,0.0,0.0,1.0,0.0,0.0,0.0,1.0,-0.562316119671,0.0585529021919,0.07235057652,1.21846967915e-07,0.0,0.0,0.0,1.21846967915e-07,0.0,0.0,0.0,1.21846967915e-07,-0.85317855,0.02941995,9.022118,9e-08,0.0,0.0,0.0,9e-08,0.0,0.0,0.0,9e-08
1536701839545579343,1910,1536701839545066093,base_link,0.107604496673,0.222482010677,-0.956150348556,-0.157160867197,1.0,0.0,0.0,0.0,1.0,0.0,0.0,0.0,1.0,-0.309435963631,0.0210109949112,0.264506697655,1.21846967915e-07,0.0,0.0,0.0,1.21846967915e-07,0.0,0.0,0.0,1.21846967915e-07,-1.2160246,-0.0392266,7.2765343,9e-08,0.0,0.0,0.0,9e-08,0.0,0.0,0.0,9e-08
1536701839883725300,1911,1536701839883372302,base_link,0.135314927035,0.25465661085,-0.951556568878,-0.106676976414,1.0,0.0,0.0,0.0,1.0,0.0,0.0,0.0,1.0,-0.147329837084,0.169655099511,0.321910202503,1.21846967915e-07,0.0,0.0,0.0,1.21846967915e-07,0.0,0.0,0.0,1.21846967915e-07,-1.34351105,-0.10787315,7.60015375,9e-08,0.0,0.0,0.0,9e-08,0.0,0.0,0.0,9e-08
1536701840304454472,1912,1536701840304117352,base_link,0.168408660796,0.260535982447,-0.949672364574,-0.0433811570073,1.0,0.0,0.0,0.0,1.0,0.0,0.0,0.0,1.0,-0.221611171961,0.0145465638489,0.253898411989,1.21846967915e-07,0.0,0.0,0.0,1.21846967915e-07,0.0,0.0,0.0,1.21846967915e-07,-1.50041745,0.2549729,8.30623255,9e-08,0.0,0.0,0.0,9e-08,0.0,0.0,0.0,9e-08
1536701840698950592,1913,1536701840698607550,base_link,0.169592534129,0.256246257913,-0.951617132858,0.00102962324294,1.0,0.0,0.0,0.0,1.0,0.0,0.0,0.0,1.0,0.142093613744,-0.0922234654427,0.271739423275,1.21846967915e-07,0.0,0.0,0.0,1.21846967915e-07,0.0,0.0,0.0,1.21846967915e-07,-1.6082906,0.16671305,8.7475318,9e-08,0.0,0.0,0.0,9e-08,0.0,0.0,0.0,9e-08
1536701841084129270,1914,1536701841083852654,base_link,0.182448564153,0.205691959846,-0.960028482584,0.0524275854867,1.0,0.0,0.0,0.0,1.0,0.0,0.0,0.0,1.0,0.246681883931,-0.100510828197,0.391792446375,1.21846967915e-07,0.0,0.0,0.0,1.21846967915e-07,0.0,0.0,0.0,1.21846967915e-07,-1.85345685,-0.0196133,7.42363405,9e-08,0.0,0.0,0.0,9e-08,0.0,0.0,0.0,9e-08
1536701841389521311,1915,1536701841389198565,base_link,0.17876696684,0.185543197422,-0.961443787991,0.0961349883777,1.0,0.0,0.0,0.0,1.0,0.0,0.0,0.0,1.0,0.108460590243,-0.038425385952,0.151350513101,1.21846967915e-07,0.0,0.0,0.0,1.21846967915e-07,0.0,0.0,0.0,1.21846967915e-07,-2.0593965,0.5491724,9.9439431,9e-08,0.0,0.0,0.0,9e-08,0.0,0.0,0.0,9e-08
1536701841684830660,1916,1536701841684534772,base_link,0.171046446761,0.153575424066,-0.967480179028,0.105545276358,1.0,0.0,0.0,0.0,1.0,0.0,0.0,0.0,1.0,0.199242427945,-0.147981882095,0.100323051214,1.21846967915e-07,0.0,0.0,0.0,1.21846967915e-07,0.0,0.0,0.0,1.21846967915e-07,-1.8436502,0.0588399,11.22861425,9e-08,0.0,0.0,0.0,9e-08,0.0,0.0,0.0,9e-08
1536701842060182072,1917,1536701842059130923,base_link,0.122512888003,0.111519471522,-0.975225361781,0.146592951688,1.0,0.0,0.0,0.0,1.0,0.0,0.0,0.0,1.0,0.177118495107,-0.398783504963,0.281552374363,1.21846967915e-07,0.0,0.0,0.0,1.21846967915e-07,0.0,0.0,0.0,1.21846967915e-07,-1.0395049,0.24516625,17.66177665,9e-08,0.0,0.0,0.0,9e-08,0.0,0.0,0.0,9e-08
1536701842352129415,1918,1536701842351521057,base_link,0.068646426426,0.104434045106,-0.974718885723,0.185214179201,1.0,0.0,0.0,0.0,1.0,0.0,0.0,0.0,1.0,-0.10502102226,-0.337566465139,0.154709711671,1.21846967915e-07,0.0,0.0,0.0,1.21846967915e-07,0.0,0.0,0.0,1.21846967915e-07,-0.81395195,0.6472389,17.07337765,9e-08,0.0,0.0,0.0,9e-08,0.0,0.0,0.0,9e-08
1536701842663953903,1919,1536701842662235045,base_link,0.0292221366687,0.086098941033,-0.975632875404,0.199683578477,1.0,0.0,0.0,0.0,1.0,0.0,0.0,0.0,1.0,0.193872973323,-0.217810824513,0.0411600247025,1.21846967915e-07,0.0,0.0,0.0,1.21846967915e-07,0.0,0.0,0.0,1.21846967915e-07,-0.8433719,0.2157463,15.36702055,9e-08,0.0,0.0,0.0,9e-08,0.0,0.0,0.0,9e-08
1536701843051753892,1920,1536701843050761773,base_link,0.00777642275228,0.0205114438959,-0.974367905598,0.223888348197,1.0,0.0,0.0,0.0,1.0,0.0,0.0,0.0,1.0,0.341431647539,-0.167701691389,0.0977640077472,1.21846967915e-07,0.0,0.0,0.0,1.21846967915e-07,0.0,0.0,0.0,1.21846967915e-07,-0.6472389,0.3726527,14.0235095,9e-08,0.0,0.0,0.0,9e-08,0.0,0.0,0.0,9e-08
1536701843537224175,1921,1536701843536784616,base_link,-0.0205784236032,-0.0489619407261,-0.968018543724,0.24519248734,1.0,0.0,0.0,0.0,1.0,0.0,0.0,0.0,1.0,0.275497049093,-0.00307083083317,0.0931642875075,1.21846967915e-07,0.0,0.0,0.0,1.21846967915e-07,0.0,0.0,0.0,1.21846967915e-07,-0.3138128,0.5099458,14.81784815,9e-08,0.0,0.0,0.0,9e-08,0.0,0.0,0.0,9e-08
1536701843830777020,1922,1536701843830551943,base_link,-0.0185772963678,-0.0871922468419,-0.965836152703,0.243337054887,1.0,0.0,0.0,0.0,1.0,0.0,0.0,0.0,1.0,0.0342598855495,-0.0765287280083,-0.125863552094,1.21846967915e-07,0.0,0.0,0.0,1.21846967915e-07,0.0,0.0,0.0,1.21846967915e-07,-0.44129925,0.97085835,11.89546645,9e-08,0.0,0.0,0.0,9e-08,0.0,0.0,0.0,9e-08
1536701844324779040,1923,1536701844323008547,base_link,-0.0327614400508,-0.11728297082,-0.971338489109,0.204139492449,1.0,0.0,0.0,0.0,1.0,0.0,0.0,0.0,1.0,0.120714955032,-0.156041964889,-0.0471515506506,1.21846967915e-07,0.0,0.0,0.0,1.21846967915e-07,0.0,0.0,0.0,1.21846967915e-07,-0.196133,0.1372931,12.46425215,9e-08,0.0,0.0,0.0,9e-08,0.0,0.0,0.0,9e-08
1536701844846757522,1924,1536701844843129335,base_link,-0.0493206448142,-0.0972747573688,-0.972484879709,0.205859792846,1.0,0.0,0.0,0.0,1.0,0.0,0.0,0.0,1.0,-0.109048485756,0.00343846413307,0.00196545151994,1.21846967915e-07,0.0,0.0,0.0,1.21846967915e-07,0.0,0.0,0.0,1.21846967915e-07,-0.24516625,0.81395195,10.8853815,9e-08,0.0,0.0,0.0,9e-08,0.0,0.0,0.0,9e-08
1536701845278867828,1925,1536701845277712959,base_link,-0.0388562025942,-0.0903184304427,-0.977899124757,0.184515794558,1.0,0.0,0.0,0.0,1.0,0.0,0.0,0.0,1.0,-0.119910225272,0.0684717223048,-0.15015989542,1.21846967915e-07,0.0,0.0,0.0,1.21846967915e-07,0.0,0.0,0.0,1.21846967915e-07,-0.28439285,0.5491724,8.7671451,9e-08,0.0,0.0,0.0,9e-08,0.0,0.0,0.0,9e-08
1536701845585300454,1926,1536701845584937660,base_link,-0.0213887100261,-0.0947164443492,-0.981004648834,0.167932120871,1.0,0.0,0.0,0.0,1.0,0.0,0.0,0.0,1.0,0.118718162179,0.113683797419,-0.123598441482,1.21846967915e-07,0.0,0.0,0.0,1.21846967915e-07,0.0,0.0,0.0,1.21846967915e-07,-0.3138128,0.3138128,6.14876955,9e-08,0.0,0.0,0.0,9e-08,0.0,0.0,0.0,9e-08
1536701845993575638,1927,1536701845993114216,base_link,-3.98899936265e-06,-0.0696612758314,-0.986990031795,0.144906810641,1.0,0.0,0.0,0.0,1.0,0.0,0.0,0.0,1.0,-0.06575383991,0.130400165915,-0.0864789411426,1.21846967915e-07,0.0,0.0,0.0,1.21846967915e-07,0.0,0.0,0.0,1.21846967915e-07,-0.1765197,0.2549729,8.1787461,9e-08,0.0,0.0,0.0,9e-08,0.0,0.0,0.0,9e-08
1536701846264280423,1928,1536701846263880976,base_link,0.0142681311429,-0.0637086460254,-0.988295834155,0.13787303234,1.0,0.0,0.0,0.0,1.0,0.0,0.0,0.0,1.0,-0.0424729883671,0.0169665068388,-0.0366683900356,1.21846967915e-07,0.0,0.0,0.0,1.21846967915e-07,0.0,0.0,0.0,1.21846967915e-07,-0.22555295,0.2549729,7.2961476,9e-08,0.0,0.0,0.0,9e-08,0.0,0.0,0.0,9e-08
1536701846649260243,1929,1536701846648915024,base_link,0.0197183204587,-0.0481746969273,-0.98939925442,0.13557102112,1.0,0.0,0.0,0.0,1.0,0.0,0.0,0.0,1.0,-0.132131129503,0.0361343845725,-0.0191197693348,1.21846967915e-07,0.0,0.0,0.0,1.21846967915e-07,0.0,0.0,0.0,1.21846967915e-07,-0.1372931,0.46091255,8.4141057,9e-08,0.0,0.0,0.0,9e-08,0.0,0.0,0.0,9e-08
1536701847108455634,1930,1536701847108194575,base_link,0.0114490190959,-0.0251967707297,-0.990169690015,0.137105899514,1.0,0.0,0.0,0.0,1.0,0.0,0.0,0.0,1.0,-0.0920469164848,0.0164534505457,0.0907882899046,1.21846967915e-07,0.0,0.0,0.0,1.21846967915e-07,0.0,0.0,0.0,1.21846967915e-07,0.18632635,0.32361945,11.2776475,9e-08,0.0,0.0,0.0,9e-08,0.0,0.0,0.0,9e-08
1536701847389216508,1931,1536701847388995625,base_link,0.00144871051104,-0.017746393974,-0.988638009524,0.149257672708,1.0,0.0,0.0,0.0,1.0,0.0,0.0,0.0,1.0,-0.0862990021706,-0.049382481724,0.0651528984308,1.21846967915e-07,0.0,0.0,0.0,1.21846967915e-07,0.0,0.0,0.0,1.21846967915e-07,0.2157463,0.5687857,11.4737805,9e-08,0.0,0.0,0.0,9e-08,0.0,0.0,0.0,9e-08
1536701847814791128,1932,1536701847814521138,base_link,-0.00241995707424,-0.0132157393897,-0.987357886076,0.157936356942,1.0,0.0,0.0,0.0,1.0,0.0,0.0,0.0,1.0,-0.0452342405915,-0.0734969004989,0.00224489392713,1.21846967915e-07,0.0,0.0,0.0,1.21846967915e-07,0.0,0.0,0.0,1.21846967915e-07,0.12748645,0.53936575,10.24794925,9e-08,0.0,0.0,0.0,9e-08,0.0,0.0,0.0,9e-08
1536701848313250736,1933,1536701848313001426,base_link,-0.0104327423299,-0.0334856493956,-0.986450040159,0.160269109447,1.0,0.0,0.0,0.0,1.0,0.0,0.0,0.0,1.0,0.0655736401677,-0.0200833156705,0.011502917856,1.21846967915e-07,0.0,0.0,0.0,1.21846967915e-07,0.0,0.0,0.0,1.21846967915e-07,0.0980665,0.44129925,9.05153795,9e-08,0.0,0.0,0.0,9e-08,0.0,0.0,0.0,9e-08
1536701848769289382,1934,1536701848768480405,base_link,-0.00766680806364,-0.0411267489939,-0.984682110989,0.169265917627,1.0,0.0,0.0,0.0,1.0,0.0,0.0,0.0,1.0,0.0614971444011,0.0715730190277,0.0499351397157,1.21846967915e-07,0.0,0.0,0.0,1.21846967915e-07,0.0,0.0,0.0,1.21846967915e-07,0.1765197,0.4314926,8.89463155,9e-08,0.0,0.0,0.0,9e-08,0.0,0.0,0.0,9e-08
1536701849078693467,1935,1536701849077813423,base_link,0.00561490946949,-0.0518892763442,-0.983778614746,0.171626376061,1.0,0.0,0.0,0.0,1.0,0.0,0.0,0.0,1.0,0.187591210008,0.0717984363437,-0.0284839831293,1.21846967915e-07,0.0,0.0,0.0,1.21846967915e-07,0.0,0.0,0.0,1.21846967915e-07,0.24516625,0.8237586,8.77695175,9e-08,0.0,0.0,0.0,9e-08,0.0,0.0,0.0,9e-08
1536701849495900284,1936,1536701849495497027,base_link,-0.00847306094404,-0.0840905020118,-0.98247085117,0.166156616811,1.0,0.0,0.0,0.0,1.0,0.0,0.0,0.0,1.0,0.0704181566834,-0.145727261901,0.121646203101,1.21846967915e-07,0.0,0.0,0.0,1.21846967915e-07,0.0,0.0,0.0,1.21846967915e-07,0.6668522,0.2353596,14.4746154,9e-08,0.0,0.0,0.0,9e-08,0.0,0.0,0.0,9e-08
1536701849997878919,1937,1536701849997405716,base_link,-0.00396380696622,-0.0692120229571,-0.979754613274,0.187816085256,1.0,0.0,0.0,0.0,1.0,0.0,0.0,0.0,1.0,-0.141933843493,0.0305934101343,-0.0259002726525,1.21846967915e-07,0.0,0.0,0.0,1.21846967915e-07,0.0,0.0,0.0,1.21846967915e-07,0.2549729,0.8825985,9.1005712,9e-08,0.0,0.0,0.0,9e-08,0.0,0.0,0.0,9e-08
1536701850251439944,1938,1536701850250451058,base_link,0.00187957784885,-0.0608075339962,-0.982376957751,0.176732633876,1.0,0.0,0.0,0.0,1.0,0.0,0.0,0.0,1.0,0.0526452325284,0.120135724545,-0.127820625901,1.21846967915e-07,0.0,0.0,0.0,1.21846967915e-07,0.0,0.0,0.0,1.21846967915e-07,0.16671305,0.65704555,8.7671451,9e-08,0.0,0.0,0.0,9e-08,0.0,0.0,0.0,9e-08
1536701850599503217,1939,1536701850599007574,base_link,0.0271260831894,-0.086117733818,-0.983399050961,0.157398278584,1.0,0.0,0.0,0.0,1.0,0.0,0.0,0.0,1.0,0.0858538448811,0.0789521485567,-0.0898658484221,1.21846967915e-07,0.0,0.0,0.0,1.21846967915e-07,0.0,0.0,0.0,1.21846967915e-07,0.10787315,0.5099458,7.97280645,9e-08,0.0,0.0,0.0,9e-08,0.0,0.0,0.0,9e-08
1536701851037892825,1940,1536701851037621586,base_link,0.0369821977356,-0.0775349547889,-0.985911054588,0.143527141259,1.0,0.0,0.0,0.0,1.0,0.0,0.0,0.0,1.0,-0.0833561718464,0.0708318427205,-0.0510406270623,1.21846967915e-07,0.0,0.0,0.0,1.21846967915e-07,0.0,0.0,0.0,1.21846967915e-07,0.02941995,0.61781895,8.28661925,9e-08,0.0,0.0,0.0,9e-08,0.0,0.0,0.0,9e-08
1536701851430173675,1941,1536701851429925390,base_link,0.0293251699823,-0.0715085212917,-0.988474608304,0.130171097126,1.0,0.0,0.0,0.0,1.0,0.0,0.0,0.0,1.0,-0.0483905002475,-0.00666749011725,-0.0372657366097,1.21846967915e-07,0.0,0.0,0.0,1.21846967915e-07,0.0,0.0,0.0,1.21846967915e-07,0.12748645,0.63743225,10.69905515,9e-08,0.0,0.0,0.0,9e-08,0.0,0.0,0.0,9e-08
1536701851998367482,1942,1536701851987031677,base_link,0.0186971833873,-0.0676179172812,-0.990758592715,0.11608463963,1.0,0.0,0.0,0.0,1.0,0.0,0.0,0.0,1.0,-0.0420881435275,-0.0776318758726,-0.00952755846083,1.21846967915e-07,0.0,0.0,0.0,1.21846967915e-07,0.0,0.0,0.0,1.21846967915e-07,-0.0980665,0.3530394,9.9439431,9e-08,0.0,0.0,0.0,9e-08,0.0,0.0,0.0,9e-08
1536701852284952350,1943,1536701852284551206,base_link,0.00353871488627,-0.0620907730626,-0.991485807539,0.11440326414,1.0,0.0,0.0,0.0,1.0,0.0,0.0,0.0,1.0,-0.0358537323773,0.00703528802842,-0.0175635069609,1.21846967915e-07,0.0,0.0,0.0,1.21846967915e-07,0.0,0.0,0.0,1.21846967915e-07,0.16671305,0.67665885,12.11121275,9e-08,0.0,0.0,0.0,9e-08,0.0,0.0,0.0,9e-08
1536701852664193680,1944,1536701852663784053,base_link,0.015356550924,-0.0840971201194,-0.990721672581,0.10565234597,1.0,0.0,0.0,0.0,1.0,0.0,0.0,0.0,1.0,0.0896381735802,0.0537526011467,-0.032928083092,1.21846967915e-07,0.0,0.0,0.0,1.21846967915e-07,0.0,0.0,0.0,1.21846967915e-07,0.0392266,0.3138128,9.28689755,9e-08,0.0,0.0,0.0,9e-08,0.0,0.0,0.0,9e-08
1536701853043587132,1945,1536701853042935910,base_link,0.00722533549136,-0.108553467987,-0.988391556012,0.106047494643,1.0,0.0,0.0,0.0,1.0,0.0,0.0,0.0,1.0,0.220794022083,-0.031693123281,0.0233364906162,1.21846967915e-07,0.0,0.0,0.0,1.21846967915e-07,0.0,0.0,0.0,1.21846967915e-07,0.1372931,0.69627215,10.6304086,9e-08,0.0,0.0,0.0,9e-08,0.0,0.0,0.0,9e-08
1536701853343216610,1946,1536701853342656110,base_link,0.0114679672385,-0.120669541418,-0.987608922403,0.0996793052346,1.0,0.0,0.0,0.0,1.0,0.0,0.0,0.0,1.0,0.031428694725,-0.0460734516382,-0.113140486181,1.21846967915e-07,0.0,0.0,0.0,1.21846967915e-07,0.0,0.0,0.0,1.21846967915e-07,-0.0392266,0.81395195,9.3947707,9e-08,0.0,0.0,0.0,9e-08,0.0,0.0,0.0,9e-08
1536701853744399386,1947,1536701853744093286,base_link,0.0188083534286,-0.130662686983,-0.988357260519,0.0756533783244,1.0,0.0,0.0,0.0,1.0,0.0,0.0,0.0,1.0,0.0540101528168,0.114781826735,-0.133033499122,1.21846967915e-07,0.0,0.0,0.0,1.21846967915e-07,0.0,0.0,0.0,1.21846967915e-07,0.06864655,0.7256921,8.73772515,9e-08,0.0,0.0,0.0,9e-08,0.0,0.0,0.0,9e-08
1536701854111699018,1948,1536701854111264262,base_link,0.0262495112576,-0.152984571515,-0.986690607374,0.0484595641505,1.0,0.0,0.0,0.0,1.0,0.0,0.0,0.0,1.0,0.113224253058,-0.0235574096441,-0.084096185863,1.21846967915e-07,0.0,0.0,0.0,1.21846967915e-07,0.0,0.0,0.0,1.21846967915e-07,0.10787315,0.40207265,9.2574776,9e-08,0.0,0.0,0.0,9e-08,0.0,0.0,0.0,9e-08
1536701854500255550,1949,1536701854499079233,base_link,0.0192489404895,-0.16412630711,-0.98546293782,0.0394313553952,1.0,0.0,0.0,0.0,1.0,0.0,0.0,0.0,1.0,0.00216740742326,-0.0551405996084,-0.0257039889693,1.21846967915e-07,0.0,0.0,0.0,1.21846967915e-07,0.0,0.0,0.0,1.21846967915e-07,0.10787315,0.588399,10.20872265,9e-08,0.0,0.0,0.0,9e-08,0.0,0.0,0.0,9e-08
1536701854835749272,1950,1536701854835388624,base_link,0.0137736725312,-0.157436047635,-0.987112184791,0.0251736268188,1.0,0.0,0.0,0.0,1.0,0.0,0.0,0.0,1.0,0.00580608844757,0.00673068407923,-0.13476036489,1.21846967915e-07,0.0,0.0,0.0,1.21846967915e-07,0.0,0.0,0.0,1.21846967915e-07,0.18632635,1.0983448,11.2972608,9e-08,0.0,0.0,0.0,9e-08,0.0,0.0,0.0,9e-08
1536701855269083272,1951,1536701855268352084,base_link,0.0221357050928,-0.174984654426,-0.984144795541,-0.0186923161851,1.0,0.0,0.0,0.0,1.0,0.0,0.0,0.0,1.0,0.160159140825,-0.0265952572227,-0.207602158189,1.21846967915e-07,0.0,0.0,0.0,1.21846967915e-07,0.0,0.0,0.0,1.21846967915e-07,0.0980665,0.8629852,9.60071035,9e-08,0.0,0.0,0.0,9e-08,0.0,0.0,0.0,9e-08
1536701855670250746,1952,1536701855669696393,base_link,0.0206366829052,-0.194763622865,-0.978316981599,-0.0673583108658,1.0,0.0,0.0,0.0,1.0,0.0,0.0,0.0,1.0,-0.0682399496436,-0.129674136639,-0.223372668028,1.21846967915e-07,0.0,0.0,0.0,1.21846967915e-07,0.0,0.0,0.0,1.21846967915e-07,0.12748645,0.81395195,11.69933345,9e-08,0.0,0.0,0.0,9e-08,0.0,0.0,0.0,9e-08
1536701855994112392,1953,1536701855993112302,base_link,-2.7600983977e-05,-0.214029926751,-0.97059867681,-0.11013354742,1.0,0.0,0.0,0.0,1.0,0.0,0.0,0.0,1.0,0.217573776841,-0.192773759365,-0.210743069649,1.21846967915e-07,0.0,0.0,0.0,1.21846967915e-07,0.0,0.0,0.0,1.21846967915e-07,0.3334261,0.77472535,11.8072066,9e-08,0.0,0.0,0.0,9e-08,0.0,0.0,0.0,9e-08
1536701856443895874,1954,1536701856443070538,base_link,-0.0226321846828,-0.239504581284,-0.957830459379,-0.157118270253,1.0,0.0,0.0,0.0,1.0,0.0,0.0,0.0,1.0,0.147099792957,-0.104885861278,-0.198662042618,1.21846967915e-07,0.0,0.0,0.0,1.21846967915e-07,0.0,0.0,0.0,1.21846967915e-07,0.2353596,0.8041453,10.1204628,9e-08,0.0,0.0,0.0,9e-08,0.0,0.0,0.0,9e-08
1536701856790413475,1955,1536701856789906563,base_link,-0.0410626537911,-0.271415290968,-0.940256351195,-0.201409017501,1.0,0.0,0.0,0.0,1.0,0.0,0.0,0.0,1.0,0.233431637287,-0.0733581930399,-0.259091109037,1.21846967915e-07,0.0,0.0,0.0,1.21846967915e-07,0.0,0.0,0.0,1.21846967915e-07,0.4314926,0.9414384,11.375714,9e-08,0.0,0.0,0.0,9e-08,0.0,0.0,0.0,9e-08
1536701857140260174,1956,1536701857139951610,base_link,-0.0530322686778,-0.287518663155,-0.924909496851,-0.243028844896,1.0,0.0,0.0,0.0,1.0,0.0,0.0,0.0,1.0,-0.00186328217387,-0.11738743633,-0.216284483671,1.21846967915e-07,0.0,0.0,0.0,1.21846967915e-07,0.0,0.0,0.0,1.21846967915e-07,0.18632635,0.588399,10.69905515,9e-08,0.0,0.0,0.0,9e-08,0.0,0.0,0.0,9e-08
1536701857588757378,1957,1536701857588490205,base_link,-0.0827674159355,-0.264535023184,-0.911339456481,-0.30435369462,1.0,0.0,0.0,0.0,1.0,0.0,0.0,0.0,1.0,0.00452831480652,-0.27311694622,-0.256288439035,1.21846967915e-07,0.0,0.0,0.0,1.21846967915e-07,0.0,0.0,0.0,1.21846967915e-07,0.32361945,0.81395195,11.66010685,9e-08,0.0,0.0,0.0,9e-08,0.0,0.0,0.0,9e-08
1536701858048419186,1958,1536701858048078097,base_link,-0.12038536571,-0.243092524024,-0.889007878024,-0.368888033552,1.0,0.0,0.0,0.0,1.0,0.0,0.0,0.0,1.0,-0.133916705847,-0.241615593433,-0.215865060687,1.21846967915e-07,0.0,0.0,0.0,1.21846967915e-07,0.0,0.0,0.0,1.21846967915e-07,0.53936575,1.3140911,13.89602305,9e-08,0.0,0.0,0.0,9e-08,0.0,0.0,0.0,9e-08
1536701858453286842,1959,1536701858450612615,base_link,-0.129453664698,-0.224792840184,-0.860662245913,-0.43814429833,1.0,0.0,0.0,0.0,1.0,0.0,0.0,0.0,1.0,0.0320643037558,-0.0540967434645,-0.372109591961,1.21846967915e-07,0.0,0.0,0.0,1.21846967915e-07,0.0,0.0,0.0,1.21846967915e-07,0.1765197,0.67665885,9.87529655,9e-08,0.0,0.0,0.0,9e-08,0.0,0.0,0.0,9e-08
1536701858672344522,1960,1536701858671948724,base_link,-0.126166343749,-0.213826218503,-0.845282813428,-0.473135675371,1.0,0.0,0.0,0.0,1.0,0.0,0.0,0.0,1.0,-0.127158015966,-0.112590931356,-0.25570577383,1.21846967915e-07,0.0,0.0,0.0,1.21846967915e-07,0.0,0.0,0.0,1.21846967915e-07,0.26477955,0.81395195,10.89518815,9e-08,0.0,0.0,0.0,9e-08,0.0,0.0,0.0,9e-08
1536701858998515905,1961,1536701858998245050,base_link,-0.120378675433,-0.197786854195,-0.827990110031,-0.510707071127,1.0,0.0,0.0,0.0,1.0,0.0,0.0,0.0,1.0,-0.0762211084366,-0.121747642756,-0.231813922524,1.21846967915e-07,0.0,0.0,0.0,1.21846967915e-07,0.0,0.0,0.0,1.21846967915e-07,0.1176798,0.6668522,9.6497436,9e-08,0.0,0.0,0.0,9e-08,0.0,0.0,0.0,9e-08
1536701859285953959,1962,1536701859285251550,base_link,-0.13102564526,-0.189449438091,-0.807844055136,-0.542521127028,1.0,0.0,0.0,0.0,1.0,0.0,0.0,0.0,1.0,-0.0424668267369,-0.143779709935,-0.225398153067,1.21846967915e-07,0.0,0.0,0.0,1.21846967915e-07,0.0,0.0,0.0,1.21846967915e-07,0.24516625,0.7649187,10.69905515,9e-08,0.0,0.0,0.0,9e-08,0.0,0.0,0.0,9e-08
1536701859777176816,1963,1536701859776759154,base_link,-0.120784977277,-0.153474628349,-0.785323745639,-0.587471822518,1.0,0.0,0.0,0.0,1.0,0.0,0.0,0.0,1.0,-0.0692185983062,-0.0336879603565,-0.146626129746,1.21846967915e-07,0.0,0.0,0.0,1.21846967915e-07,0.0,0.0,0.0,1.21846967915e-07,0.42168595,0.6472389,11.09132115,9e-08,0.0,0.0,0.0,9e-08,0.0,0.0,0.0,9e-08
1536701860220653658,1964,1536701860220343205,base_link,-0.107339147394,-0.143674744265,-0.765374336453,-0.618092226448,1.0,0.0,0.0,0.0,1.0,0.0,0.0,0.0,1.0,-0.0948105603456,-0.033132199198,-0.170953720808,1.21846967915e-07,0.0,0.0,0.0,1.21846967915e-07,0.0,0.0,0.0,1.21846967915e-07,0.20593965,0.65704555,8.99269805,9e-08,0.0,0.0,0.0,9e-08,0.0,0.0,0.0,9e-08
1536701860665508653,1965,1536701860665064421,base_link,-0.0955023707898,-0.119138608223,-0.745802913085,-0.648431418145,1.0,0.0,0.0,0.0,1.0,0.0,0.0,0.0,1.0,-0.107690431178,0.0230216793716,-0.124069862068,1.21846967915e-07,0.0,0.0,0.0,1.21846967915e-07,0.0,0.0,0.0,1.21846967915e-07,0.2941995,0.69627215,11.3561007,9e-08,0.0,0.0,0.0,9e-08,0.0,0.0,0.0,9e-08
1536701861018196939,1966,1536701861017749890,base_link,-0.0779383600427,-0.116610913442,-0.733577826018,-0.664974495808,1.0,0.0,0.0,0.0,1.0,0.0,0.0,0.0,1.0,-0.0691094323993,0.0466582775116,-0.15820145607,1.21846967915e-07,0.0,0.0,0.0,1.21846967915e-07,0.0,0.0,0.0,1.21846967915e-07,0.2549729,0.77472535,9.3163175,9e-08,0.0,0.0,0.0,9e-08,0.0,0.0,0.0,9e-08
1536701861374938404,1967,1536701861374701579,base_link,-0.0653792884054,-0.111049353297,-0.720247036087,-0.681643452831,1.0,0.0,0.0,0.0,1.0,0.0,0.0,0.0,1.0,-0.0935296937823,0.0307311806828,-0.129193156958,1.21846967915e-07,0.0,0.0,0.0,1.21846967915e-07,0.0,0.0,0.0,1.21846967915e-07,0.10787315,0.8433719,8.01203305,9e-08,0.0,0.0,0.0,9e-08,0.0,0.0,0.0,9e-08
1536701861666790991,1968,1536701861666133175,base_link,-0.0605129160505,-0.111046427456,-0.706153852091,-0.696673248458,1.0,0.0,0.0,0.0,1.0,0.0,0.0,0.0,1.0,-0.0114382915199,0.0436613410711,-0.10396052897,1.21846967915e-07,0.0,0.0,0.0,1.21846967915e-07,0.0,0.0,0.0,1.21846967915e-07,0.0980665,0.6472389,9.32612415,9e-08,0.0,0.0,0.0,9e-08,0.0,0.0,0.0,9e-08
1536701862068402569,1969,1536701862066474288,base_link,-0.0317752642366,-0.0880041840869,-0.701216772632,-0.706781885694,1.0,0.0,0.0,0.0,1.0,0.0,0.0,0.0,1.0,-0.402944147587,-0.04925904423,-0.0373154915869,1.21846967915e-07,0.0,0.0,0.0,1.21846967915e-07,0.0,0.0,0.0,1.21846967915e-07,0.2157463,0.784532,10.1400761,9e-08,0.0,0.0,0.0,9e-08,0.0,0.0,0.0,9e-08
1536701862451892417,1970,1536701862450286882,base_link,-0.0117307381301,-0.0546685846636,-0.694535932444,-0.717282074346,1.0,0.0,0.0,0.0,1.0,0.0,0.0,0.0,1.0,-0.138063102961,-0.0865444615483,-0.0694205611944,1.21846967915e-07,0.0,0.0,0.0,1.21846967915e-07,0.0,0.0,0.0,1.21846967915e-07,0.20593965,0.61781895,10.4146623,9e-08,0.0,0.0,0.0,9e-08,0.0,0.0,0.0,9e-08
1536701862888959028,1971,1536701862888536949,base_link,-0.0185940911426,-0.0218039060461,-0.691270645803,-0.722027522818,1.0,0.0,0.0,0.0,1.0,0.0,0.0,0.0,1.0,-0.108740493655,-0.126825988293,0.0451336465776,1.21846967915e-07,0.0,0.0,0.0,1.21846967915e-07,0.0,0.0,0.0,1.21846967915e-07,0.3530394,0.2549729,12.7682583,9e-08,0.0,0.0,0.0,9e-08,0.0,0.0,0.0,9e-08
1536701863263526496,1972,1536701863263287109,base_link,-0.0198941086104,-0.0129338027331,-0.703832355509,-0.709969687048,1.0,0.0,0.0,0.0,1.0,0.0,0.0,0.0,1.0,0.02877269499,0.00659950403497,0.0562689192593,1.21846967915e-07,0.0,0.0,0.0,1.21846967915e-07,0.0,0.0,0.0,1.21846967915e-07,0.24516625,0.63743225,9.75761675,9e-08,0.0,0.0,0.0,9e-08,0.0,0.0,0.0,9e-08
1536701863499434993,1973,1536701863498524569,base_link,-0.0165723704382,-0.00953711701112,-0.707620406731,-0.706334028569,1.0,0.0,0.0,0.0,1.0,0.0,0.0,0.0,1.0,-0.140682011843,0.0182768646628,0.015735225752,1.21846967915e-07,0.0,0.0,0.0,1.21846967915e-07,0.0,0.0,0.0,1.21846967915e-07,0.32361945,0.89240515,10.46369555,9e-08,0.0,0.0,0.0,9e-08,0.0,0.0,0.0,9e-08
1536701863935049983,1974,1536701863932052786,base_link,-0.0015253777687,0.0154556042179,-0.707206570453,-0.706836377268,1.0,0.0,0.0,0.0,1.0,0.0,0.0,0.0,1.0,-0.0674457103014,-0.0426447801292,-0.0285200476646,1.21846967915e-07,0.0,0.0,0.0,1.21846967915e-07,0.0,0.0,0.0,1.21846967915e-07,0.2157463,0.7060788,10.28717585,9e-08,0.0,0.0,0.0,9e-08,0.0,0.0,0.0,9e-08
1536701864300608830,1975,1536701864296979362,base_link,-0.0103394458119,0.00341280030134,-0.706811527117,-0.707318113574,1.0,0.0,0.0,0.0,1.0,0.0,0.0,0.0,1.0,0.102251559496,0.0432471111417,0.00960118882358,1.21846967915e-07,0.0,0.0,0.0,1.21846967915e-07,0.0,0.0,0.0,1.21846967915e-07,0.14709975,0.44129925,9.03192465,9e-08,0.0,0.0,0.0,9e-08,0.0,0.0,0.0,9e-08
1536701864650381773,1976,1536701864650077018,base_link,-0.0138850306043,-0.0109613202519,-0.716990117702,-0.696858828243,1.0,0.0,0.0,0.0,1.0,0.0,0.0,0.0,1.0,0.0329009592533,0.0277237594128,0.144777595997,1.21846967915e-07,0.0,0.0,0.0,1.21846967915e-07,0.0,0.0,0.0,1.21846967915e-07,0.30400615,0.3530394,9.3359308,9e-08,0.0,0.0,0.0,9e-08,0.0,0.0,0.0,9e-08
1536701865066502259,1977,1536701865066263481,base_link,-0.0197820921919,-0.0276269668265,-0.734117718216,-0.67817150879,1.0,0.0,0.0,0.0,1.0,0.0,0.0,0.0,1.0,0.085499741137,0.0707568302751,0.0795234292746,1.21846967915e-07,0.0,0.0,0.0,1.21846967915e-07,0.0,0.0,0.0,1.21846967915e-07,0.12748645,0.63743225,8.2964259,9e-08,0.0,0.0,0.0,9e-08,0.0,0.0,0.0,9e-08
1536701865429869653,1978,1536701865428772343,base_link,-0.012223072349,-0.0259673302692,-0.73601627032,-0.676355190772,1.0,0.0,0.0,0.0,1.0,0.0,0.0,0.0,1.0,-0.0957682430744,-0.0326281487942,-0.0204845648259,1.21846967915e-07,0.0,0.0,0.0,1.21846967915e-07,0.0,0.0,0.0,1.21846967915e-07,0.392266,0.69627215,9.9243298,9e-08,0.0,0.0,0.0,9e-08,0.0,0.0,0.0,9e-08
1536701865783083258,1979,1536701865782033453,base_link,-0.0171619192356,-0.0430287247375,-0.729116922594,-0.68281953001,1.0,0.0,0.0,0.0,1.0,0.0,0.0,0.0,1.0,0.139299198985,0.0127282841131,-0.0502721332014,1.21846967915e-07,0.0,0.0,0.0,1.21846967915e-07,0.0,0.0,0.0,1.21846967915e-07,0.22555295,0.48052585,9.8851032,9e-08,0.0,0.0,0.0,9e-08,0.0,0.0,0.0,9e-08
1536701866169912672,1980,1536701866168891742,base_link,-0.01767440656,-0.0229189706287,-0.728368670159,-0.68457389409,1.0,0.0,0.0,0.0,1.0,0.0,0.0,0.0,1.0,0.227358818054,-0.0726020112634,0.000282936263829,1.21846967915e-07,0.0,0.0,0.0,1.21846967915e-07,0.0,0.0,0.0,1.21846967915e-07,0.392266,0.51975245,10.0420096,9e-08,0.0,0.0,0.0,9e-08,0.0,0.0,0.0,9e-08
1536701866511654868,1981,1536701866511326040,base_link,-0.0628914082068,-0.0520172350552,-0.72924873877,-0.679363786961,1.0,0.0,0.0,0.0,1.0,0.0,0.0,0.0,1.0,0.308033049107,-0.0589672997594,0.0149185638875,1.21846967915e-07,0.0,0.0,0.0,1.21846967915e-07,0.0,0.0,0.0,1.21846967915e-07,0.48052585,0.48052585,10.5127288,9e-08,0.0,0.0,0.0,9e-08,0.0,0.0,0.0,9e-08
1536701867041993086,1982,1536701867041378134,base_link,-0.0354585631655,-0.0452632487262,-0.736984635734,-0.673459408803,1.0,0.0,0.0,0.0,1.0,0.0,0.0,0.0,1.0,-0.00355557911098,0.0713328719139,-0.127284198999,1.21846967915e-07,0.0,0.0,0.0,1.21846967915e-07,0.0,0.0,0.0,1.21846967915e-07,0.3138128,1.0591182,8.87501825,9e-08,0.0,0.0,0.0,9e-08,0.0,0.0,0.0,9e-08
1536701867459165938,1983,1536701867458777247,base_link,-0.052756496568,-0.0796836178076,-0.714036396632,-0.693555547456,1.0,0.0,0.0,0.0,1.0,0.0,0.0,0.0,1.0,0.132471129298,-0.00531607121229,-0.0129484822974,1.21846967915e-07,0.0,0.0,0.0,1.21846967915e-07,0.0,0.0,0.0,1.21846967915e-07,0.392266,0.2745862,9.75761675,9e-08,0.0,0.0,0.0,9e-08,0.0,0.0,0.0,9e-08
1536701867752528055,1984,1536701867752162221,base_link,-0.0620870827264,-0.076601075075,-0.714031788948,-0.69313496076,1.0,0.0,0.0,0.0,1.0,0.0,0.0,0.0,1.0,0.117425397038,-0.114104680717,-0.00116614322178,1.21846967915e-07,0.0,0.0,0.0,1.21846967915e-07,0.0,0.0,0.0,1.21846967915e-07,0.3530394,0.1372931,10.9049948,9e-08,0.0,0.0,0.0,9e-08,0.0,0.0,0.0,9e-08
1536701868170165242,1985,1536701868169526665,base_link,-0.0761894808343,-0.0671968540763,-0.728212881042,-0.67778001276,1.0,0.0,0.0,0.0,1.0,0.0,0.0,0.0,1.0,-0.101759031415,-0.0841810554266,0.106571912766,1.21846967915e-07,0.0,0.0,0.0,1.21846967915e-07,0.0,0.0,0.0,1.21846967915e-07,0.4314926,0.93163175,10.60098865,9e-08,0.0,0.0,0.0,9e-08,0.0,0.0,0.0,9e-08
1536701868525941127,1986,1536701868525622255,base_link,-0.0507909512672,-0.0172169126356,-0.729155763835,-0.682243159918,1.0,0.0,0.0,0.0,1.0,0.0,0.0,0.0,1.0,-0.13603554666,-0.0469340868294,-0.0624597333372,1.21846967915e-07,0.0,0.0,0.0,1.21846967915e-07,0.0,0.0,0.0,1.21846967915e-07,0.51975245,0.71588545,11.5326204,9e-08,0.0,0.0,0.0,9e-08,0.0,0.0,0.0,9e-08
1536701868868343861,1987,1536701868867673400,base_link,-0.0404141773669,-0.00470202288003,-0.723693418547,-0.68892120101,1.0,0.0,0.0,0.0,1.0,0.0,0.0,0.0,1.0,-0.00554363615811,0.0082533210516,-0.00831880606711,1.21846967915e-07,0.0,0.0,0.0,1.21846967915e-07,0.0,0.0,0.0,1.21846967915e-07,0.4511059,0.79433865,10.2969825,9e-08,0.0,0.0,0.0,9e-08,0.0,0.0,0.0,9e-08
1536701869332242214,1988,1536701869331763985,base_link,-0.0342113616812,-0.0149460168596,-0.722283858108,-0.690588319933,1.0,0.0,0.0,0.0,1.0,0.0,0.0,0.0,1.0,-0.0759440362453,0.00701852235943,0.0243349559605,1.21846967915e-07,0.0,0.0,0.0,1.21846967915e-07,0.0,0.0,0.0,1.21846967915e-07,0.4118793,0.5099458,9.73800345,9e-08,0.0,0.0,0.0,9e-08,0.0,0.0,0.0,9e-08
1536701869731581285,1989,1536701869731302107,base_link,-0.0316931219251,-0.016494889904,-0.729557547245,-0.682985541492,1.0,0.0,0.0,0.0,1.0,0.0,0.0,0.0,1.0,0.248104929924,0.0435009337962,0.0513383038342,1.21846967915e-07,0.0,0.0,0.0,1.21846967915e-07,0.0,0.0,0.0,1.21846967915e-07,0.5295591,0.588399,10.54214875,9e-08,0.0,0.0,0.0,9e-08,0.0,0.0,0.0,9e-08
1536701870151405763,1990,1536701870151167977,base_link,-0.0346921972492,-0.0501553692037,-0.730441150639,-0.68024746662,1.0,0.0,0.0,0.0,1.0,0.0,0.0,0.0,1.0,0.0482258722186,0.171577304602,-0.0174484439194,1.21846967915e-07,0.0,0.0,0.0,1.21846967915e-07,0.0,0.0,0.0,1.21846967915e-07,0.16671305,0.63743225,7.8257067,9e-08,0.0,0.0,0.0,9e-08,0.0,0.0,0.0,9e-08
1536701870527675698,1991,1536701870527147370,base_link,-0.038168281956,-0.063447101476,-0.717210153032,-0.692912147357,1.0,0.0,0.0,0.0,1.0,0.0,0.0,0.0,1.0,0.153604120016,0.0388238653541,-0.196725174785,1.21846967915e-07,0.0,0.0,0.0,1.21846967915e-07,0.0,0.0,0.0,1.21846967915e-07,0.16671305,0.6668522,9.26728425,9e-08,0.0,0.0,0.0,9e-08,0.0,0.0,0.0,9e-08
1536701870851801571,1992,1536701870850669944,base_link,-0.0637071268308,-0.0976958711073,-0.696792827824,-0.707726411724,1.0,0.0,0.0,0.0,1.0,0.0,0.0,0.0,1.0,0.30688610673,-0.100890405476,-0.127215966582,1.21846967915e-07,0.0,0.0,0.0,1.21846967915e-07,0.0,0.0,0.0,1.21846967915e-07,0.4707192,0.26477955,9.9047165,9e-08,0.0,0.0,0.0,9e-08,0.0,0.0,0.0,9e-08
1536701871194020204,1993,1536701871193370518,base_link,-0.0794204224139,-0.0857771315423,-0.698079313803,-0.706413442573,1.0,0.0,0.0,0.0,1.0,0.0,0.0,0.0,1.0,-0.0975818485022,-0.103626400232,0.110385008156,1.21846967915e-07,0.0,0.0,0.0,1.21846967915e-07,0.0,0.0,0.0,1.21846967915e-07,0.588399,0.6080123,12.1406327,9e-08,0.0,0.0,0.0,9e-08,0.0,0.0,0.0,9e-08
1536701871498081757,1994,1536701871497804981,base_link,-0.0619217206577,-0.0683068084434,-0.705207374414,-0.702981108923,1.0,0.0,0.0,0.0,1.0,0.0,0.0,0.0,1.0,-0.00246065668762,0.0970254987478,-0.0696714669466,1.21846967915e-07,0.0,0.0,0.0,1.21846967915e-07,0.0,0.0,0.0,1.21846967915e-07,0.3530394,1.3140911,10.14988275,9e-08,0.0,0.0,0.0,9e-08,0.0,0.0,0.0,9e-08
1536701872087597895,1995,1536701872087088967,base_link,-0.0783741731201,-0.10364218085,-0.66072133671,-0.739299061647,1.0,0.0,0.0,0.0,1.0,0.0,0.0,0.0,1.0,0.374880462885,-0.120651856065,-0.0822726041079,1.21846967915e-07,0.0,0.0,0.0,1.21846967915e-07,0.0,0.0,0.0,1.21846967915e-07,0.14709975,0.1569064,10.69905515,9e-08,0.0,0.0,0.0,9e-08,0.0,0.0,0.0,9e-08
1536701872341680910,1996,1536701872340879487,base_link,-0.109205629203,-0.105293753739,-0.659672858656,-0.736083606343,1.0,0.0,0.0,0.0,1.0,0.0,0.0,0.0,1.0,0.126080736518,-0.119568556547,0.0806790962815,1.21846967915e-07,0.0,0.0,0.0,1.21846967915e-07,0.0,0.0,0.0,1.21846967915e-07,0.6864655,0.9610517,13.533177,9e-08,0.0,0.0,0.0,9e-08,0.0,0.0,0.0,9e-08
1536701872636297550,1997,1536701872636035243,base_link,-0.117403583795,-0.0988565671029,-0.657963308375,-0.7372435571,1.0,0.0,0.0,0.0,1.0,0.0,0.0,0.0,1.0,-0.0832749605179,-0.0198282878846,-0.102292209864,1.21846967915e-07,0.0,0.0,0.0,1.21846967915e-07,0.0,0.0,0.0,1.21846967915e-07,0.6080123,1.36312435,11.6699135,9e-08,0.0,0.0,0.0,9e-08,0.0,0.0,0.0,9e-08
1536701873020557225,1998,1536701873019037931,base_link,-0.149408501748,-0.13819987956,-0.616556216203,-0.760550014895,1.0,0.0,0.0,0.0,1.0,0.0,0.0,0.0,1.0,0.169486820698,-0.0783396810293,-0.229375422001,1.21846967915e-07,0.0,0.0,0.0,1.21846967915e-07,0.0,0.0,0.0,1.21846967915e-07,0.18632635,0.40207265,8.237586,9e-08,0.0,0.0,0.0,9e-08,0.0,0.0,0.0,9e-08
1536701873419082260,1999,1536701873418775616,base_link,-0.167822078927,-0.132364611212,-0.590312246733,-0.778361619609,1.0,0.0,0.0,0.0,1.0,0.0,0.0,0.0,1.0,0.0640251338482,-0.132811740041,-0.132147729397,1.21846967915e-07,0.0,0.0,0.0,1.21846967915e-07,0.0,0.0,0.0,1.21846967915e-07,0.34323275,0.87279185,10.71866845,9e-08,0.0,0.0,0.0,9e-08,0.0,0.0,0.0,9e-08
1536701873820903933,2000,1536701873820524334,base_link,-0.178947252624,-0.124296586248,-0.563724319985,-0.796707681953,1.0,0.0,0.0,0.0,1.0,0.0,0.0,0.0,1.0,0.0393885448575,-0.113926447928,-0.208090752363,1.21846967915e-07,0.0,0.0,0.0,1.21846967915e-07,0.0,0.0,0.0,1.21846967915e-07,0.3726527,1.1375714,10.9638347,9e-08,0.0,0.0,0.0,9e-08,0.0,0.0,0.0,9e-08
1536701874237242005,2001,1536701874235298391,base_link,-0.205781580331,-0.124867444042,-0.510293766132,-0.825628448433,1.0,0.0,0.0,0.0,1.0,0.0,0.0,0.0,1.0,0.114265397191,-0.170578479767,-0.24933642149,1.21846967915e-07,0.0,0.0,0.0,1.21846967915e-07,0.0,0.0,0.0,1.21846967915e-07,0.3138128,0.69627215,10.99325465,9e-08,0.0,0.0,0.0,9e-08,0.0,0.0,0.0,9e-08
1536701874699585883,2002,1536701874699319574,base_link,-0.23237937719,-0.104950740699,-0.464805558541,-0.847903862377,1.0,0.0,0.0,0.0,1.0,0.0,0.0,0.0,1.0,0.0917983949184,-0.234520033002,-0.149334207177,1.21846967915e-07,0.0,0.0,0.0,1.21846967915e-07,0.0,0.0,0.0,1.21846967915e-07,0.42168595,0.79433865,11.48358715,9e-08,0.0,0.0,0.0,9e-08,0.0,0.0,0.0,9e-08
1536701874966611389,2003,1536701874966238929,base_link,-0.251220896828,-0.0981745386049,-0.439939492388,-0.856564687577,1.0,0.0,0.0,0.0,1.0,0.0,0.0,0.0,1.0,0.04508420825,-0.150508522987,-0.193065881729,1.21846967915e-07,0.0,0.0,0.0,1.21846967915e-07,0.0,0.0,0.0,1.21846967915e-07,0.67665885,1.50041745,11.91507975,9e-08,0.0,0.0,0.0,9e-08,0.0,0.0,0.0,9e-08
1536701875288422884,2004,1536701875288207763,base_link,-0.224754623957,-0.0882460520762,-0.398808951126,-0.884674750292,1.0,0.0,0.0,0.0,1.0,0.0,0.0,0.0,1.0,-0.181160330772,0.0263797082007,-0.302287459373,1.21846967915e-07,0.0,0.0,0.0,1.21846967915e-07,0.0,0.0,0.0,1.21846967915e-07,0.5099458,0.89240515,9.8458766,9e-08,0.0,0.0,0.0,9e-08,0.0,0.0,0.0,9e-08
1536701875662577332,2005,1536701875658948728,base_link,-0.213717747418,-0.0719220116819,-0.342040531912,-0.912228164005,1.0,0.0,0.0,0.0,1.0,0.0,0.0,0.0,1.0,0.0738133639097,-0.182092398405,-0.285072624683,1.21846967915e-07,0.0,0.0,0.0,1.21846967915e-07,0.0,0.0,0.0,1.21846967915e-07,0.6864655,0.8041453,11.6503002,9e-08,0.0,0.0,0.0,9e-08,0.0,0.0,0.0,9e-08
1536701876070614058,2006,1536701876069191952,base_link,-0.239298594003,-0.0587502332337,-0.296271804321,-0.92277170035,1.0,0.0,0.0,0.0,1.0,0.0,0.0,0.0,1.0,0.0580335631967,-0.105775378644,-0.128509864211,1.21846967915e-07,0.0,0.0,0.0,1.21846967915e-07,0.0,0.0,0.0,1.21846967915e-07,0.71588545,0.91201845,10.787315,9e-08,0.0,0.0,0.0,9e-08,0.0,0.0,0.0,9e-08
1536701876462857679,2007,1536701876462271985,base_link,-0.228224249492,-0.0507379267012,-0.26328100706,-0.935960718225,1.0,0.0,0.0,0.0,1.0,0.0,0.0,0.0,1.0,-0.0808894857764,0.0245331730694,-0.241555213928,1.21846967915e-07,0.0,0.0,0.0,1.21846967915e-07,0.0,0.0,0.0,1.21846967915e-07,0.46091255,1.1375714,9.3163175,9e-08,0.0,0.0,0.0,9e-08,0.0,0.0,0.0,9e-08
1536701876850583720,2008,1536701876850183121,base_link,-0.223363072186,-0.0491480381821,-0.212235802623,-0.950078613806,1.0,0.0,0.0,0.0,1.0,0.0,0.0,0.0,1.0,0.0527826361358,-0.116010330617,-0.256500989199,1.21846967915e-07,0.0,0.0,0.0,1.21846967915e-07,0.0,0.0,0.0,1.21846967915e-07,0.588399,0.6276256,10.8853815,9e-08,0.0,0.0,0.0,9e-08,0.0,0.0,0.0,9e-08
1536701877303013930,2009,1536701877302730303,base_link,-0.205973794549,-0.0265887583133,-0.163404989757,-0.96445147271,1.0,0.0,0.0,0.0,1.0,0.0,0.0,0.0,1.0,-0.183853313327,-0.0427451580763,-0.139209926128,1.21846967915e-07,0.0,0.0,0.0,1.21846967915e-07,0.0,0.0,0.0,1.21846967915e-07,0.61781895,0.50013915,11.05209455,9e-08,0.0,0.0,0.0,9e-08,0.0,0.0,0.0,9e-08
1536701877746681148,2010,1536701877746311601,base_link,-0.169336121862,-0.0130722102628,-0.141377972669,-0.97527773685,1.0,0.0,0.0,0.0,1.0,0.0,0.0,0.0,1.0,-0.245385915041,-0.00970817729831,-0.0747555345297,1.21846967915e-07,0.0,0.0,0.0,1.21846967915e-07,0.0,0.0,0.0,1.21846967915e-07,0.59820565,0.6668522,11.03248125,9e-08,0.0,0.0,0.0,9e-08,0.0,0.0,0.0,9e-08
1536701878220169078,2011,1536701878219794280,base_link,-0.108551703996,-0.025553807187,-0.110871269973,-0.987558146132,1.0,0.0,0.0,0.0,1.0,0.0,0.0,0.0,1.0,-0.187786892056,0.0934812501073,-0.195713162422,1.21846967915e-07,0.0,0.0,0.0,1.21846967915e-07,0.0,0.0,0.0,1.21846967915e-07,0.2941995,0.8825985,8.83579165,9e-08,0.0,0.0,0.0,9e-08,0.0,0.0,0.0,9e-08
1536701878619088502,2012,1536701878618815791,base_link,-0.0841309372669,-0.0294291064472,-0.0856047637143,-0.992334488727,1.0,0.0,0.0,0.0,1.0,0.0,0.0,0.0,1.0,0.116943530738,-0.0417645610869,-0.0255293603987,1.21846967915e-07,0.0,0.0,0.0,1.21846967915e-07,0.0,0.0,0.0,1.21846967915e-07,0.2353596,0.28439285,8.97308475,9e-08,0.0,0.0,0.0,9e-08,0.0,0.0,0.0,9e-08
1536701878951152832,2013,1536701878950601008,base_link,-0.0886611859833,-0.0254404739784,-0.0871182253194,-0.991918540608,1.0,0.0,0.0,0.0,1.0,0.0,0.0,0.0,1.0,0.0321414284408,-0.0665813609958,0.0336523465812,1.21846967915e-07,0.0,0.0,0.0,1.21846967915e-07,0.0,0.0,0.0,1.21846967915e-07,0.26477955,0.5099458,9.4536106,9e-08,0.0,0.0,0.0,9e-08,0.0,0.0,0.0,9e-08
1536701879361581503,2014,1536701879361325438,base_link,-0.0688786626683,-0.0170141928329,-0.0870568964436,-0.993673660642,1.0,0.0,0.0,0.0,1.0,0.0,0.0,0.0,1.0,-0.158818587661,0.0658270791173,-0.0424243286252,1.21846967915e-07,0.0,0.0,0.0,1.21846967915e-07,0.0,0.0,0.0,1.21846967915e-07,0.30400615,0.67665885,10.0812362,9e-08,0.0,0.0,0.0,9e-08,0.0,0.0,0.0,9e-08
1536701879796539509,2015,1536701879796159813,base_link,-0.041611675184,-0.0235350424522,-0.0775096343819,-0.995844780497,1.0,0.0,0.0,0.0,1.0,0.0,0.0,0.0,1.0,-0.109627753496,0.0483217798173,-0.0387638956308,1.21846967915e-07,0.0,0.0,0.0,1.21846967915e-07,0.0,0.0,0.0,1.21846967915e-07,0.20593965,0.61781895,9.2770909,9e-08,0.0,0.0,0.0,9e-08,0.0,0.0,0.0,9e-08
1536701880277812973,2016,1536701880274680237,base_link,-0.0222414755649,-0.0293837789481,-0.0709245480963,-0.996800691601,1.0,0.0,0.0,0.0,1.0,0.0,0.0,0.0,1.0,-0.0386795438826,-0.0450542010367,-0.00203485577367,1.21846967915e-07,0.0,0.0,0.0,1.21846967915e-07,0.0,0.0,0.0,1.21846967915e-07,0.18632635,0.5099458,9.7085835,9e-08,0.0,0.0,0.0,9e-08,0.0,0.0,0.0,9e-08
1536701880654151222,2017,1536701880653925089,base_link,-0.0118941227382,-0.0218908932502,-0.0743798048163,-0.996918734538,1.0,0.0,0.0,0.0,1.0,0.0,0.0,0.0,1.0,0.0286236107349,-0.0662650763988,0.0313080251217,1.21846967915e-07,0.0,0.0,0.0,1.21846967915e-07,0.0,0.0,0.0,1.21846967915e-07,0.196133,0.4707192,10.2969825,9e-08,0.0,0.0,0.0,9e-08,0.0,0.0,0.0,9e-08
1536701881148191272,2018,1536701881147844869,base_link,-0.0183456334141,-0.011990754525,-0.076590916518,-0.996821694711,1.0,0.0,0.0,0.0,1.0,0.0,0.0,0.0,1.0,0.102474883199,-0.07925593853,-0.0137704219669,1.21846967915e-07,0.0,0.0,0.0,1.21846967915e-07,0.0,0.0,0.0,1.21846967915e-07,0.0980665,0.3726527,10.14988275,9e-08,0.0,0.0,0.0,9e-08,0.0,0.0,0.0,9e-08
1536701881488155196,2019,1536701881486676621,base_link,-0.0388558230175,0.00389154546093,-0.0775437977019,-0.996223890664,1.0,0.0,0.0,0.0,1.0,0.0,0.0,0.0,1.0,0.106680013239,-0.0926795080304,0.0253857355565,1.21846967915e-07,0.0,0.0,0.0,1.21846967915e-07,0.0,0.0,0.0,1.21846967915e-07,0.2549729,0.51975245,11.5130071,9e-08,0.0,0.0,0.0,9e-08,0.0,0.0,0.0,9e-08
1536701881847711678,2020,1536701881847340594,base_link,-0.0409324284499,0.0104268366062,-0.0857549774293,-0.99542046454,1.0,0.0,0.0,0.0,1.0,0.0,0.0,0.0,1.0,-0.0978609248996,0.0577817633748,0.0463135056198,1.21846967915e-07,0.0,0.0,0.0,1.21846967915e-07,0.0,0.0,0.0,1.21846967915e-07,0.2745862,0.63743225,10.9442214,9e-08,0.0,0.0,0.0,9e-08,0.0,0.0,0.0,9e-08
1536701882362154928,2021,1536701882361841689,base_link,-0.0281625584381,-0.00685593051323,-0.0806559340846,-0.996320473952,1.0,0.0,0.0,0.0,1.0,0.0,0.0,0.0,1.0,0.0775365829468,0.0973601862788,-0.0283514913172,1.21846967915e-07,0.0,0.0,0.0,1.21846967915e-07,0.0,0.0,0.0,1.21846967915e-07,0.12748645,0.61781895,9.5320638,9e-08,0.0,0.0,0.0,9e-08,0.0,0.0,0.0,9e-08
1536701882748189674,2022,1536701882747874419,base_link,-0.0252560070857,-0.0196625574268,-0.0731982469958,-0.996803658991,1.0,0.0,0.0,0.0,1.0,0.0,0.0,0.0,1.0,0.000362001359463,0.015520805493,-0.0802674368024,1.21846967915e-07,0.0,0.0,0.0,1.21846967915e-07,0.0,0.0,0.0,1.21846967915e-07,0.0196133,0.30400615,7.93357985,9e-08,0.0,0.0,0.0,9e-08,0.0,0.0,0.0,9e-08
1536701883069529630,2023,1536701883069112065,base_link,-0.0449812032571,-0.0177035150139,-0.0730975767931,-0.996152609381,1.0,0.0,0.0,0.0,1.0,0.0,0.0,0.0,1.0,0.143225491047,0.0155637934804,0.0655040517449,1.21846967915e-07,0.0,0.0,0.0,1.21846967915e-07,0.0,0.0,0.0,1.21846967915e-07,0.20593965,0.2549729,10.8461549,9e-08,0.0,0.0,0.0,9e-08,0.0,0.0,0.0,9e-08
1536701883419690881,2024,1536701883418529418,base_link,-0.0660024925813,-0.0143601403845,-0.0833733627877,-0.994226503227,1.0,0.0,0.0,0.0,1.0,0.0,0.0,0.0,1.0,0.098326228559,-0.10792376101,0.0730100870132,1.21846967915e-07,0.0,0.0,0.0,1.21846967915e-07,0.0,0.0,0.0,1.21846967915e-07,0.10787315,0.42168595,9.67916355,9e-08,0.0,0.0,0.0,9e-08,0.0,0.0,0.0,9e-08
1536701883906485344,2025,1536701883906167016,base_link,-0.0515544198622,-0.0120499275611,-0.0881971854938,-0.994695027387,1.0,0.0,0.0,0.0,1.0,0.0,0.0,0.0,1.0,-0.0359603390098,0.0764204412699,-0.0914371088147,1.21846967915e-07,0.0,0.0,0.0,1.21846967915e-07,0.0,0.0,0.0,1.21846967915e-07,0.16671305,0.83356525,9.5516771,9e-08,0.0,0.0,0.0,9e-08,0.0,0.0,0.0,9e-08
1536701884222663670,2026,1536701884222188802,base_link,-0.0546348991282,-0.0123469914444,-0.0725438823048,-0.995791125056,1.0,0.0,0.0,0.0,1.0,0.0,0.0,0.0,1.0,0.0258516352624,-0.0192251615226,-0.0658552274108,1.21846967915e-07,0.0,0.0,0.0,1.21846967915e-07,0.0,0.0,0.0,1.21846967915e-07,0.2157463,0.44129925,9.7478101,9e-08,0.0,0.0,0.0,9e-08,0.0,0.0,0.0,9e-08
1536701884689154106,2027,1536701884688920514,base_link,-0.0676369166054,-0.0152632754342,-0.0696004246173,-0.995162328883,1.0,0.0,0.0,0.0,1.0,0.0,0.0,0.0,1.0,0.0713169202209,-0.0101936608553,0.0144140198827,1.21846967915e-07,0.0,0.0,0.0,1.21846967915e-07,0.0,0.0,0.0,1.21846967915e-07,0.2157463,0.392266,9.73800345,9e-08,0.0,0.0,0.0,9e-08,0.0,0.0,0.0,9e-08
1536701885114989112,2028,1536701885114649624,base_link,-0.0590067953256,-0.00755943364474,-0.0774048300762,-0.995223364552,1.0,0.0,0.0,0.0,1.0,0.0,0.0,0.0,1.0,-0.0979783087969,0.0528469085693,0.0603912957013,1.21846967915e-07,0.0,0.0,0.0,1.21846967915e-07,0.0,0.0,0.0,1.21846967915e-07,0.2549729,0.59820565,10.2577559,9e-08,0.0,0.0,0.0,9e-08,0.0,0.0,0.0,9e-08
1536701885479280792,2029,1536701885478943672,base_link,-0.0385322301037,-0.00635759927317,-0.0743453034286,-0.996467572996,1.0,0.0,0.0,0.0,1.0,0.0,0.0,0.0,1.0,-0.0659626498818,-0.0122319180518,-0.0706681236625,1.21846967915e-07,0.0,0.0,0.0,1.21846967915e-07,0.0,0.0,0.0,1.21846967915e-07,0.2745862,0.55897905,9.9831697,9e-08,0.0,0.0,0.0,9e-08,0.0,0.0,0.0,9e-08
1536701886025757270,2030,1536701886025481582,base_link,-0.0207625994088,0.000920857007523,-0.0653780287679,-0.997644114824,1.0,0.0,0.0,0.0,1.0,0.0,0.0,0.0,1.0,0.0534981898963,-0.0492576435208,-0.0101918624714,1.21846967915e-07,0.0,0.0,0.0,1.21846967915e-07,0.0,0.0,0.0,1.21846967915e-07,0.3138128,0.5099458,9.93413645,9e-08,0.0,0.0,0.0,9e-08,0.0,0.0,0.0,9e-08
1536701886404049857,2031,1536701886403791904,base_link,-0.0472457715427,0.00602247735112,-0.0671676916639,-0.996604268521,1.0,0.0,0.0,0.0,1.0,0.0,0.0,0.0,1.0,0.230341717601,-0.139408841729,0.0775523558259,1.21846967915e-07,0.0,0.0,0.0,1.21846967915e-07,0.0,0.0,0.0,1.21846967915e-07,0.3138128,0.4511059,10.38524235,9e-08,0.0,0.0,0.0,9e-08,0.0,0.0,0.0,9e-08
1536701886724534162,2032,1536701886724213721,base_link,-0.0763438992139,0.0294217254325,-0.0747944272924,-0.993836890426,1.0,0.0,0.0,0.0,1.0,0.0,0.0,0.0,1.0,0.244484141469,-0.165436983109,0.0466712079942,1.21846967915e-07,0.0,0.0,0.0,1.21846967915e-07,0.0,0.0,0.0,1.21846967915e-07,0.42168595,0.51975245,12.67999845,9e-08,0.0,0.0,0.0,9e-08,0.0,0.0,0.0,9e-08
1536701887031562502,2033,1536701887031274201,base_link,-0.0854112644696,0.0402941274277,-0.0820871574555,-0.992140613914,1.0,0.0,0.0,0.0,1.0,0.0,0.0,0.0,1.0,-0.0958894491196,-0.0671598389745,0.0436039343476,1.21846967915e-07,0.0,0.0,0.0,1.21846967915e-07,0.0,0.0,0.0,1.21846967915e-07,0.48052585,0.8433719,11.0030613,9e-08,0.0,0.0,0.0,9e-08,0.0,0.0,0.0,9e-08
1536701887460543624,2034,1536701887460336218,base_link,-0.0521274859747,0.0477959170835,-0.0755607215252,-0.994630008032,1.0,0.0,0.0,0.0,1.0,0.0,0.0,0.0,1.0,-0.112411312759,0.0242750756443,-0.066205881536,1.21846967915e-07,0.0,0.0,0.0,1.21846967915e-07,0.0,0.0,0.0,1.21846967915e-07,0.3530394,0.53936575,10.13026945,9e-08,0.0,0.0,0.0,9e-08,0.0,0.0,0.0,9e-08
1536701887841700014,2035,1536701887841290644,base_link,-0.0315705414633,0.0445247764372,-0.0651354969633,-0.996382563191,1.0,0.0,0.0,0.0,1.0,0.0,0.0,0.0,1.0,-0.164547204971,0.0568243972957,-0.000549915246665,1.21846967915e-07,0.0,0.0,0.0,1.21846967915e-07,0.0,0.0,0.0,1.21846967915e-07,0.4118793,0.51975245,10.0812362,9e-08,0.0,0.0,0.0,9e-08,0.0,0.0,0.0,9e-08
1536701888182475990,2036,1536701888181933256,base_link,-0.0194324378152,0.0324428720971,-0.0658941920259,-0.997109721078,1.0,0.0,0.0,0.0,1.0,0.0,0.0,0.0,1.0,0.0362302921712,0.0854008123279,0.0113678602502,1.21846967915e-07,0.0,0.0,0.0,1.21846967915e-07,0.0,0.0,0.0,1.21846967915e-07,0.2745862,0.4511059,8.95347145,9e-08,0.0,0.0,0.0,9e-08,0.0,0.0,0.0,9e-08
1536701888574730943,2037,1536701888573909000,base_link,-0.0256386922711,0.0105305361586,-0.0708151590101,-0.997104296712,1.0,0.0,0.0,0.0,1.0,0.0,0.0,0.0,1.0,0.0977796912193,0.15978179872,0.0518123582006,1.21846967915e-07,0.0,0.0,0.0,1.21846967915e-07,0.0,0.0,0.0,1.21846967915e-07,0.2549729,0.3726527,7.9826131,9e-08,0.0,0.0,0.0,9e-08,0.0,0.0,0.0,9e-08
1536701889084051424,2038,1536701889083713249,base_link,-0.0245306417969,-0.00900974784521,-0.0864068113202,-0.995917132604,1.0,0.0,0.0,0.0,1.0,0.0,0.0,0.0,1.0,-0.0779981166124,0.00900430977345,0.050126131624,1.21846967915e-07,0.0,0.0,0.0,1.21846967915e-07,0.0,0.0,0.0,1.21846967915e-07,0.30400615,0.5491724,9.12999115,9e-08,0.0,0.0,0.0,9e-08,0.0,0.0,0.0,9e-08
1536701889576049326,2039,1536701889575434214,base_link,-0.0125176148926,-0.0298963023069,-0.0892726251373,-0.995479743052,1.0,0.0,0.0,0.0,1.0,0.0,0.0,0.0,1.0,0.0432254299521,0.145437762141,-0.0320917665958,1.21846967915e-07,0.0,0.0,0.0,1.21846967915e-07,0.0,0.0,0.0,1.21846967915e-07,0.24516625,0.6276256,8.79656505,9e-08,0.0,0.0,0.0,9e-08,0.0,0.0,0.0,9e-08
1536701890037303192,2040,1536701890036931371,base_link,-0.0418450769615,-0.0345002063608,-0.0823231055582,-0.99512895224,1.0,0.0,0.0,0.0,1.0,0.0,0.0,0.0,1.0,0.141110002995,-0.0306699201465,0.0356891490519,1.21846967915e-07,0.0,0.0,0.0,1.21846967915e-07,0.0,0.0,0.0,1.21846967915e-07,0.196133,0.2941995,9.6889702,9e-08,0.0,0.0,0.0,9e-08,0.0,0.0,0.0,9e-08
1536701890399132661,2041,1536701890398899357,base_link,-0.0614199435426,-0.0212142446305,-0.0882689243581,-0.993974920887,1.0,0.0,0.0,0.0,1.0,0.0,0.0,0.0,1.0,-0.00971978716552,-0.100957080722,0.0194682832807,1.21846967915e-07,0.0,0.0,0.0,1.21846967915e-07,0.0,0.0,0.0,1.21846967915e-07,0.4118793,0.83356525,10.3754357,9e-08,0.0,0.0,0.0,9e-08,0.0,0.0,0.0,9e-08
1536701890767828309,2042,1536701890767532261,base_link,-0.0315643782175,-0.00309883481573,-0.0855988334104,-0.995824747116,1.0,0.0,0.0,0.0,1.0,0.0,0.0,0.0,1.0,-0.0106317810714,0.00170496618375,-0.0613633021712,1.21846967915e-07,0.0,0.0,0.0,1.21846967915e-07,0.0,0.0,0.0,1.21846967915e-07,0.44129925,0.93163175,11.0226746,9e-08,0.0,0.0,0.0,9e-08,0.0,0.0,0.0,9e-08
1536701891241768762,2043,1536701891241002936,base_link,-0.020855964397,-0.00344600712507,-0.0610975327539,-0.997907934268,1.0,0.0,0.0,0.0,1.0,0.0,0.0,0.0,1.0,0.0365329869092,-0.0904991030693,-0.0230845250189,1.21846967915e-07,0.0,0.0,0.0,1.21846967915e-07,0.0,0.0,0.0,1.21846967915e-07,0.3138128,0.0392266,11.9248864,9e-08,0.0,0.0,0.0,9e-08,0.0,0.0,0.0,9e-08
1536701891666416310,2044,1536701891665969550,base_link,-0.0647798733525,0.014698255078,-0.0765702080448,-0.994848999872,1.0,0.0,0.0,0.0,1.0,0.0,0.0,0.0,1.0,0.193576648831,-0.00749267265201,0.11778434366,1.21846967915e-07,0.0,0.0,0.0,1.21846967915e-07,0.0,0.0,0.0,1.21846967915e-07,0.5295591,0.6276256,11.54242705,9e-08,0.0,0.0,0.0,9e-08,0.0,0.0,0.0,9e-08
1536701891962931108,2045,1536701891962550484,base_link,-0.0617866376972,0.00931101268931,-0.0830977405407,-0.994580555793,1.0,0.0,0.0,0.0,1.0,0.0,0.0,0.0,1.0,-0.0485957711935,0.0499336533248,-0.0512709617615,1.21846967915e-07,0.0,0.0,0.0,1.21846967915e-07,0.0,0.0,0.0,1.21846967915e-07,0.46091255,0.75511205,9.9439431,9e-08,0.0,0.0,0.0,9e-08,0.0,0.0,0.0,9e-08
1536701892436456683,2046,1536701892435514247,base_link,-0.0825677519406,-0.0118517222192,-0.0664770834778,-0.994295177697,1.0,0.0,0.0,0.0,1.0,0.0,0.0,0.0,1.0,0.100208446383,0.0796126127243,-0.115687727928,1.21846967915e-07,0.0,0.0,0.0,1.21846967915e-07,0.0,0.0,0.0,1.21846967915e-07,0.32361945,0.6276256,8.0022264,9e-08,0.0,0.0,0.0,9e-08,0.0,0.0,0.0,9e-08
1536701892827663528,2047,1536701892827327657,base_link,-0.102713861873,-0.0271986105894,-0.0459875268506,-0.993275010023,1.0,0.0,0.0,0.0,1.0,0.0,0.0,0.0,1.0,0.197421982884,-0.0207763537765,-0.0978746786714,1.21846967915e-07,0.0,0.0,0.0,1.21846967915e-07,0.0,0.0,0.0,1.21846967915e-07,0.3334261,0.4707192,7.8845466,9e-08,0.0,0.0,0.0,9e-08,0.0,0.0,0.0,9e-08
1536701893261333272,2048,1536701893259623601,base_link,-0.0941783531065,-0.0154396260988,-0.0511737951461,-0.994119358248,1.0,0.0,0.0,0.0,1.0,0.0,0.0,0.0,1.0,-0.138095825911,-0.00315888039768,0.0511304549873,1.21846967915e-07,0.0,0.0,0.0,1.21846967915e-07,0.0,0.0,0.0,1.21846967915e-07,0.6276256,0.784532,11.46397385,9e-08,0.0,0.0,0.0,9e-08,0.0,0.0,0.0,9e-08
1536701893561821411,2049,1536701893561402052,base_link,-0.0986427095777,-0.0147839736006,-0.0488564584827,-0.993812908165,1.0,0.0,0.0,0.0,1.0,0.0,0.0,0.0,1.0,-0.0351685322821,0.0246345512569,-0.0665954202414,1.21846967915e-07,0.0,0.0,0.0,1.21846967915e-07,0.0,0.0,0.0,1.21846967915e-07,0.4511059,0.8433719,10.2381426,9e-08,0.0,0.0,0.0,9e-08,0.0,0.0,0.0,9e-08
1536701893896927434,2050,1536701893896592780,base_link,-0.102851591863,-0.0208076245018,-0.031010495587,-0.99399544364,1.0,0.0,0.0,0.0,1.0,0.0,0.0,0.0,1.0,-0.000247368589044,-0.0307262167335,-0.124221272767,1.21846967915e-07,0.0,0.0,0.0,1.21846967915e-07,0.0,0.0,0.0,1.21846967915e-07,0.32361945,0.7060788,8.42391235,9e-08,0.0,0.0,0.0,9e-08,0.0,0.0,0.0,9e-08
1536701894263118584,2051,1536701894262640387,base_link,-0.083672193354,-0.00798119504019,-0.0151188512358,-0.996346669048,1.0,0.0,0.0,0.0,1.0,0.0,0.0,0.0,1.0,-0.189141839743,-0.099013581872,-0.0439850687981,1.21846967915e-07,0.0,0.0,0.0,1.21846967915e-07,0.0,0.0,0.0,1.21846967915e-07,0.44129925,0.4903325,10.6304086,9e-08,0.0,0.0,0.0,9e-08,0.0,0.0,0.0,9e-08
1536701894714703451,2052,1536701894714473348,base_link,-0.0400407311095,0.00592100703307,-0.0219679523937,-0.998938982419,1.0,0.0,0.0,0.0,1.0,0.0,0.0,0.0,1.0,-0.233630865812,0.00125202676281,0.0994445309043,1.21846967915e-07,0.0,0.0,0.0,1.21846967915e-07,0.0,0.0,0.0,1.21846967915e-07,0.67665885,0.6472389,11.81701325,9e-08,0.0,0.0,0.0,9e-08,0.0,0.0,0.0,9e-08
1536701895244909042,2053,1536701895244663702,base_link,-0.011892003891,0.0139004733524,-0.0283563471587,-0.999430475151,1.0,0.0,0.0,0.0,1.0,0.0,0.0,0.0,1.0,0.0374560207129,-0.0527812689543,0.00946060940623,1.21846967915e-07,0.0,0.0,0.0,1.21846967915e-07,0.0,0.0,0.0,1.21846967915e-07,0.34323275,0.40207265,10.2185293,9e-08,0.0,0.0,0.0,9e-08,0.0,0.0,0.0,9e-08
1536701895594636977,2054,1536701895594225974,base_link,-0.0330067399624,0.0209344133262,-0.0369986757747,-0.998550651418,1.0,0.0,0.0,0.0,1.0,0.0,0.0,0.0,1.0,0.125881314278,-0.0501754432917,0.0906170234084,1.21846967915e-07,0.0,0.0,0.0,1.21846967915e-07,0.0,0.0,0.0,1.21846967915e-07,0.3530394,0.24516625,9.36535075,9e-08,0.0,0.0,0.0,9e-08,0.0,0.0,0.0,9e-08
1536701895924009634,2055,1536701895921665260,base_link,-0.0602235935973,0.0354905390103,-0.0600084341224,-0.99574722106,1.0,0.0,0.0,0.0,1.0,0.0,0.0,0.0,1.0,0.19772733748,-0.104158841074,0.143471822143,1.21846967915e-07,0.0,0.0,0.0,1.21846967915e-07,0.0,0.0,0.0,1.21846967915e-07,0.5295591,0.588399,11.3561007,9e-08,0.0,0.0,0.0,9e-08,0.0,0.0,0.0,9e-08
1536701896235907013,2056,1536701896235545821,base_link,-0.0870871995971,0.0402524903895,-0.0725726681973,-0.992738014037,1.0,0.0,0.0,0.0,1.0,0.0,0.0,0.0,1.0,0.112036004663,0.067502617836,0.00624085823074,1.21846967915e-07,0.0,0.0,0.0,1.21846967915e-07,0.0,0.0,0.0,1.21846967915e-07,0.6080123,0.980665,10.5519554,9e-08,0.0,0.0,0.0,9e-08,0.0,0.0,0.0,9e-08
1536701896565812544,2057,1536701896565275252,base_link,-0.132005702631,0.017524554743,-0.0589130579511,-0.989341516392,1.0,0.0,0.0,0.0,1.0,0.0,0.0,0.0,1.0,0.399422764778,0.0195672307163,-0.141975477338,1.21846967915e-07,0.0,0.0,0.0,1.21846967915e-07,0.0,0.0,0.0,1.21846967915e-07,0.42168595,0.67665885,8.3552658,9e-08,0.0,0.0,0.0,9e-08,0.0,0.0,0.0,9e-08
1536701896899330767,2058,1536701896895509259,base_link,-0.198545272425,0.0124657057915,-0.0351064328594,-0.979383438368,1.0,0.0,0.0,0.0,1.0,0.0,0.0,0.0,1.0,0.420656710863,0.00324327568524,-0.187794089317,1.21846967915e-07,0.0,0.0,0.0,1.21846967915e-07,0.0,0.0,0.0,1.21846967915e-07,0.5687857,0.9218251,10.3558224,9e-08,0.0,0.0,0.0,9e-08,0.0,0.0,0.0,9e-08
1536701897361457923,2059,1536701897361161011,base_link,-0.261937995612,0.00902535798277,0.0142514632473,-0.964937264885,1.0,0.0,0.0,0.0,1.0,0.0,0.0,0.0,1.0,0.242104873061,-0.0868183448911,-0.244286358356,1.21846967915e-07,0.0,0.0,0.0,1.21846967915e-07,0.0,0.0,0.0,1.21846967915e-07,0.5491724,0.8433719,9.69877685,9e-08,0.0,0.0,0.0,9e-08,0.0,0.0,0.0,9e-08
1536701897866381126,2060,1536701897865893230,base_link,-0.319877416175,0.0339193207907,0.0931654831201,-0.942256924121,1.0,0.0,0.0,0.0,1.0,0.0,0.0,0.0,1.0,0.123791538179,-0.179909318686,-0.294558942318,1.21846967915e-07,0.0,0.0,0.0,1.21846967915e-07,0.0,0.0,0.0,1.21846967915e-07,0.7453054,1.18660465,10.9442214,9e-08,0.0,0.0,0.0,9e-08,0.0,0.0,0.0,9e-08
1536701898318248724,2061,1536701898318025087,base_link,-0.348982705101,0.0604876164484,0.176607187689,-0.918347549163,1.0,0.0,0.0,0.0,1.0,0.0,0.0,0.0,1.0,0.227611273527,-0.321895956993,-0.346987247467,1.21846967915e-07,0.0,0.0,0.0,1.21846967915e-07,0.0,0.0,0.0,1.21846967915e-07,0.89240515,1.2160246,11.0422879,9e-08,0.0,0.0,0.0,9e-08,0.0,0.0,0.0,9e-08
1536701898671911490,2062,1536701898671633977,base_link,-0.352128672869,0.0981646606889,0.24859810497,-0.896977189978,1.0,0.0,0.0,0.0,1.0,0.0,0.0,0.0,1.0,0.00287945754826,-0.357886910439,-0.31992444396,1.21846967915e-07,0.0,0.0,0.0,1.21846967915e-07,0.0,0.0,0.0,1.21846967915e-07,1.2944778,1.18660465,12.52309205,9e-08,0.0,0.0,0.0,9e-08,0.0,0.0,0.0,9e-08
1536701899056622664,2063,1536701899056307825,base_link,-0.350131433054,0.157619651092,0.322730190123,-0.86510649608,1.0,0.0,0.0,0.0,1.0,0.0,0.0,0.0,1.0,0.108061537147,-0.423326224089,-0.232970297337,1.21846967915e-07,0.0,0.0,0.0,1.21846967915e-07,0.0,0.0,0.0,1.21846967915e-07,1.77500365,1.26505785,14.77862155,9e-08,0.0,0.0,0.0,9e-08,0.0,0.0,0.0,9e-08
1536701899385605637,2064,1536701899385214833,base_link,-0.331758817554,0.196736164249,0.377449193874,-0.841880677232,1.0,0.0,0.0,0.0,1.0,0.0,0.0,0.0,1.0,-0.114222295582,-0.342172980309,-0.268820732832,1.21846967915e-07,0.0,0.0,0.0,1.21846967915e-07,0.0,0.0,0.0,1.21846967915e-07,1.9024901,1.57887065,14.4746154,9e-08,0.0,0.0,0.0,9e-08,0.0,0.0,0.0,9e-08
1536701899823714242,2065,1536701899823352025,base_link,-0.305996990071,0.226789696814,0.465657112647,-0.798808943946,1.0,0.0,0.0,0.0,1.0,0.0,0.0,0.0,1.0,-0.0125350635499,-0.27566459775,-0.432194113731,1.21846967915e-07,0.0,0.0,0.0,1.21846967915e-07,0.0,0.0,0.0,1.21846967915e-07,1.55925735,1.4709975,13.58221025,9e-08,0.0,0.0,0.0,9e-08,0.0,0.0,0.0,9e-08
1536701900156844095,2066,1536701900156569911,base_link,-0.287983292226,0.245618326736,0.535572741946,-0.754916617286,1.0,0.0,0.0,0.0,1.0,0.0,0.0,0.0,1.0,-0.104217499495,-0.379620879889,-0.337754786015,1.21846967915e-07,0.0,0.0,0.0,1.21846967915e-07,0.0,0.0,0.0,1.21846967915e-07,1.44157755,0.980665,12.81729155,9e-08,0.0,0.0,0.0,9e-08,0.0,0.0,0.0,9e-08
1536701900539215152,2067,1536701900538806870,base_link,-0.228223229636,0.278458340923,0.607621291529,-0.70793465511,1.0,0.0,0.0,0.0,1.0,0.0,0.0,0.0,1.0,-0.237088978291,-0.458683907986,-0.237355932593,1.21846967915e-07,0.0,0.0,0.0,1.21846967915e-07,0.0,0.0,0.0,1.21846967915e-07,1.5298374,1.12776475,15.15127425,9e-08,0.0,0.0,0.0,9e-08,0.0,0.0,0.0,9e-08
1536701900877696916,2068,1536701900877221632,base_link,0.156895709119,-0.267496800268,-0.666043412585,0.678391753237,1.0,0.0,0.0,0.0,1.0,0.0,0.0,0.0,1.0,-0.544368386269,-0.138616397977,-0.26896572113,1.21846967915e-07,0.0,0.0,0.0,1.21846967915e-07,0.0,0.0,0.0,1.21846967915e-07,1.52003075,1.38273765,14.19022255,9e-08,0.0,0.0,0.0,9e-08,0.0,0.0,0.0,9e-08
1536701901268538279,2069,1536701901268222287,base_link,0.0703183005478,-0.210193544302,-0.726866462956,0.650030118972,1.0,0.0,0.0,0.0,1.0,0.0,0.0,0.0,1.0,-0.454082548618,-0.123179405928,-0.136598065495,1.21846967915e-07,0.0,0.0,0.0,1.21846967915e-07,0.0,0.0,0.0,1.21846967915e-07,0.7453054,0.61781895,12.748645,9e-08,0.0,0.0,0.0,9e-08,0.0,0.0,0.0,9e-08
1536701901764136966,2070,1536701901763090170,base_link,-0.021093320523,-0.11800410195,-0.763961594237,0.6340290106,1.0,0.0,0.0,0.0,1.0,0.0,0.0,0.0,1.0,-0.566621363163,0.11585830152,-0.116143010557,1.21846967915e-07,0.0,0.0,0.0,1.21846967915e-07,0.0,0.0,0.0,1.21846967915e-07,0.3334261,0.6668522,9.2378643,9e-08,0.0,0.0,0.0,9e-08,0.0,0.0,0.0,9e-08
1536701902224291632,2071,1536701902221576782,base_link,-0.0593107945152,-0.0304407287569,-0.785647893336,0.615071523795,1.0,0.0,0.0,0.0,1.0,0.0,0.0,0.0,1.0,-0.297987163067,0.0928692594171,-0.0446349382401,1.21846967915e-07,0.0,0.0,0.0,1.21846967915e-07,0.0,0.0,0.0,1.21846967915e-07,0.16671305,0.36284605,8.05125965,9e-08,0.0,0.0,0.0,9e-08,0.0,0.0,0.0,9e-08
1536701902613086141,2072,1536701902612237564,base_link,-0.0722269027508,0.0149764305898,-0.779679180262,0.621819392518,1.0,0.0,0.0,0.0,1.0,0.0,0.0,0.0,1.0,-0.141364857554,0.100950308144,0.144503369927,1.21846967915e-07,0.0,0.0,0.0,1.21846967915e-07,0.0,0.0,0.0,1.21846967915e-07,0.2353596,0.24516625,8.52197885,9e-08,0.0,0.0,0.0,9e-08,0.0,0.0,0.0,9e-08
1536701903083575721,2073,1536701903082946780,base_link,-0.0543228369442,0.0410974043214,-0.764879286541,0.640562026477,1.0,0.0,0.0,0.0,1.0,0.0,0.0,0.0,1.0,0.0733918175101,0.154781937599,0.0841963887215,1.21846967915e-07,0.0,0.0,0.0,1.21846967915e-07,0.0,0.0,0.0,1.21846967915e-07,0.02941995,0.38245935,7.95319315,9e-08,0.0,0.0,0.0,9e-08,0.0,0.0,0.0,9e-08
1536701903396515799,2074,1536701903396187835,base_link,-0.0227483175816,0.041616074601,-0.757842848962,0.650711020852,1.0,0.0,0.0,0.0,1.0,0.0,0.0,0.0,1.0,0.142997279763,0.113179087639,0.0997294411063,1.21846967915e-07,0.0,0.0,0.0,1.21846967915e-07,0.0,0.0,0.0,1.21846967915e-07,-0.0392266,0.10787315,7.61976705,9e-08,0.0,0.0,0.0,9e-08,0.0,0.0,0.0,9e-08
1536701903803659580,2075,1536701903803366061,base_link,0.0110532047198,0.0488851420263,-0.740608812816,0.670064665486,1.0,0.0,0.0,0.0,1.0,0.0,0.0,0.0,1.0,-0.0763393566012,0.149255484343,0.101704180241,1.21846967915e-07,0.0,0.0,0.0,1.21846967915e-07,0.0,0.0,0.0,1.21846967915e-07,0.0,0.51975245,7.67860695,9e-08,0.0,0.0,0.0,9e-08,0.0,0.0,0.0,9e-08
1536701904286829153,2076,1536701904283941533,base_link,0.0215017090864,0.0713153227456,-0.726334876036,0.683293091654,1.0,0.0,0.0,0.0,1.0,0.0,0.0,0.0,1.0,-0.0254346728325,0.0185105632991,0.0613833107054,1.21846967915e-07,0.0,0.0,0.0,1.21846967915e-07,0.0,0.0,0.0,1.21846967915e-07,0.04903325,0.36284605,7.9629998,9e-08,0.0,0.0,0.0,9e-08,0.0,0.0,0.0,9e-08
1536701904699916652,2077,1536701904699490539,base_link,0.0178927240752,0.0719384426221,-0.719399002316,0.690629992373,1.0,0.0,0.0,0.0,1.0,0.0,0.0,0.0,1.0,0.016119806096,-0.10521928966,0.0506278052926,1.21846967915e-07,0.0,0.0,0.0,1.21846967915e-07,0.0,0.0,0.0,1.21846967915e-07,0.08825985,0.34323275,9.91452315,9e-08,0.0,0.0,0.0,9e-08,0.0,0.0,0.0,9e-08
1536701905101050001,2078,1536701905100739132,base_link,0.00269956882274,0.0531645477885,-0.711615739717,0.700549271767,1.0,0.0,0.0,0.0,1.0,0.0,0.0,0.0,1.0,0.0717322826385,-0.0667950809002,0.0502194426954,1.21846967915e-07,0.0,0.0,0.0,1.21846967915e-07,0.0,0.0,0.0,1.21846967915e-07,0.3334261,0.5295591,12.15043935,9e-08,0.0,0.0,0.0,9e-08,0.0,0.0,0.0,9e-08
1536701905502830091,2079,1536701905502169201,base_link,0.00437104894779,-0.0334024387175,0.702459142095,-0.710926384871,1.0,0.0,0.0,0.0,1.0,0.0,0.0,0.0,1.0,0.0452843979001,-0.122554518282,0.0400122441351,1.21846967915e-07,0.0,0.0,0.0,1.21846967915e-07,0.0,0.0,0.0,1.21846967915e-07,0.3138128,0.5099458,12.36618565,9e-08,0.0,0.0,0.0,9e-08,0.0,0.0,0.0,9e-08
1536701905806375833,2080,1536701905805139302,base_link,0.0125808186794,-0.0165632858062,0.698392284074,-0.715412886458,1.0,0.0,0.0,0.0,1.0,0.0,0.0,0.0,1.0,0.0523606985807,-0.105142146349,0.0267207957804,1.21846967915e-07,0.0,0.0,0.0,1.21846967915e-07,0.0,0.0,0.0,1.21846967915e-07,0.2941995,0.28439285,11.8072066,9e-08,0.0,0.0,0.0,9e-08,0.0,0.0,0.0,9e-08
1536701906127221907,2081,1536701906126879890,base_link,0.0126232815212,-0.00516055689198,0.694052497222,-0.719795215681,1.0,0.0,0.0,0.0,1.0,0.0,0.0,0.0,1.0,0.0706248953938,0.0549513585865,0.0472330674529,1.21846967915e-07,0.0,0.0,0.0,1.21846967915e-07,0.0,0.0,0.0,1.21846967915e-07,0.3530394,0.30400615,11.76798,9e-08,0.0,0.0,0.0,9e-08,0.0,0.0,0.0,9e-08
1536701906601671737,2082,1536701906601132269,base_link,0.0064416086703,-0.00756649611174,0.689350698745,-0.724359626121,1.0,0.0,0.0,0.0,1.0,0.0,0.0,0.0,1.0,0.0475171580911,-0.00248077046126,0.0102335447446,1.21846967915e-07,0.0,0.0,0.0,1.21846967915e-07,0.0,0.0,0.0,1.21846967915e-07,0.0980665,0.14709975,8.99269805,9e-08,0.0,0.0,0.0,9e-08,0.0,0.0,0.0,9e-08
1536701906919777319,2083,1536701906919462992,base_link,0.00377013335565,0.000590243033611,0.684346441857,-0.729147025794,1.0,0.0,0.0,0.0,1.0,0.0,0.0,0.0,1.0,0.0942226350307,-0.0621439255774,0.0321795158088,1.21846967915e-07,0.0,0.0,0.0,1.21846967915e-07,0.0,0.0,0.0,1.21846967915e-07,0.1765197,0.2745862,9.95374975,9e-08,0.0,0.0,0.0,9e-08,0.0,0.0,0.0,9e-08
1536701907296351721,2084,1536701907286362889,base_link,0.00442551397831,0.012868319062,0.678398948758,-0.734567687497,1.0,0.0,0.0,0.0,1.0,0.0,0.0,0.0,1.0,0.0904101058841,0.0254338048398,0.0163991991431,1.21846967915e-07,0.0,0.0,0.0,1.21846967915e-07,0.0,0.0,0.0,1.21846967915e-07,0.30400615,0.0980665,10.0812362,9e-08,0.0,0.0,0.0,9e-08,0.0,0.0,0.0,9e-08
1536701907629342257,2085,1536701907628950429,base_link,-0.0128375782813,0.0290616198991,0.675357831326,-0.736805549992,1.0,0.0,0.0,0.0,1.0,0.0,0.0,0.0,1.0,0.0835244357586,-0.0250681657344,-0.00893817003816,1.21846967915e-07,0.0,0.0,0.0,1.21846967915e-07,0.0,0.0,0.0,1.21846967915e-07,0.2353596,0.34323275,9.81645665,9e-08,0.0,0.0,0.0,9e-08,0.0,0.0,0.0,9e-08
1536701908068806766,2086,1536701908063458441,base_link,-0.0165262561909,0.0380373131253,0.675916589982,-0.735810307793,1.0,0.0,0.0,0.0,1.0,0.0,0.0,0.0,1.0,0.0152608621866,-0.0364832319319,-0.0125164855272,1.21846967915e-07,0.0,0.0,0.0,1.21846967915e-07,0.0,0.0,0.0,1.21846967915e-07,0.26477955,0.32361945,9.87529655,9e-08,0.0,0.0,0.0,9e-08,0.0,0.0,0.0,9e-08
1536701908310616022,2087,1536701908310321222,base_link,-0.0187935254867,0.0350785804529,0.679149044265,-0.732920781713,1.0,0.0,0.0,0.0,1.0,0.0,0.0,0.0,1.0,-0.00120346806943,0.108126044273,-0.0676982626319,1.21846967915e-07,0.0,0.0,0.0,1.21846967915e-07,0.0,0.0,0.0,1.21846967915e-07,0.22555295,0.32361945,10.36562905,9e-08,0.0,0.0,0.0,9e-08,0.0,0.0,0.0,9e-08
1536701908712345756,2088,1536701908705617549,base_link,-0.0415129726183,0.0347095975373,0.689292078157,-0.722459928255,1.0,0.0,0.0,0.0,1.0,0.0,0.0,0.0,1.0,0.157803937793,0.0847139805555,-0.0686661452055,1.21846967915e-07,0.0,0.0,0.0,1.21846967915e-07,0.0,0.0,0.0,1.21846967915e-07,0.2353596,0.0980665,8.6886919,9e-08,0.0,0.0,0.0,9e-08,0.0,0.0,0.0,9e-08
1536701909028128220,2089,1536701909027741034,base_link,-0.0632297465513,0.0450142344197,0.695205984325,-0.714607834556,1.0,0.0,0.0,0.0,1.0,0.0,0.0,0.0,1.0,0.123085007071,0.0351755693555,-0.0640000626445,1.21846967915e-07,0.0,0.0,0.0,1.21846967915e-07,0.0,0.0,0.0,1.21846967915e-07,0.2157463,0.08825985,9.5712904,9e-08,0.0,0.0,0.0,9e-08,0.0,0.0,0.0,9e-08
1536701909390607759,2090,1536701909390222141,base_link,-0.0787509679178,0.0605761882651,0.703719726152,-0.703496522729,1.0,0.0,0.0,0.0,1.0,0.0,0.0,0.0,1.0,0.18580070138,-0.0334240533412,-0.0866096839309,1.21846967915e-07,0.0,0.0,0.0,1.21846967915e-07,0.0,0.0,0.0,1.21846967915e-07,0.26477955,0.04903325,10.01258965,9e-08,0.0,0.0,0.0,9e-08,0.0,0.0,0.0,9e-08
1536701909795837952,2091,1536701909795568378,base_link,0.104649134191,-0.0899652246092,-0.71094636879,0.689572387628,1.0,0.0,0.0,0.0,1.0,0.0,0.0,0.0,1.0,0.12754496932,-0.133092343807,-0.0703188851476,1.21846967915e-07,0.0,0.0,0.0,1.21846967915e-07,0.0,0.0,0.0,1.21846967915e-07,0.30400615,0.1176798,10.002783,9e-08,0.0,0.0,0.0,9e-08,0.0,0.0,0.0,9e-08
1536701910126138480,2092,1536701910125858374,base_link,0.112534894036,-0.117459121093,-0.723095057987,0.671321673724,1.0,0.0,0.0,0.0,1.0,0.0,0.0,0.0,1.0,0.199745371938,-0.151048928499,-0.159645274282,1.21846967915e-07,0.0,0.0,0.0,1.21846967915e-07,0.0,0.0,0.0,1.21846967915e-07,0.38245935,0.2745862,10.40485565,9e-08,0.0,0.0,0.0,9e-08,0.0,0.0,0.0,9e-08
1536701910624879827,2093,1536701910624536945,base_link,0.106854410414,-0.144359663757,-0.757922524176,0.627133055899,1.0,0.0,0.0,0.0,1.0,0.0,0.0,0.0,1.0,0.116960324347,-0.0516465865076,-0.258402198553,1.21846967915e-07,0.0,0.0,0.0,1.21846967915e-07,0.0,0.0,0.0,1.21846967915e-07,0.5295591,0.36284605,11.89546645,9e-08,0.0,0.0,0.0,9e-08,0.0,0.0,0.0,9e-08
1536701911018330112,2094,1536701911017687309,base_link,0.107166464721,-0.173460829647,-0.7863969684,0.583100761026,1.0,0.0,0.0,0.0,1.0,0.0,0.0,0.0,1.0,0.107626199722,-0.102014526725,-0.204840302467,1.21846967915e-07,0.0,0.0,0.0,1.21846967915e-07,0.0,0.0,0.0,1.21846967915e-07,0.6472389,0.1372931,11.97391965,9e-08,0.0,0.0,0.0,9e-08,0.0,0.0,0.0,9e-08
1536701911355643626,2095,1536701911354510270,base_link,0.10709557173,-0.198052250322,-0.801282077491,0.554303957184,1.0,0.0,0.0,0.0,1.0,0.0,0.0,0.0,1.0,0.138218984008,-0.157242298126,-0.165557235479,1.21846967915e-07,0.0,0.0,0.0,1.21846967915e-07,0.0,0.0,0.0,1.21846967915e-07,0.6276256,0.14709975,11.66010685,9e-08,0.0,0.0,0.0,9e-08,0.0,0.0,0.0,9e-08
1536701911793233155,2096,1536701911792973280,base_link,0.114020840375,-0.226588220335,-0.820369233195,0.512495217141,1.0,0.0,0.0,0.0,1.0,0.0,0.0,0.0,1.0,0.0913291051984,-0.134864166379,-0.227555200458,1.21846967915e-07,0.0,0.0,0.0,1.21846967915e-07,0.0,0.0,0.0,1.21846967915e-07,0.53936575,0.392266,9.87529655,9e-08,0.0,0.0,0.0,9e-08,0.0,0.0,0.0,9e-08
1536701912115018368,2097,1536701912114597376,base_link,0.10581192615,-0.238884225136,-0.841596951937,0.472707873591,1.0,0.0,0.0,0.0,1.0,0.0,0.0,0.0,1.0,0.053016602993,-0.0966993942857,-0.290195316076,1.21846967915e-07,0.0,0.0,0.0,1.21846967915e-07,0.0,0.0,0.0,1.21846967915e-07,0.6864655,0.6864655,10.9246081,9e-08,0.0,0.0,0.0,9e-08,0.0,0.0,0.0,9e-08
1536701912406895668,2098,1536701912406456142,base_link,0.115169694096,-0.243928301506,-0.861443241837,0.430291141414,1.0,0.0,0.0,0.0,1.0,0.0,0.0,0.0,1.0,0.0758218243718,-0.0608915612102,-0.335218757391,1.21846967915e-07,0.0,0.0,0.0,1.21846967915e-07,0.0,0.0,0.0,1.21846967915e-07,0.59820565,0.3138128,9.62032365,9e-08,0.0,0.0,0.0,9e-08,0.0,0.0,0.0,9e-08
1536701912917581722,2099,1536701912916255076,base_link,0.101420862329,-0.278522952535,-0.888969990703,0.349100457211,1.0,0.0,0.0,0.0,1.0,0.0,0.0,0.0,1.0,0.0600823685527,-0.215121731162,-0.2536277771,1.21846967915e-07,0.0,0.0,0.0,1.21846967915e-07,0.0,0.0,0.0,1.21846967915e-07,0.81395195,0.4314926,11.38552065,9e-08,0.0,0.0,0.0,9e-08,0.0,0.0,0.0,9e-08
1536701913301650861,2100,1536701913299032271,base_link,0.0850393911146,-0.288408550612,-0.910277607843,0.284575976766,1.0,0.0,0.0,0.0,1.0,0.0,0.0,0.0,1.0,0.0555145964026,-0.19218274951,-0.360376358032,1.21846967915e-07,0.0,0.0,0.0,1.21846967915e-07,0.0,0.0,0.0,1.21846967915e-07,0.9218251,0.55897905,11.1011278,9e-08,0.0,0.0,0.0,9e-08,0.0,0.0,0.0,9e-08
1536701913743681684,2101,1536701913743230922,base_link,0.0574338364543,-0.31813886768,-0.926657683545,0.191819062733,1.0,0.0,0.0,0.0,1.0,0.0,0.0,0.0,1.0,0.128580659628,-0.261422395706,-0.323035478592,1.21846967915e-07,0.0,0.0,0.0,1.21846967915e-07,0.0,0.0,0.0,1.21846967915e-07,1.0198916,0.4314926,12.24850585,9e-08,0.0,0.0,0.0,9e-08,0.0,0.0,0.0,9e-08
1536701914109230063,2102,1536701914108846014,base_link,0.032870636342,-0.341464994241,-0.931556789052,0.12051194026,1.0,0.0,0.0,0.0,1.0,0.0,0.0,0.0,1.0,0.0893333703279,-0.234217897058,-0.353889375925,1.21846967915e-07,0.0,0.0,0.0,1.21846967915e-07,0.0,0.0,0.0,1.21846967915e-07,1.1571847,0.7453054,12.15043935,9e-08,0.0,0.0,0.0,9e-08,0.0,0.0,0.0,9e-08
1536701914584281944,2103,1536701914584005967,base_link,0.00436730256575,-0.362671115698,-0.931858981511,0.00945658945389,1.0,0.0,0.0,0.0,1.0,0.0,0.0,0.0,1.0,0.0902459546924,-0.35728508234,-0.382126659155,1.21846967915e-07,0.0,0.0,0.0,1.21846967915e-07,0.0,0.0,0.0,1.21846967915e-07,1.22583125,0.71588545,11.99353295,9e-08,0.0,0.0,0.0,9e-08,0.0,0.0,0.0,9e-08
1536701914957645436,2104,1536701914957265420,base_link,-0.0552107288531,-0.374174419565,-0.921814964024,-0.0848672567268,1.0,0.0,0.0,0.0,1.0,0.0,0.0,0.0,1.0,0.0409169718623,-0.482658058405,-0.305403888226,1.21846967915e-07,0.0,0.0,0.0,1.21846967915e-07,0.0,0.0,0.0,1.21846967915e-07,1.6475172,0.8433719,14.3961622,9e-08,0.0,0.0,0.0,9e-08,0.0,0.0,0.0,9e-08
1536701915347079675,2105,1536701915346721940,base_link,-0.119950524915,-0.367480938758,-0.906578705883,-0.169365525599,1.0,0.0,0.0,0.0,1.0,0.0,0.0,0.0,1.0,-0.0415312722325,-0.389135569334,-0.262306630611,1.21846967915e-07,0.0,0.0,0.0,1.21846967915e-07,0.0,0.0,0.0,1.21846967915e-07,1.8044236,1.14737805,14.7884282,9e-08,0.0,0.0,0.0,9e-08,0.0,0.0,0.0,9e-08
1536701915728193009,2106,1536701915726414128,base_link,-0.160037612016,-0.355439760848,-0.89034592777,-0.235233220554,1.0,0.0,0.0,0.0,1.0,0.0,0.0,0.0,1.0,-0.0659453198314,-0.244248062372,-0.201277196407,1.21846967915e-07,0.0,0.0,0.0,1.21846967915e-07,0.0,0.0,0.0,1.21846967915e-07,1.6082906,1.4317709,13.6900834,9e-08,0.0,0.0,0.0,9e-08,0.0,0.0,0.0,9e-08
1536701916063706899,2107,1536701916063318528,base_link,-0.175588073324,-0.343401814745,-0.876568274404,-0.287875116057,1.0,0.0,0.0,0.0,1.0,0.0,0.0,0.0,1.0,-0.165712669492,-0.205995067954,-0.248217001557,1.21846967915e-07,0.0,0.0,0.0,1.21846967915e-07,0.0,0.0,0.0,1.21846967915e-07,1.38273765,1.7063571,11.03248125,9e-08,0.0,0.0,0.0,9e-08,0.0,0.0,0.0,9e-08
1536701916474173023,2108,1536701916473771880,base_link,-0.180675595414,-0.310565539932,-0.867032976169,-0.345194427626,1.0,0.0,0.0,0.0,1.0,0.0,0.0,0.0,1.0,-0.212395787239,-0.227014601231,-0.130730971694,1.21846967915e-07,0.0,0.0,0.0,1.21846967915e-07,0.0,0.0,0.0,1.21846967915e-07,1.32389775,1.93191005,11.69933345,9e-08,0.0,0.0,0.0,9e-08,0.0,0.0,0.0,9e-08
1536701916784982696,2109,1536701916784739180,base_link,-0.176414067806,-0.283109042948,-0.861916453885,-0.381873503928,1.0,0.0,0.0,0.0,1.0,0.0,0.0,0.0,1.0,-0.149230062962,-0.0316829010844,-0.251402646303,1.21846967915e-07,0.0,0.0,0.0,1.21846967915e-07,0.0,0.0,0.0,1.21846967915e-07,1.08853815,2.3143694,9.67916355,9e-08,0.0,0.0,0.0,9e-08,0.0,0.0,0.0,9e-08
1536701917199056200,2110,1536701917198715687,base_link,-0.151898697966,-0.244395196312,-0.846164699741,-0.448556656943,1.0,0.0,0.0,0.0,1.0,0.0,0.0,0.0,1.0,-0.189804643393,0.0517819784582,-0.32038667798,1.21846967915e-07,0.0,0.0,0.0,1.21846967915e-07,0.0,0.0,0.0,1.21846967915e-07,1.12776475,2.0593965,10.60098865,9e-08,0.0,0.0,0.0,9e-08,0.0,0.0,0.0,9e-08
1536701917682743537,2111,1536701917682428442,base_link,-0.147497474439,-0.199353216793,-0.829088357069,-0.501114045064,1.0,0.0,0.0,0.0,1.0,0.0,0.0,0.0,1.0,-0.246557205915,-0.147941321135,-0.0737707540393,1.21846967915e-07,0.0,0.0,0.0,1.21846967915e-07,0.0,0.0,0.0,1.21846967915e-07,0.89240515,1.9809433,11.79739995,9e-08,0.0,0.0,0.0,9e-08,0.0,0.0,0.0,9e-08
1536701917970268728,2112,1536701917969937979,base_link,-0.13877615374,-0.170949699985,-0.825837652688,-0.519143092635,1.0,0.0,0.0,0.0,1.0,0.0,0.0,0.0,1.0,-0.265742838383,-0.0875593721867,-0.122205652297,1.21846967915e-07,0.0,0.0,0.0,1.21846967915e-07,0.0,0.0,0.0,1.21846967915e-07,0.83356525,2.0986231,10.79712165,9e-08,0.0,0.0,0.0,9e-08,0.0,0.0,0.0,9e-08
1536701918305613498,2113,1536701918303365064,base_link,-0.128836783618,-0.126776679062,-0.814481342233,-0.551315608328,1.0,0.0,0.0,0.0,1.0,0.0,0.0,0.0,1.0,-0.291510403156,-0.0861491858959,-0.179820388556,1.21846967915e-07,0.0,0.0,0.0,1.21846967915e-07,0.0,0.0,0.0,1.21846967915e-07,0.73549875,1.89268345,11.99353295,9e-08,0.0,0.0,0.0,9e-08,0.0,0.0,0.0,9e-08
1536701918705825699,2114,1536701918705539447,base_link,-0.109809277726,-0.0924723285713,-0.802325581443,-0.579365560192,1.0,0.0,0.0,0.0,1.0,0.0,0.0,0.0,1.0,-0.235882639885,-0.0711262151599,-0.0958133116364,1.21846967915e-07,0.0,0.0,0.0,1.21846967915e-07,0.0,0.0,0.0,1.21846967915e-07,0.46091255,1.569064,10.3165958,9e-08,0.0,0.0,0.0,9e-08,0.0,0.0,0.0,9e-08
1536701919195457907,2115,1536701919193081328,base_link,-0.0729025124031,-0.0243820675328,-0.796398629452,-0.599866619738,1.0,0.0,0.0,0.0,1.0,0.0,0.0,0.0,1.0,-0.316652446985,-0.0503371246159,-0.0279206354171,1.21846967915e-07,0.0,0.0,0.0,1.21846967915e-07,0.0,0.0,0.0,1.21846967915e-07,0.2941995,1.42196425,11.38552065,9e-08,0.0,0.0,0.0,9e-08,0.0,0.0,0.0,9e-08
1536701919429313468,2116,1536701919429065950,base_link,-0.053364598785,-0.000708014653053,-0.796588739024,-0.602161190357,1.0,0.0,0.0,0.0,1.0,0.0,0.0,0.0,1.0,-0.205551549792,-0.000104300677776,0.00292730750516,1.21846967915e-07,0.0,0.0,0.0,1.21846967915e-07,0.0,0.0,0.0,1.21846967915e-07,0.18632635,1.55925735,10.18910935,9e-08,0.0,0.0,0.0,9e-08,0.0,0.0,0.0,9e-08
1536701919899453988,2117,1536701919899138829,base_link,-0.0282930807829,0.0213948741544,-0.801167140914,-0.597388460935,1.0,0.0,0.0,0.0,1.0,0.0,0.0,0.0,1.0,0.101671651006,-0.0436160191894,0.0718596503139,1.21846967915e-07,0.0,0.0,0.0,1.21846967915e-07,0.0,0.0,0.0,1.21846967915e-07,0.1372931,1.18660465,9.83606995,9e-08,0.0,0.0,0.0,9e-08,0.0,0.0,0.0,9e-08
1536701920283837742,2118,1536701920283589104,base_link,-0.0360122529065,0.0261220148056,-0.815003754893,-0.577745305038,1.0,0.0,0.0,0.0,1.0,0.0,0.0,0.0,1.0,-0.119690053165,-0.000712256412953,0.134128585458,1.21846967915e-07,0.0,0.0,0.0,1.21846967915e-07,0.0,0.0,0.0,1.21846967915e-07,0.34323275,1.3337044,9.36535075,9e-08,0.0,0.0,0.0,9e-08,0.0,0.0,0.0,9e-08
1536701920607709504,2119,1536701920607178903,base_link,-0.0161199056031,0.0417779624387,-0.824405099433,-0.564226003058,1.0,0.0,0.0,0.0,1.0,0.0,0.0,0.0,1.0,-0.0951806083322,0.089042916894,0.108435943723,1.21846967915e-07,0.0,0.0,0.0,1.21846967915e-07,0.0,0.0,0.0,1.21846967915e-07,0.4314926,1.10815145,9.6497436,9e-08,0.0,0.0,0.0,9e-08,0.0,0.0,0.0,9e-08
1536701921065949398,2120,1536701921065725953,base_link,0.035829962034,0.0537815796246,-0.840684999893,-0.537654616336,1.0,0.0,0.0,0.0,1.0,0.0,0.0,0.0,1.0,-0.213122561574,0.134320765734,0.139960035682,1.21846967915e-07,0.0,0.0,0.0,1.21846967915e-07,0.0,0.0,0.0,1.21846967915e-07,0.2353596,1.14737805,7.77667345,9e-08,0.0,0.0,0.0,9e-08,0.0,0.0,0.0,9e-08
1536701921470744067,2121,1536701921469815076,base_link,0.0816125367715,0.0830848026813,-0.852235348773,-0.510030606637,1.0,0.0,0.0,0.0,1.0,0.0,0.0,0.0,1.0,-0.312995016575,0.106095612049,0.161291435361,1.21846967915e-07,0.0,0.0,0.0,1.21846967915e-07,0.0,0.0,0.0,1.21846967915e-07,0.26477955,1.10815145,8.09048625,9e-08,0.0,0.0,0.0,9e-08,0.0,0.0,0.0,9e-08
1536701921776477836,2122,1536701921775642065,base_link,0.102024345148,0.109031724921,-0.865084606962,-0.478885935014,1.0,0.0,0.0,0.0,1.0,0.0,0.0,0.0,1.0,-0.261972159147,-0.0588947236538,0.275219142437,1.21846967915e-07,0.0,0.0,0.0,1.21846967915e-07,0.0,0.0,0.0,1.21846967915e-07,0.30400615,0.83356525,9.14960445,9e-08,0.0,0.0,0.0,9e-08,0.0,0.0,0.0,9e-08
1536701922161708855,2123,1536701922161298011,base_link,0.114637219442,0.150283849273,-0.888509051962,-0.418120481616,1.0,0.0,0.0,0.0,1.0,0.0,0.0,0.0,1.0,-0.23263309896,-0.157154783607,0.343021720648,1.21846967915e-07,0.0,0.0,0.0,1.21846967915e-07,0.0,0.0,0.0,1.21846967915e-07,0.59820565,0.9218251,10.99325465,9e-08,0.0,0.0,0.0,9e-08,0.0,0.0,0.0,9e-08
1536701922599385232,2124,1536701922598987962,base_link,0.113068173277,0.213544162604,-0.913554762978,-0.327157720143,1.0,0.0,0.0,0.0,1.0,0.0,0.0,0.0,1.0,-0.236608952284,-0.183334767818,0.349051952362,1.21846967915e-07,0.0,0.0,0.0,1.21846967915e-07,0.0,0.0,0.0,1.21846967915e-07,0.8433719,1.2944778,12.18966595,9e-08,0.0,0.0,0.0,9e-08,0.0,0.0,0.0,9e-08
1536701923064190200,2125,1536701923062645200,base_link,0.0993158448606,0.267232724473,-0.93041887996,-0.230312270071,1.0,0.0,0.0,0.0,1.0,0.0,0.0,0.0,1.0,-0.189305827022,-0.30856141448,0.37093693018,1.21846967915e-07,0.0,0.0,0.0,1.21846967915e-07,0.0,0.0,0.0,1.21846967915e-07,0.8041453,0.9218251,12.0229529,9e-08,0.0,0.0,0.0,9e-08,0.0,0.0,0.0,9e-08
1536701923426930093,2126,1536701923426601072,base_link,0.0665803062234,0.309149955295,-0.938881364331,-0.135996881129,1.0,0.0,0.0,0.0,1.0,0.0,0.0,0.0,1.0,-0.226053640246,-0.404362291098,0.460978090763,1.21846967915e-07,0.0,0.0,0.0,1.21846967915e-07,0.0,0.0,0.0,1.21846967915e-07,0.99047165,0.9022118,13.4547238,9e-08,0.0,0.0,0.0,9e-08,0.0,0.0,0.0,9e-08
1536701923821678789,2127,1536701923821318748,base_link,0.0174244581749,0.352677536046,-0.935519799006,-0.0108466351085,1.0,0.0,0.0,0.0,1.0,0.0,0.0,0.0,1.0,-0.178070425987,-0.462056547403,0.505179941654,1.21846967915e-07,0.0,0.0,0.0,1.21846967915e-07,0.0,0.0,0.0,1.21846967915e-07,1.3925443,0.9218251,14.56287525,9e-08,0.0,0.0,0.0,9e-08,0.0,0.0,0.0,9e-08
1536701924110440063,2128,1536701924110130218,base_link,-0.0237067060031,0.384734654195,-0.918829067409,0.0846781130912,1.0,0.0,0.0,0.0,1.0,0.0,0.0,0.0,1.0,-0.26713052392,-0.563945889473,0.524439334869,1.21846967915e-07,0.0,0.0,0.0,1.21846967915e-07,0.0,0.0,0.0,1.21846967915e-07,1.59848395,1.1179581,16.26923235,9e-08,0.0,0.0,0.0,9e-08,0.0,0.0,0.0,9e-08
1536701924519924216,2129,1536701924519415288,base_link,-0.107678782376,0.406791027607,-0.881048112308,0.21605685243,1.0,0.0,0.0,0.0,1.0,0.0,0.0,0.0,1.0,0.0163531675935,-0.617186248302,0.356823056936,1.21846967915e-07,0.0,0.0,0.0,1.21846967915e-07,0.0,0.0,0.0,1.21846967915e-07,2.16726965,0.9414384,17.6323567,9e-08,0.0,0.0,0.0,9e-08,0.0,0.0,0.0,9e-08
1536701924911750912,2130,1536701924911422980,base_link,-0.197431021059,0.389924645248,-0.83894684777,0.324265245699,1.0,0.0,0.0,0.0,1.0,0.0,0.0,0.0,1.0,-0.1090958938,-0.741932570934,0.311727911234,1.21846967915e-07,0.0,0.0,0.0,1.21846967915e-07,0.0,0.0,0.0,1.21846967915e-07,2.52030905,0.46091255,17.95597615,9e-08,0.0,0.0,0.0,9e-08,0.0,0.0,0.0,9e-08
1536701925418189280,2131,1536701925417837819,base_link,-0.301298119431,0.34290082287,-0.761330929319,0.460449438012,1.0,0.0,0.0,0.0,1.0,0.0,0.0,0.0,1.0,-0.018427984789,-0.579567372799,0.361340045929,1.21846967915e-07,0.0,0.0,0.0,1.21846967915e-07,0.0,0.0,0.0,1.21846967915e-07,2.2947561,-0.75511205,17.1224109,9e-08,0.0,0.0,0.0,9e-08,0.0,0.0,0.0,9e-08
1536701925781809602,2132,1536701925780733899,base_link,-0.357822741311,0.292766392943,-0.699308615618,0.545177205216,1.0,0.0,0.0,0.0,1.0,0.0,0.0,0.0,1.0,0.229734256864,-0.653113603592,0.293448001146,1.21846967915e-07,0.0,0.0,0.0,1.21846967915e-07,0.0,0.0,0.0,1.21846967915e-07,2.1378497,-1.0002783,17.3969971,9e-08,0.0,0.0,0.0,9e-08,0.0,0.0,0.0,9e-08
1536701926126356826,2133,1536701926126006358,base_link,0.403827402311,-0.227445967595,0.630802145621,-0.622318579224,1.0,0.0,0.0,0.0,1.0,0.0,0.0,0.0,1.0,0.188396140933,-0.631062746048,0.244564905763,1.21846967915e-07,0.0,0.0,0.0,1.21846967915e-07,0.0,0.0,0.0,1.21846967915e-07,2.20649625,-0.9022118,17.32835055,9e-08,0.0,0.0,0.0,9e-08,0.0,0.0,0.0,9e-08
1536701926578223976,2134,1536701926577884807,base_link,0.437883779951,-0.136456854398,0.539047376496,-0.706445502524,1.0,0.0,0.0,0.0,1.0,0.0,0.0,0.0,1.0,0.378144979477,-0.44115999341,0.286808550358,1.21846967915e-07,0.0,0.0,0.0,1.21846967915e-07,0.0,0.0,0.0,1.21846967915e-07,2.2359162,-1.36312435,15.79851315,9e-08,0.0,0.0,0.0,9e-08,0.0,0.0,0.0,9e-08
1536701926961972033,2135,1536701926961298659,base_link,0.412675137045,-0.0580803613347,0.462271985708,-0.782707170097,1.0,0.0,0.0,0.0,1.0,0.0,0.0,0.0,1.0,0.327915996313,-0.384924024343,0.367731124163,1.21846967915e-07,0.0,0.0,0.0,1.21846967915e-07,0.0,0.0,0.0,1.21846967915e-07,2.353596,-1.1375714,15.81812645,9e-08,0.0,0.0,0.0,9e-08,0.0,0.0,0.0,9e-08
1536701927396032100,2136,1536701927395536873,base_link,0.369092539007,0.00895903941618,0.385752346292,-0.845509054116,1.0,0.0,0.0,0.0,1.0,0.0,0.0,0.0,1.0,0.401631623507,-0.278583526611,0.246967002749,1.21846967915e-07,0.0,0.0,0.0,1.21846967915e-07,0.0,0.0,0.0,1.21846967915e-07,1.5494507,-0.95124505,13.44491715,9e-08,0.0,0.0,0.0,9e-08,0.0,0.0,0.0,9e-08
1536701927797760938,2137,1536701927797291897,base_link,0.346985536598,0.0530954040988,0.331761460258,-0.875623348788,1.0,0.0,0.0,0.0,1.0,0.0,0.0,0.0,1.0,0.168889507651,-0.120225764811,0.204839035869,1.21846967915e-07,0.0,0.0,0.0,1.21846967915e-07,0.0,0.0,0.0,1.21846967915e-07,1.06892485,-1.14737805,11.56204035,9e-08,0.0,0.0,0.0,9e-08,0.0,0.0,0.0,9e-08
1536701927996247226,2138,1536701927994017872,base_link,0.327970732497,0.0555507052719,0.308070213489,-0.891314793622,1.0,0.0,0.0,0.0,1.0,0.0,0.0,0.0,1.0,0.246742129326,0.041143476963,0.235752061009,1.21846967915e-07,0.0,0.0,0.0,1.21846967915e-07,0.0,0.0,0.0,1.21846967915e-07,0.6864655,-1.0787315,8.46313895,9e-08,0.0,0.0,0.0,9e-08,0.0,0.0,0.0,9e-08
1536701928460704318,2139,1536701928458531369,base_link,0.268997609858,0.0484599875927,0.259935040041,-0.926134812245,1.0,0.0,0.0,0.0,1.0,0.0,0.0,0.0,1.0,0.339303553104,0.172635853291,0.248607367277,1.21846967915e-07,0.0,0.0,0.0,1.21846967915e-07,0.0,0.0,0.0,1.21846967915e-07,0.5099458,-0.980665,7.8649333,9e-08,0.0,0.0,0.0,9e-08,0.0,0.0,0.0,9e-08
1536701928790967872,2140,1536701928790678482,base_link,0.219709504015,0.0264949659297,0.221874372634,-0.949630198232,1.0,0.0,0.0,0.0,1.0,0.0,0.0,0.0,1.0,0.2792352736,0.131543025374,0.293968439102,1.21846967915e-07,0.0,0.0,0.0,1.21846967915e-07,0.0,0.0,0.0,1.21846967915e-07,0.36284605,-0.97085835,7.3353742,9e-08,0.0,0.0,0.0,9e-08,0.0,0.0,0.0,9e-08
1536701929088277433,2141,1536701929088008692,base_link,0.17682269868,0.00268625529712,0.185763331633,-0.96654979276,1.0,0.0,0.0,0.0,1.0,0.0,0.0,0.0,1.0,0.239232555032,0.119153231382,0.242862552404,1.21846967915e-07,0.0,0.0,0.0,1.21846967915e-07,0.0,0.0,0.0,1.21846967915e-07,0.2745862,-0.48052585,7.1196279,9e-08,0.0,0.0,0.0,9e-08,0.0,0.0,0.0,9e-08
1536701929452189161,2142,1536701929450978144,base_link,0.128834314979,-0.00175999808386,0.159553547419,-0.978744750789,1.0,0.0,0.0,0.0,1.0,0.0,0.0,0.0,1.0,0.243627861142,0.0519006289542,0.118687473238,1.21846967915e-07,0.0,0.0,0.0,1.21846967915e-07,0.0,0.0,0.0,1.21846967915e-07,0.38245935,-0.4314926,9.0417313,9e-08,0.0,0.0,0.0,9e-08,0.0,0.0,0.0,9e-08
1536701929810160052,2143,1536701929809253053,base_link,0.0752750682104,-0.0156080799253,0.149336380923,-0.985793435401,1.0,0.0,0.0,0.0,1.0,0.0,0.0,0.0,1.0,0.288727074862,0.0951070412993,0.0577696748078,1.21846967915e-07,0.0,0.0,0.0,1.21846967915e-07,0.0,0.0,0.0,1.21846967915e-07,0.28439285,-0.5099458,7.99241975,9e-08,0.0,0.0,0.0,9e-08,0.0,0.0,0.0,9e-08
1536701930127795600,2144,1536701930127544529,base_link,0.0314005624365,-0.0199358585744,0.140702756935,-0.989352970589,1.0,0.0,0.0,0.0,1.0,0.0,0.0,0.0,1.0,0.231101125479,0.00594937894493,0.0572164878249,1.21846967915e-07,0.0,0.0,0.0,1.21846967915e-07,0.0,0.0,0.0,1.21846967915e-07,0.3138128,-0.42168595,9.3947707,9e-08,0.0,0.0,0.0,9e-08,0.0,0.0,0.0,9e-08
1536701930602985485,2145,1536701930602087962,base_link,-0.0201599075401,-0.0103008250466,0.133399568189,-0.990803727455,1.0,0.0,0.0,0.0,1.0,0.0,0.0,0.0,1.0,0.215171724558,0.00730289472267,-0.00568255735561,1.21846967915e-07,0.0,0.0,0.0,1.21846967915e-07,0.0,0.0,0.0,1.21846967915e-07,0.46091255,-0.30400615,10.01258965,9e-08,0.0,0.0,0.0,9e-08,0.0,0.0,0.0,9e-08
1536701930922068909,2146,1536701930921585462,base_link,-0.0565453770832,0.0030078888954,0.135482786404,-0.989160243602,1.0,0.0,0.0,0.0,1.0,0.0,0.0,0.0,1.0,0.296638578176,-0.0726168453693,-0.00622186250985,1.21846967915e-07,0.0,0.0,0.0,1.21846967915e-07,0.0,0.0,0.0,1.21846967915e-07,0.42168595,-0.28439285,11.0619012,9e-08,0.0,0.0,0.0,9e-08,0.0,0.0,0.0,9e-08
1536701931230373250,2147,1536701931229936445,base_link,-0.0884780469813,0.0119463411528,0.143642294221,-0.985594141341,1.0,0.0,0.0,0.0,1.0,0.0,0.0,0.0,1.0,0.188402399421,-0.00723625114188,-0.123013548553,1.21846967915e-07,0.0,0.0,0.0,1.21846967915e-07,0.0,0.0,0.0,1.21846967915e-07,0.5295591,0.04903325,11.64049355,9e-08,0.0,0.0,0.0,9e-08,0.0,0.0,0.0,9e-08
1536701931638361638,2148,1536701931638125581,base_link,-0.115803589116,0.0178756810504,0.182695927463,-0.976161967536,1.0,0.0,0.0,0.0,1.0,0.0,0.0,0.0,1.0,0.0917573571205,-0.0975011363626,-0.211912542582,1.21846967915e-07,0.0,0.0,0.0,1.21846967915e-07,0.0,0.0,0.0,1.21846967915e-07,0.51975245,-0.20593965,10.67944185,9e-08,0.0,0.0,0.0,9e-08,0.0,0.0,0.0,9e-08
1536701932188146342,2149,1536701932187879009,base_link,-0.152525184791,0.0275439939173,0.224085903748,-0.962165736318,1.0,0.0,0.0,0.0,1.0,0.0,0.0,0.0,1.0,0.199178293347,-0.0417952500284,-0.196374982595,1.21846967915e-07,0.0,0.0,0.0,1.21846967915e-07,0.0,0.0,0.0,1.21846967915e-07,0.48052585,-0.08825985,9.93413645,9e-08,0.0,0.0,0.0,9e-08,0.0,0.0,0.0,9e-08
1536701932690321051,2150,1536701932689966357,base_link,-0.203096591705,0.0419029414757,0.264652055819,-0.941782993733,1.0,0.0,0.0,0.0,1.0,0.0,0.0,0.0,1.0,0.134899064898,-0.0515664666891,-0.188979119062,1.21846967915e-07,0.0,0.0,0.0,1.21846967915e-07,0.0,0.0,0.0,1.21846967915e-07,0.5491724,0.1176798,9.73800345,9e-08,0.0,0.0,0.0,9e-08,0.0,0.0,0.0,9e-08
1536701933095869829,2151,1536701933095019044,base_link,-0.217244903965,0.0502998190105,0.312979003219,-0.923211093658,1.0,0.0,0.0,0.0,1.0,0.0,0.0,0.0,1.0,0.0774925127625,-0.0803681388497,-0.271947294474,1.21846967915e-07,0.0,0.0,0.0,1.21846967915e-07,0.0,0.0,0.0,1.21846967915e-07,0.67665885,0.2157463,10.9638347,9e-08,0.0,0.0,0.0,9e-08,0.0,0.0,0.0,9e-08
1536701933368808579,2152,1536701933368482920,base_link,-0.229161344936,0.0649487670254,0.351221169013,-0.905489053543,1.0,0.0,0.0,0.0,1.0,0.0,0.0,0.0,1.0,0.111200451851,-0.223032355309,-0.304723590612,1.21846967915e-07,0.0,0.0,0.0,1.21846967915e-07,0.0,0.0,0.0,1.21846967915e-07,0.7256921,0.30400615,11.13054775,9e-08,0.0,0.0,0.0,9e-08,0.0,0.0,0.0,9e-08
1536701933800987583,2153,1536701933799384385,base_link,-0.252023128979,0.101515020966,0.414604661046,-0.868494109374,1.0,0.0,0.0,0.0,1.0,0.0,0.0,0.0,1.0,0.0568871945143,-0.213320210576,-0.220182552934,1.21846967915e-07,0.0,0.0,0.0,1.21846967915e-07,0.0,0.0,0.0,1.21846967915e-07,0.73549875,0.04903325,11.3364874,9e-08,0.0,0.0,0.0,9e-08,0.0,0.0,0.0,9e-08
1536701934281108259,2154,1536701934280719344,base_link,-0.257586931709,0.158514146682,0.48196109545,-0.822335540024,1.0,0.0,0.0,0.0,1.0,0.0,0.0,0.0,1.0,0.115832239389,-0.27870285511,-0.325772196054,1.21846967915e-07,0.0,0.0,0.0,1.21846967915e-07,0.0,0.0,0.0,1.21846967915e-07,0.97085835,0.4118793,12.77806495,9e-08,0.0,0.0,0.0,9e-08,0.0,0.0,0.0,9e-08
1536701934675036485,2155,1536701934674717868,base_link,-0.271829586735,0.203161807975,0.549012790682,-0.763818637651,1.0,0.0,0.0,0.0,1.0,0.0,0.0,0.0,1.0,0.25018504262,-0.243686139584,-0.411016821861,1.21846967915e-07,0.0,0.0,0.0,1.21846967915e-07,0.0,0.0,0.0,1.21846967915e-07,1.0395049,0.18632635,12.30734575,9e-08,0.0,0.0,0.0,9e-08,0.0,0.0,0.0,9e-08
1536701935091386337,2156,1536701935091115451,base_link,-0.290424834831,0.265231854274,0.609481402689,-0.688358844331,1.0,0.0,0.0,0.0,1.0,0.0,0.0,0.0,1.0,0.210372045636,-0.395248949528,-0.373007833958,1.21846967915e-07,0.0,0.0,0.0,1.21846967915e-07,0.0,0.0,0.0,1.21846967915e-07,1.40235095,0.50013915,12.77806495,9e-08,0.0,0.0,0.0,9e-08,0.0,0.0,0.0,9e-08
1536701935418282122,2157,1536701935417966803,base_link,0.267411596093,-0.311156410997,-0.666234934209,0.622738900833,1.0,0.0,0.0,0.0,1.0,0.0,0.0,0.0,1.0,0.0322932526469,-0.467399090528,-0.382988154888,1.21846967915e-07,0.0,0.0,0.0,1.21846967915e-07,0.0,0.0,0.0,1.21846967915e-07,1.67693715,0.67665885,13.52337035,9e-08,0.0,0.0,0.0,9e-08,0.0,0.0,0.0,9e-08
1536701935831019313,2158,1536701935830540060,base_link,0.236066844424,-0.354783452984,-0.73322663092,0.529886642748,1.0,0.0,0.0,0.0,1.0,0.0,0.0,0.0,1.0,0.12865768373,-0.470101267099,-0.417082458735,1.21846967915e-07,0.0,0.0,0.0,1.21846967915e-07,0.0,0.0,0.0,1.21846967915e-07,1.9417167,0.6080123,14.1608026,9e-08,0.0,0.0,0.0,9e-08,0.0,0.0,0.0,9e-08
1536701936237997559,2159,1536701936237603714,base_link,0.187186146315,-0.403815324166,-0.793072281489,0.415849596525,1.0,0.0,0.0,0.0,1.0,0.0,0.0,0.0,1.0,0.0357185527682,-0.603786289692,-0.396116197109,1.21846967915e-07,0.0,0.0,0.0,1.21846967915e-07,0.0,0.0,0.0,1.21846967915e-07,2.24572285,0.53936575,14.5530686,9e-08,0.0,0.0,0.0,9e-08,0.0,0.0,0.0,9e-08
1536701936535084797,2160,1536701936534844194,base_link,0.138219163765,-0.435813287015,-0.825401069638,0.331172637563,1.0,0.0,0.0,0.0,1.0,0.0,0.0,0.0,1.0,0.0751493498683,-0.610888302326,-0.409696906805,1.21846967915e-07,0.0,0.0,0.0,1.21846967915e-07,0.0,0.0,0.0,1.21846967915e-07,2.57914895,0.89240515,16.17116585,9e-08,0.0,0.0,0.0,9e-08,0.0,0.0,0.0,9e-08
1536701936986399929,2161,1536701936985996737,base_link,0.082457567684,-0.469260111271,-0.858942291734,0.187653502424,1.0,0.0,0.0,0.0,1.0,0.0,0.0,0.0,1.0,0.0441948100924,-0.540486454964,-0.464639335871,1.21846967915e-07,0.0,0.0,0.0,1.21846967915e-07,0.0,0.0,0.0,1.21846967915e-07,2.48108245,0.8041453,14.60210185,9e-08,0.0,0.0,0.0,9e-08,0.0,0.0,0.0,9e-08
1536701937390740283,2162,1536701937390513253,base_link,0.0222024445246,-0.491997292686,-0.868951852028,0.0486661515132,1.0,0.0,0.0,0.0,1.0,0.0,0.0,0.0,1.0,0.0678585097194,-0.631401956081,-0.448378235102,1.21846967915e-07,0.0,0.0,0.0,1.21846967915e-07,0.0,0.0,0.0,1.21846967915e-07,2.2163029,0.8629852,14.6119085,9e-08,0.0,0.0,0.0,9e-08,0.0,0.0,0.0,9e-08
1536701937623910465,2163,1536701937623521326,base_link,-0.02681643827,-0.500723203186,-0.86435827508,-0.0379726840073,1.0,0.0,0.0,0.0,1.0,0.0,0.0,0.0,1.0,0.0165586546063,-0.6889513731,-0.407719731331,1.21846967915e-07,0.0,0.0,0.0,1.21846967915e-07,0.0,0.0,0.0,1.21846967915e-07,2.61837555,0.9610517,18.044236,9e-08,0.0,0.0,0.0,9e-08,0.0,0.0,0.0,9e-08
1536701938081633139,2164,1536701938079957402,base_link,-0.124568421978,-0.496261183129,-0.832813289644,-0.211257120489,1.0,0.0,0.0,0.0,1.0,0.0,0.0,0.0,1.0,-0.0426420904696,-0.749018490314,-0.425401985645,1.21846967915e-07,0.0,0.0,0.0,1.21846967915e-07,0.0,0.0,0.0,1.21846967915e-07,2.28494945,1.24544455,19.221034,9e-08,0.0,0.0,0.0,9e-08,0.0,0.0,0.0,9e-08
1536701938566171038,2165,1536701938565699403,base_link,-0.245260000668,-0.461878489527,-0.769041174197,-0.367547908951,1.0,0.0,0.0,0.0,1.0,0.0,0.0,0.0,1.0,-0.000667788088322,-0.747220814228,-0.228116109967,1.21846967915e-07,0.0,0.0,0.0,1.21846967915e-07,0.0,0.0,0.0,1.21846967915e-07,2.16726965,1.5886773,19.5544601,9e-08,0.0,0.0,0.0,9e-08,0.0,0.0,0.0,9e-08
1536701939018099618,2166,1536701939017827932,base_link,-0.325996775105,-0.395042499801,-0.718103349394,-0.471163565613,1.0,0.0,0.0,0.0,1.0,0.0,0.0,0.0,1.0,-0.361671209335,-0.58427631855,-0.223297268152,1.21846967915e-07,0.0,0.0,0.0,1.21846967915e-07,0.0,0.0,0.0,1.21846967915e-07,1.8828768,2.30456275,16.87724465,9e-08,0.0,0.0,0.0,9e-08,0.0,0.0,0.0,9e-08
1536701939303009133,2167,1536701939302487528,base_link,-0.346124282016,-0.350778363969,-0.684130616756,-0.537696773272,1.0,0.0,0.0,0.0,1.0,0.0,0.0,0.0,1.0,-0.221041604877,-0.399516820908,-0.346235692501,1.21846967915e-07,0.0,0.0,0.0,1.21846967915e-07,0.0,0.0,0.0,1.21846967915e-07,1.83384355,2.73605535,14.3569356,9e-08,0.0,0.0,0.0,9e-08,0.0,0.0,0.0,9e-08
1536701939529409428,2168,1536701939529172699,base_link,-0.355534847491,-0.326591224591,-0.648637232731,-0.588390078566,1.0,0.0,0.0,0.0,1.0,0.0,0.0,0.0,1.0,-0.120046980679,-0.469013750553,-0.380362808704,1.21846967915e-07,0.0,0.0,0.0,1.21846967915e-07,0.0,0.0,0.0,1.21846967915e-07,1.5494507,2.57914895,14.19022255,9e-08,0.0,0.0,0.0,9e-08,0.0,0.0,0.0,9e-08
