%time,field.header.seq,field.header.stamp,field.header.frame_id,field.orientation.x,field.orientation.y,field.orientation.z,field.orientation.w,field.orientation_covariance0,field.orientation_covariance1,field.orientation_covariance2,field.orientation_covariance3,field.orientation_covariance4,field.orientation_covariance5,field.orientation_covariance6,field.orientation_covariance7,field.orientation_covariance8,field.angular_velocity.x,field.angular_velocity.y,field.angular_velocity.z,field.angular_velocity_covariance0,field.angular_velocity_covariance1,field.angular_velocity_covariance2,field.angular_velocity_covariance3,field.angular_velocity_covariance4,field.angular_velocity_covariance5,field.angular_velocity_covariance6,field.angular_velocity_covariance7,field.angular_velocity_covariance8,field.linear_acceleration.x,field.linear_acceleration.y,field.linear_acceleration.z,field.linear_acceleration_covariance0,field.linear_acceleration_covariance1,field.linear_acceleration_covariance2,field.linear_acceleration_covariance3,field.linear_acceleration_covariance4,field.linear_acceleration_covariance5,field.linear_acceleration_covariance6,field.linear_acceleration_covariance7,field.linear_acceleration_covariance8
1536703529008573041,1836,1536703529008285079,base_link,0.0283020348189,-0.0526197818096,-0.990834008387,-0.121153296329,1.0,0.0,0.0,0.0,1.0,0.0,0.0,0.0,1.0,0.755383729935,-0.0416353754699,-0.187157616019,1.21846967915e-07,0.0,0.0,0.0,1.21846967915e-07,0.0,0.0,0.0,1.21846967915e-07,-0.196133,0.1372931,7.8257067,9e-08,0.0,0.0,0.0,9e-08,0.0,0.0,0.0,9e-08
1536703529322938598,1837,1536703529322464336,base_link,-0.00209684583771,-0.17760611125,-0.974736158292,-0.135429295954,1.0,0.0,0.0,0.0,1.0,0.0,0.0,0.0,1.0,0.820752561092,-0.0986493229866,0.0356032252312,1.21846967915e-07,0.0,0.0,0.0,1.21846967915e-07,0.0,0.0,0.0,1.21846967915e-07,-0.3530394,-0.12748645,10.95402805,9e-08,0.0,0.0,0.0,9e-08,0.0,0.0,0.0,9e-08
1536703529718848395,1838,1536703529718174329,base_link,-0.0525283981873,-0.261143916088,-0.952298551562,-0.148902958894,1.0,0.0,0.0,0.0,1.0,0.0,0.0,0.0,1.0,0.326701551676,-0.234653145075,-0.178136140108,1.21846967915e-07,0.0,0.0,0.0,1.21846967915e-07,0.0,0.0,0.0,1.21846967915e-07,0.40207265,1.24544455,12.87613145,9e-08,0.0,0.0,0.0,9e-08,0.0,0.0,0.0,9e-08
1536703530021905543,1839,1536703530021549519,base_link,-0.0870570425688,-0.298989162626,-0.931210624243,-0.189402548211,1.0,0.0,0.0,0.0,1.0,0.0,0.0,0.0,1.0,0.25952449441,-0.31617090106,-0.213599428535,1.21846967915e-07,0.0,0.0,0.0,1.21846967915e-07,0.0,0.0,0.0,1.21846967915e-07,1.5298374,0.73549875,13.42530385,9e-08,0.0,0.0,0.0,9e-08,0.0,0.0,0.0,9e-08
1536703530485344487,1840,1536703530485020045,base_link,-0.145417223234,-0.314757815045,-0.900796539287,-0.261432484333,1.0,0.0,0.0,0.0,1.0,0.0,0.0,0.0,1.0,-0.0163851194084,-0.377169013023,-0.263281553984,1.21846967915e-07,0.0,0.0,0.0,1.21846967915e-07,0.0,0.0,0.0,1.21846967915e-07,1.6279039,1.14737805,13.34685065,9e-08,0.0,0.0,0.0,9e-08,0.0,0.0,0.0,9e-08
1536703530839774801,1841,1536703530837265892,base_link,-0.181621154174,-0.311366369032,-0.875384892847,-0.322127350543,1.0,0.0,0.0,0.0,1.0,0.0,0.0,0.0,1.0,-0.0444136857986,-0.399547129869,-0.246787294745,1.21846967915e-07,0.0,0.0,0.0,1.21846967915e-07,0.0,0.0,0.0,1.21846967915e-07,1.8240369,0.8433719,14.13138265,9e-08,0.0,0.0,0.0,9e-08,0.0,0.0,0.0,9e-08
1536703531196590592,1842,1536703531190116710,base_link,-0.223519294427,-0.255159047876,-0.858415530852,-0.384780147225,1.0,0.0,0.0,0.0,1.0,0.0,0.0,0.0,1.0,-0.358680576086,-0.38017526269,-0.215394154191,1.21846967915e-07,0.0,0.0,0.0,1.21846967915e-07,0.0,0.0,0.0,1.21846967915e-07,1.9809433,1.36312435,17.063571,9e-08,0.0,0.0,0.0,9e-08,0.0,0.0,0.0,9e-08
1536703531483799112,1843,1536703531483383793,base_link,-0.217826828089,-0.19139799557,-0.850431202194,-0.438959053434,1.0,0.0,0.0,0.0,1.0,0.0,0.0,0.0,1.0,-0.449107497931,-0.107453078032,-0.194005832076,1.21846967915e-07,0.0,0.0,0.0,1.21846967915e-07,0.0,0.0,0.0,1.21846967915e-07,1.6475172,0.59820565,12.6505785,9e-08,0.0,0.0,0.0,9e-08,0.0,0.0,0.0,9e-08
1536703531950607019,1844,1536703531949966297,base_link,-0.168298023003,-0.0567172955237,-0.847942190843,-0.499452665255,1.0,0.0,0.0,0.0,1.0,0.0,0.0,0.0,1.0,-0.618632912636,0.0157930199057,-0.144666552544,1.21846967915e-07,0.0,0.0,0.0,1.21846967915e-07,0.0,0.0,0.0,1.21846967915e-07,1.71616375,0.93163175,12.42502555,9e-08,0.0,0.0,0.0,9e-08,0.0,0.0,0.0,9e-08
1536703532375920184,1845,1536703532375161319,base_link,-0.121359118262,0.0407688867039,-0.840136263483,-0.527049258678,1.0,0.0,0.0,0.0,1.0,0.0,0.0,0.0,1.0,-0.317877709866,-0.139036908746,-0.0078544523567,1.21846967915e-07,0.0,0.0,0.0,1.21846967915e-07,0.0,0.0,0.0,1.21846967915e-07,1.9024901,0.77472535,12.3367657,9e-08,0.0,0.0,0.0,9e-08,0.0,0.0,0.0,9e-08
1536703532680294798,1846,1536703532679922325,base_link,-0.113705846228,0.0859793942219,-0.834892130563,-0.531633007465,1.0,0.0,0.0,0.0,1.0,0.0,0.0,0.0,1.0,-0.179013624787,-0.0693984180689,0.00128766475245,1.21846967915e-07,0.0,0.0,0.0,1.21846967915e-07,0.0,0.0,0.0,1.21846967915e-07,1.85345685,0.55897905,10.62060195,9e-08,0.0,0.0,0.0,9e-08,0.0,0.0,0.0,9e-08
1536703533124634503,1847,1536703533124277774,base_link,-0.111838035576,0.114479668498,-0.835800778282,-0.525189221445,1.0,0.0,0.0,0.0,1.0,0.0,0.0,0.0,1.0,-0.131558284163,-0.0785158649087,0.0741536021233,1.21846967915e-07,0.0,0.0,0.0,1.21846967915e-07,0.0,0.0,0.0,1.21846967915e-07,1.9809433,0.22555295,9.7870367,9e-08,0.0,0.0,0.0,9e-08,0.0,0.0,0.0,9e-08
1536703533469565091,1848,1536703533463862778,base_link,-0.105496692543,0.149096859575,-0.837998885766,-0.514196890094,1.0,0.0,0.0,0.0,1.0,0.0,0.0,0.0,1.0,0.0185519531369,0.00289750937372,0.0131744313985,1.21846967915e-07,0.0,0.0,0.0,1.21846967915e-07,0.0,0.0,0.0,1.21846967915e-07,2.22610955,0.99047165,10.8853815,9e-08,0.0,0.0,0.0,9e-08,0.0,0.0,0.0,9e-08
1536703533932666311,1849,1536703533932367821,base_link,-0.138992592863,0.109978357267,-0.845222608353,-0.504167196861,1.0,0.0,0.0,0.0,1.0,0.0,0.0,0.0,1.0,0.281095325947,-0.00533118098974,0.113306358457,1.21846967915e-07,0.0,0.0,0.0,1.21846967915e-07,0.0,0.0,0.0,1.21846967915e-07,2.36340265,0.24516625,10.4735022,9e-08,0.0,0.0,0.0,9e-08,0.0,0.0,0.0,9e-08
1536703534407382822,1850,1536703534407056077,base_link,-0.147227029408,0.0461318222689,-0.865302493294,-0.476914721816,1.0,0.0,0.0,0.0,1.0,0.0,0.0,0.0,1.0,0.16738396883,0.210027247667,0.0266412645578,1.21846967915e-07,0.0,0.0,0.0,1.21846967915e-07,0.0,0.0,0.0,1.21846967915e-07,0.85317855,0.784532,5.6290171,9e-08,0.0,0.0,0.0,9e-08,0.0,0.0,0.0,9e-08
1536703534889490664,1851,1536703534888564507,base_link,-0.105646279779,0.00055635986979,-0.864742290089,-0.490977927981,1.0,0.0,0.0,0.0,1.0,0.0,0.0,0.0,1.0,0.141254946589,0.292750090361,-0.0722862482071,1.21846967915e-07,0.0,0.0,0.0,1.21846967915e-07,0.0,0.0,0.0,1.21846967915e-07,0.4118793,0.16671305,6.50180895,9e-08,0.0,0.0,0.0,9e-08,0.0,0.0,0.0,9e-08
1536703535316263644,1852,1536703535315765927,base_link,-0.0830889645381,-0.092650183969,-0.86306912195,-0.489513899821,1.0,0.0,0.0,0.0,1.0,0.0,0.0,0.0,1.0,0.746190667152,0.31364557147,-0.0923544466496,1.21846967915e-07,0.0,0.0,0.0,1.21846967915e-07,0.0,0.0,0.0,1.21846967915e-07,0.10787315,0.36284605,4.56009225,9e-08,0.0,0.0,0.0,9e-08,0.0,0.0,0.0,9e-08
1536703535673891823,1853,1536703535673547703,base_link,-0.113475641889,-0.244104730706,-0.827366389011,-0.492951333784,1.0,0.0,0.0,0.0,1.0,0.0,0.0,0.0,1.0,0.572358548641,0.25586488843,-0.198425590992,1.21846967915e-07,0.0,0.0,0.0,1.21846967915e-07,0.0,0.0,0.0,1.21846967915e-07,0.0,0.6864655,5.95263655,9e-08,0.0,0.0,0.0,9e-08,0.0,0.0,0.0,9e-08
1536703536184460064,1854,1536703536184120231,base_link,-0.120576276617,-0.327377308772,-0.769850937563,-0.534429596066,1.0,0.0,0.0,0.0,1.0,0.0,0.0,0.0,1.0,0.0894747152925,-0.114913187921,-0.406219422817,1.21846967915e-07,0.0,0.0,0.0,1.21846967915e-07,0.0,0.0,0.0,1.21846967915e-07,-0.0588399,0.85317855,6.8842683,9e-08,0.0,0.0,0.0,9e-08,0.0,0.0,0.0,9e-08
1536703536554463423,1855,1536703536554079399,base_link,-0.139553810116,-0.337560191887,-0.714770407345,-0.596390070105,1.0,0.0,0.0,0.0,1.0,0.0,0.0,0.0,1.0,0.137128964067,-0.266282618046,-0.362041592598,1.21846967915e-07,0.0,0.0,0.0,1.21846967915e-07,0.0,0.0,0.0,1.21846967915e-07,0.0980665,0.5491724,9.62032365,9e-08,0.0,0.0,0.0,9e-08,0.0,0.0,0.0,9e-08
1536703537024724939,1856,1536703537024469616,base_link,-0.156750901825,-0.326102823345,-0.654777536294,-0.663590597695,1.0,0.0,0.0,0.0,1.0,0.0,0.0,0.0,1.0,0.00641865096986,-0.235276788473,-0.319846391678,1.21846967915e-07,0.0,0.0,0.0,1.21846967915e-07,0.0,0.0,0.0,1.21846967915e-07,0.18632635,0.6864655,10.787315,9e-08,0.0,0.0,0.0,9e-08,0.0,0.0,0.0,9e-08
1536703537391715256,1857,1536703537391424351,base_link,-0.176375803062,-0.298160680005,-0.603070893932,-0.718538295351,1.0,0.0,0.0,0.0,1.0,0.0,0.0,0.0,1.0,0.0272242520005,-0.357469707727,-0.350725293159,1.21846967915e-07,0.0,0.0,0.0,1.21846967915e-07,0.0,0.0,0.0,1.21846967915e-07,0.2941995,0.6864655,12.54270535,9e-08,0.0,0.0,0.0,9e-08,0.0,0.0,0.0,9e-08
1536703537725274563,1858,1536703537725051528,base_link,-0.217144082354,-0.265939742759,-0.544399285293,-0.765345620548,1.0,0.0,0.0,0.0,1.0,0.0,0.0,0.0,1.0,-0.0130201485008,-0.448271363974,-0.245064869523,1.21846967915e-07,0.0,0.0,0.0,1.21846967915e-07,0.0,0.0,0.0,1.21846967915e-07,0.4511059,0.89240515,14.7884282,9e-08,0.0,0.0,0.0,9e-08,0.0,0.0,0.0,9e-08
1536703538129165765,1859,1536703538127007986,base_link,-0.25536887904,-0.196322237136,-0.483886636848,-0.813694068741,1.0,0.0,0.0,0.0,1.0,0.0,0.0,0.0,1.0,0.107992053032,-0.397614210844,-0.28474098444,1.21846967915e-07,0.0,0.0,0.0,1.21846967915e-07,0.0,0.0,0.0,1.21846967915e-07,1.06892485,1.0591182,17.66177665,9e-08,0.0,0.0,0.0,9e-08,0.0,0.0,0.0,9e-08
1536703538571573424,1860,1536703538571312694,base_link,-0.296803710358,-0.168460078719,-0.402502503605,-0.849423624576,1.0,0.0,0.0,0.0,1.0,0.0,0.0,0.0,1.0,0.153707146645,-0.37330698967,-0.311261326075,1.21846967915e-07,0.0,0.0,0.0,1.21846967915e-07,0.0,0.0,0.0,1.21846967915e-07,0.53936575,0.69627215,12.32695905,9e-08,0.0,0.0,0.0,9e-08,0.0,0.0,0.0,9e-08
1536703538818605319,1861,1536703538818416619,base_link,-0.319084483845,-0.145319892345,-0.354926023604,-0.866657221066,1.0,0.0,0.0,0.0,1.0,0.0,0.0,0.0,1.0,-0.0710203722119,-0.343759566545,-0.25492733717,1.21846967915e-07,0.0,0.0,0.0,1.21846967915e-07,0.0,0.0,0.0,1.21846967915e-07,0.8629852,0.91201845,14.3961622,9e-08,0.0,0.0,0.0,9e-08,0.0,0.0,0.0,9e-08
1536703539238867609,1862,1536703539238509760,base_link,-0.350644536302,-0.104639491679,-0.270577492905,-0.890441916284,1.0,0.0,0.0,0.0,1.0,0.0,0.0,0.0,1.0,0.133599892259,-0.428325176239,-0.347836196423,1.21846967915e-07,0.0,0.0,0.0,1.21846967915e-07,0.0,0.0,0.0,1.21846967915e-07,0.61781895,1.0983448,14.46480875,9e-08,0.0,0.0,0.0,9e-08,0.0,0.0,0.0,9e-08
1536703539715181574,1863,1536703539714956586,base_link,-0.381871528338,-0.0772278783308,-0.163742713029,-0.906310275007,1.0,0.0,0.0,0.0,1.0,0.0,0.0,0.0,1.0,0.0837989151478,-0.43250516057,-0.335013061762,1.21846967915e-07,0.0,0.0,0.0,1.21846967915e-07,0.0,0.0,0.0,1.21846967915e-07,0.69627215,0.784532,12.8270982,9e-08,0.0,0.0,0.0,9e-08,0.0,0.0,0.0,9e-08
1536703540104271164,1864,1536703540102049579,base_link,-0.4009582717,-0.0305942940572,-0.0826594074855,-0.911846410247,1.0,0.0,0.0,0.0,1.0,0.0,0.0,0.0,1.0,-0.097917355597,-0.271732449532,-0.241261839867,1.21846967915e-07,0.0,0.0,0.0,1.21846967915e-07,0.0,0.0,0.0,1.21846967915e-07,1.2160246,0.99047165,14.42558215,9e-08,0.0,0.0,0.0,9e-08,0.0,0.0,0.0,9e-08
1536703540443994871,1865,1536703540443751036,base_link,-0.399745362875,0.00538850258926,-0.00837459872905,-0.916572133002,1.0,0.0,0.0,0.0,1.0,0.0,0.0,0.0,1.0,-0.00782044231892,-0.292566150427,-0.318220883608,1.21846967915e-07,0.0,0.0,0.0,1.21846967915e-07,0.0,0.0,0.0,1.21846967915e-07,1.02969825,0.97085835,13.75872995,9e-08,0.0,0.0,0.0,9e-08,0.0,0.0,0.0,9e-08
1536703540871793647,1866,1536703540871593107,base_link,-0.408583403949,0.0369954696413,0.0804457490848,-0.908415884217,1.0,0.0,0.0,0.0,1.0,0.0,0.0,0.0,1.0,0.0872638002038,-0.337555706501,-0.346316426992,1.21846967915e-07,0.0,0.0,0.0,1.21846967915e-07,0.0,0.0,0.0,1.21846967915e-07,1.04931155,1.0002783,13.3174307,9e-08,0.0,0.0,0.0,9e-08,0.0,0.0,0.0,9e-08
1536703541336071605,1867,1536703541335822747,base_link,-0.392307090669,0.0958515189445,0.195124949172,-0.893775076368,1.0,0.0,0.0,0.0,1.0,0.0,0.0,0.0,1.0,-0.0994473844767,-0.409135580063,-0.280819177628,1.21846967915e-07,0.0,0.0,0.0,1.21846967915e-07,0.0,0.0,0.0,1.21846967915e-07,1.32389775,0.83356525,14.7492016,9e-08,0.0,0.0,0.0,9e-08,0.0,0.0,0.0,9e-08
1536703541639033259,1868,1536703541638806928,base_link,-0.385024997739,0.137756986478,0.260929500671,-0.874468158067,1.0,0.0,0.0,0.0,1.0,0.0,0.0,0.0,1.0,-0.105411037803,-0.359110176563,-0.301966279745,1.21846967915e-07,0.0,0.0,0.0,1.21846967915e-07,0.0,0.0,0.0,1.21846967915e-07,1.06892485,1.2356379,15.05320775,9e-08,0.0,0.0,0.0,9e-08,0.0,0.0,0.0,9e-08
1536703542072592339,1869,1536703542072313177,base_link,-0.366747026031,0.176112854724,0.342358711732,-0.846918764581,1.0,0.0,0.0,0.0,1.0,0.0,0.0,0.0,1.0,-0.0185032393783,-0.363684386015,-0.351624786854,1.21846967915e-07,0.0,0.0,0.0,1.21846967915e-07,0.0,0.0,0.0,1.21846967915e-07,1.08853815,1.2160246,13.18994425,9e-08,0.0,0.0,0.0,9e-08,0.0,0.0,0.0,9e-08
1536703542483852227,1870,1536703542483156114,base_link,-0.32147421286,0.20038435002,0.434927738398,-0.816907770256,1.0,0.0,0.0,0.0,1.0,0.0,0.0,0.0,1.0,-0.301359921694,-0.34697625041,-0.26598033309,1.21846967915e-07,0.0,0.0,0.0,1.21846967915e-07,0.0,0.0,0.0,1.21846967915e-07,0.89240515,0.91201845,13.7489233,9e-08,0.0,0.0,0.0,9e-08,0.0,0.0,0.0,9e-08
1536703542711603974,1871,1536703542711345164,base_link,-0.268323175328,0.204234663921,0.482927790723,-0.808128470346,1.0,0.0,0.0,0.0,1.0,0.0,0.0,0.0,1.0,-0.560251295567,-0.344674378633,-0.301220595837,1.21846967915e-07,0.0,0.0,0.0,1.21846967915e-07,0.0,0.0,0.0,1.21846967915e-07,0.83356525,1.0983448,15.09243435,9e-08,0.0,0.0,0.0,9e-08,0.0,0.0,0.0,9e-08
1536703543033704120,1872,1536703543033104004,base_link,-0.174707196377,0.158714579082,0.54967095394,-0.801341949679,1.0,0.0,0.0,0.0,1.0,0.0,0.0,0.0,1.0,-0.889389455318,-0.0654326155782,-0.305071532726,1.21846967915e-07,0.0,0.0,0.0,1.21846967915e-07,0.0,0.0,0.0,1.21846967915e-07,0.22555295,1.1571847,12.26811915,9e-08,0.0,0.0,0.0,9e-08,0.0,0.0,0.0,9e-08
1536703543285470546,1873,1536703543284881823,base_link,-0.0926880759816,0.10203625848,0.592170386219,-0.793934352583,1.0,0.0,0.0,0.0,1.0,0.0,0.0,0.0,1.0,-0.734999656677,-0.0829434394836,-0.185682684183,1.21846967915e-07,0.0,0.0,0.0,1.21846967915e-07,0.0,0.0,0.0,1.21846967915e-07,-0.1569064,0.30400615,10.65982855,9e-08,0.0,0.0,0.0,9e-08,0.0,0.0,0.0,9e-08
1536703543716472397,1874,1536703543716161940,base_link,0.0399088073252,0.0261390950254,0.612169346193,-0.789286213228,1.0,0.0,0.0,0.0,1.0,0.0,0.0,0.0,1.0,-0.704796016216,-0.106487773359,0.0629614517093,1.21846967915e-07,0.0,0.0,0.0,1.21846967915e-07,0.0,0.0,0.0,1.21846967915e-07,-0.34323275,0.1372931,11.24822755,9e-08,0.0,0.0,0.0,9e-08,0.0,0.0,0.0,9e-08
1536703544231944859,1875,1536703544231681153,base_link,0.167000477225,-0.055816569826,0.578609092258,-0.796371062694,1.0,0.0,0.0,0.0,1.0,0.0,0.0,0.0,1.0,-0.451151460409,0.0049079908058,0.17628467083,1.21846967915e-07,0.0,0.0,0.0,1.21846967915e-07,0.0,0.0,0.0,1.21846967915e-07,-0.22555295,0.2157463,9.6301303,9e-08,0.0,0.0,0.0,9e-08,0.0,0.0,0.0,9e-08
1536703544582038270,1876,1536703544581672614,base_link,0.199353957645,-0.0982763975137,0.5528800558,-0.80307122546,1.0,0.0,0.0,0.0,1.0,0.0,0.0,0.0,1.0,-0.0593172684312,0.176972687244,0.165633901954,1.21846967915e-07,0.0,0.0,0.0,1.21846967915e-07,0.0,0.0,0.0,1.21846967915e-07,-0.2941995,0.10787315,7.2373077,9e-08,0.0,0.0,0.0,9e-08,0.0,0.0,0.0,9e-08
1536703544867859385,1877,1536703544867576639,base_link,0.193659800182,-0.110763910889,0.530830617751,-0.817585526472,1.0,0.0,0.0,0.0,1.0,0.0,0.0,0.0,1.0,0.0944453924894,0.0247494354844,0.237082883716,1.21846967915e-07,0.0,0.0,0.0,1.21846967915e-07,0.0,0.0,0.0,1.21846967915e-07,-0.12748645,-0.14709975,9.11037785,9e-08,0.0,0.0,0.0,9e-08,0.0,0.0,0.0,9e-08
1536703545279138489,1878,1536703545278766753,base_link,0.187235602355,-0.127246859266,0.480835787836,-0.847082056919,1.0,0.0,0.0,0.0,1.0,0.0,0.0,0.0,1.0,0.0154014853761,0.0492271520197,0.275239467621,1.21846967915e-07,0.0,0.0,0.0,1.21846967915e-07,0.0,0.0,0.0,1.21846967915e-07,-0.2745862,-0.0196133,8.75733845,9e-08,0.0,0.0,0.0,9e-08,0.0,0.0,0.0,9e-08
1536703545727088581,1879,1536703545726573520,base_link,0.179837490785,-0.128445310695,0.423881892748,-0.878341858315,1.0,0.0,0.0,0.0,1.0,0.0,0.0,0.0,1.0,-0.0318348482251,-0.0512828975916,0.285796403885,1.21846967915e-07,0.0,0.0,0.0,1.21846967915e-07,0.0,0.0,0.0,1.21846967915e-07,-0.2157463,0.16671305,10.16949605,9e-08,0.0,0.0,0.0,9e-08,0.0,0.0,0.0,9e-08
1536703546182233231,1880,1536703546181851799,base_link,0.187002070779,-0.115470778041,0.366951245718,-0.903904590213,1.0,0.0,0.0,0.0,1.0,0.0,0.0,0.0,1.0,0.0435866713524,-0.0742618218064,0.220911070704,1.21846967915e-07,0.0,0.0,0.0,1.21846967915e-07,0.0,0.0,0.0,1.21846967915e-07,-0.08825985,0.12748645,10.4146623,9e-08,0.0,0.0,0.0,9e-08,0.0,0.0,0.0,9e-08
1536703546459385003,1881,1536703546454257912,base_link,0.171560343199,-0.105249408222,0.337411270732,-0.919588628188,1.0,0.0,0.0,0.0,1.0,0.0,0.0,0.0,1.0,0.260474890471,-0.0687754750252,0.243266835809,1.21846967915e-07,0.0,0.0,0.0,1.21846967915e-07,0.0,0.0,0.0,1.21846967915e-07,-0.10787315,0.0784532,9.9243298,9e-08,0.0,0.0,0.0,9e-08,0.0,0.0,0.0,9e-08
1536703546819326460,1882,1536703546819008483,base_link,0.131229140047,-0.0833650572339,0.296123159707,-0.942411934517,1.0,0.0,0.0,0.0,1.0,0.0,0.0,0.0,1.0,0.200459033251,-0.109261073172,0.245924219489,1.21846967915e-07,0.0,0.0,0.0,1.21846967915e-07,0.0,0.0,0.0,1.21846967915e-07,-0.196133,0.2549729,9.4536106,9e-08,0.0,0.0,0.0,9e-08,0.0,0.0,0.0,9e-08
1536703547126730220,1883,1536703547126104698,base_link,0.115983042118,-0.0627919224363,0.261163021446,-0.956242116123,1.0,0.0,0.0,0.0,1.0,0.0,0.0,0.0,1.0,0.134013056755,-0.0865069851279,0.233390778303,1.21846967915e-07,0.0,0.0,0.0,1.21846967915e-07,0.0,0.0,0.0,1.21846967915e-07,0.0588399,0.4118793,12.95458465,9e-08,0.0,0.0,0.0,9e-08,0.0,0.0,0.0,9e-08
1536703547591192496,1884,1536703547589302072,base_link,0.0682403175582,-0.0268767279188,0.225953438932,-0.971373225898,1.0,0.0,0.0,0.0,1.0,0.0,0.0,0.0,1.0,0.279063075781,-0.027868937701,0.0933981910348,1.21846967915e-07,0.0,0.0,0.0,1.21846967915e-07,0.0,0.0,0.0,1.21846967915e-07,0.04903325,0.588399,12.5917386,9e-08,0.0,0.0,0.0,9e-08,0.0,0.0,0.0,9e-08
1536703548007212737,1885,1536703548006952775,base_link,0.0175127452138,-0.00344933454015,0.217369257375,-0.975926232763,1.0,0.0,0.0,0.0,1.0,0.0,0.0,0.0,1.0,0.295355975628,-0.103756949306,-0.0144210541621,1.21846967915e-07,0.0,0.0,0.0,1.21846967915e-07,0.0,0.0,0.0,1.21846967915e-07,-0.1372931,0.40207265,10.60098865,9e-08,0.0,0.0,0.0,9e-08,0.0,0.0,0.0,9e-08
1536703548508798101,1886,1536703548508004518,base_link,-0.0531338365798,0.0222969074433,0.21508584331,-0.97489369848,1.0,0.0,0.0,0.0,1.0,0.0,0.0,0.0,1.0,0.16321977973,-0.0520633272827,0.00379856815562,1.21846967915e-07,0.0,0.0,0.0,1.21846967915e-07,0.0,0.0,0.0,1.21846967915e-07,-0.1176798,0.4314926,11.1207411,9e-08,0.0,0.0,0.0,9e-08,0.0,0.0,0.0,9e-08
1536703548888918423,1887,1536703548888639133,base_link,-0.0672125987592,0.0292937114249,0.211589756265,-0.974604596789,1.0,0.0,0.0,0.0,1.0,0.0,0.0,0.0,1.0,0.0997777208686,-0.0678825229406,0.0257569588721,1.21846967915e-07,0.0,0.0,0.0,1.21846967915e-07,0.0,0.0,0.0,1.21846967915e-07,-0.0784532,0.392266,10.48330885,9e-08,0.0,0.0,0.0,9e-08,0.0,0.0,0.0,9e-08
1536703549237219674,1888,1536703549235967829,base_link,-0.0678248980574,0.0350506631153,0.211492632606,-0.974393196083,1.0,0.0,0.0,0.0,1.0,0.0,0.0,0.0,1.0,-0.0221704766154,0.00138535257429,-0.0658533275127,1.21846967915e-07,0.0,0.0,0.0,1.21846967915e-07,0.0,0.0,0.0,1.21846967915e-07,-0.08825985,0.55897905,10.2381426,9e-08,0.0,0.0,0.0,9e-08,0.0,0.0,0.0,9e-08
1536703549654638506,1889,1536703549654342545,base_link,-0.0651145067915,0.0306676729415,0.232976391945,-0.969815237887,1.0,0.0,0.0,0.0,1.0,0.0,0.0,0.0,1.0,0.0288530290127,-0.043215431273,-0.0995045751333,1.21846967915e-07,0.0,0.0,0.0,1.21846967915e-07,0.0,0.0,0.0,1.21846967915e-07,0.0,0.4118793,9.8654899,9e-08,0.0,0.0,0.0,9e-08,0.0,0.0,0.0,9e-08
1536703550212698818,1890,1536703550212480935,base_link,-0.0601921257585,0.0417824990895,0.243335746707,-0.967170535708,1.0,0.0,0.0,0.0,1.0,0.0,0.0,0.0,1.0,-0.0218269787729,-0.00852101575583,0.0300409644842,1.21846967915e-07,0.0,0.0,0.0,1.21846967915e-07,0.0,0.0,0.0,1.21846967915e-07,0.1765197,0.38245935,10.198916,9e-08,0.0,0.0,0.0,9e-08,0.0,0.0,0.0,9e-08
1536703550537248050,1891,1536703550534472141,base_link,-0.0570202643386,0.0267030012652,0.237454001319,-0.969356093722,1.0,0.0,0.0,0.0,1.0,0.0,0.0,0.0,1.0,-0.075255304575,0.11464265734,0.0571892336011,1.21846967915e-07,0.0,0.0,0.0,1.21846967915e-07,0.0,0.0,0.0,1.21846967915e-07,0.1765197,0.40207265,9.38496405,9e-08,0.0,0.0,0.0,9e-08,0.0,0.0,0.0,9e-08
1536703550885469699,1892,1536703550885074796,base_link,-0.050319008502,0.0129061745568,0.228450900838,-0.972168511087,1.0,0.0,0.0,0.0,1.0,0.0,0.0,0.0,1.0,0.0320212319493,0.104632504284,0.0324766933918,1.21846967915e-07,0.0,0.0,0.0,1.21846967915e-07,0.0,0.0,0.0,1.21846967915e-07,0.0,0.59820565,8.75733845,9e-08,0.0,0.0,0.0,9e-08,0.0,0.0,0.0,9e-08
1536703551320832531,1893,1536703551320536089,base_link,-0.0282245276819,-0.012497822486,0.228622353898,-0.973025693272,1.0,0.0,0.0,0.0,1.0,0.0,0.0,0.0,1.0,-0.106189630926,0.0831784978509,-0.00100692361593,1.21846967915e-07,0.0,0.0,0.0,1.21846967915e-07,0.0,0.0,0.0,1.21846967915e-07,-0.00980665,0.3138128,6.79600845,9e-08,0.0,0.0,0.0,9e-08,0.0,0.0,0.0,9e-08
1536703551793991437,1894,1536703551793070881,base_link,-0.0161807836932,-0.01672068374,0.225088749337,-0.974060396432,1.0,0.0,0.0,0.0,1.0,0.0,0.0,0.0,1.0,-0.120542950928,-0.0206237323582,-0.0146794691682,1.21846967915e-07,0.0,0.0,0.0,1.21846967915e-07,0.0,0.0,0.0,1.21846967915e-07,-0.00980665,0.5491724,9.62032365,9e-08,0.0,0.0,0.0,9e-08,0.0,0.0,0.0,9e-08
1536703552066491697,1895,1536703552066245750,base_link,-0.011331685162,-0.0130988170576,0.229879536773,-0.973064957994,1.0,0.0,0.0,0.0,1.0,0.0,0.0,0.0,1.0,0.0595966055989,-0.0676172375679,-0.0129932239652,1.21846967915e-07,0.0,0.0,0.0,1.21846967915e-07,0.0,0.0,0.0,1.21846967915e-07,0.0588399,0.2353596,9.63993695,9e-08,0.0,0.0,0.0,9e-08,0.0,0.0,0.0,9e-08
1536703552614264330,1896,1536703552613993168,base_link,-0.00357791122921,-0.00816200918569,0.222196378892,-0.974961204031,1.0,0.0,0.0,0.0,1.0,0.0,0.0,0.0,1.0,0.101504862309,0.00385740888305,0.0551998578012,1.21846967915e-07,0.0,0.0,0.0,1.21846967915e-07,0.0,0.0,0.0,1.21846967915e-07,0.2353596,0.50013915,10.77750835,9e-08,0.0,0.0,0.0,9e-08,0.0,0.0,0.0,9e-08
1536703553023843023,1897,1536703553023564054,base_link,-0.0238019085967,0.00183044687857,0.212812639915,-0.976801361027,1.0,0.0,0.0,0.0,1.0,0.0,0.0,0.0,1.0,0.127604752779,0.0451057590544,0.040097028017,1.21846967915e-07,0.0,0.0,0.0,1.21846967915e-07,0.0,0.0,0.0,1.21846967915e-07,0.2353596,0.5687857,10.14988275,9e-08,0.0,0.0,0.0,9e-08,0.0,0.0,0.0,9e-08
1536703553429677302,1898,1536703553427982555,base_link,-0.00879408405707,0.0142553880655,0.205161756718,-0.978584744198,1.0,0.0,0.0,0.0,1.0,0.0,0.0,0.0,1.0,-0.206127420068,-0.0992030873895,0.050230152905,1.21846967915e-07,0.0,0.0,0.0,1.21846967915e-07,0.0,0.0,0.0,1.21846967915e-07,0.42168595,0.44129925,11.9052731,9e-08,0.0,0.0,0.0,9e-08,0.0,0.0,0.0,9e-08
1536703553804317985,1899,1536703553804006887,base_link,0.0548263748369,0.00589785994606,0.193954965139,-0.97945941997,1.0,0.0,0.0,0.0,1.0,0.0,0.0,0.0,1.0,-0.280363440514,0.0877425298095,0.0682541802526,1.21846967915e-07,0.0,0.0,0.0,1.21846967915e-07,0.0,0.0,0.0,1.21846967915e-07,0.38245935,0.1765197,10.30678915,9e-08,0.0,0.0,0.0,9e-08,0.0,0.0,0.0,9e-08
1536703554229599225,1900,1536703554229291264,base_link,0.10517050821,0.00210732574799,0.165885731068,-0.980518560563,1.0,0.0,0.0,0.0,1.0,0.0,0.0,0.0,1.0,-0.224298864603,-0.129994541407,0.166292905807,1.21846967915e-07,0.0,0.0,0.0,1.21846967915e-07,0.0,0.0,0.0,1.21846967915e-07,0.30400615,0.3726527,11.6503002,9e-08,0.0,0.0,0.0,9e-08,0.0,0.0,0.0,9e-08
1536703554534691354,1901,1536703554534375393,base_link,0.134518187728,0.00525556992749,0.130989498775,-0.98220109314,1.0,0.0,0.0,0.0,1.0,0.0,0.0,0.0,1.0,-0.0962199196219,-0.0344799570739,0.292846828699,1.21846967915e-07,0.0,0.0,0.0,1.21846967915e-07,0.0,0.0,0.0,1.21846967915e-07,0.2353596,-0.0196133,11.2776475,9e-08,0.0,0.0,0.0,9e-08,0.0,0.0,0.0,9e-08
1536703555013888279,1902,1536703555011294960,base_link,0.201682879164,-0.00734261323937,0.072831778591,-0.976711643378,1.0,0.0,0.0,0.0,1.0,0.0,0.0,0.0,1.0,-0.201874822378,-0.0159823745489,0.170124262571,1.21846967915e-07,0.0,0.0,0.0,1.21846967915e-07,0.0,0.0,0.0,1.21846967915e-07,0.26477955,0.36284605,9.11037785,9e-08,0.0,0.0,0.0,9e-08,0.0,0.0,0.0,9e-08
1536703555432990013,1903,1536703555432788833,base_link,0.23125396399,0.00476265190511,0.0311128488882,-0.972384138044,1.0,0.0,0.0,0.0,1.0,0.0,0.0,0.0,1.0,-0.0811373591423,-0.142999649048,0.216491386294,1.21846967915e-07,0.0,0.0,0.0,1.21846967915e-07,0.0,0.0,0.0,1.21846967915e-07,0.44129925,0.14709975,10.79712165,9e-08,0.0,0.0,0.0,9e-08,0.0,0.0,0.0,9e-08
1536703555882733224,1904,1536703555882157717,base_link,0.267965642788,0.0114759474095,-0.0417213891282,-0.962456254905,1.0,0.0,0.0,0.0,1.0,0.0,0.0,0.0,1.0,-0.15686263144,-0.23134239018,0.342534273863,1.21846967915e-07,0.0,0.0,0.0,1.21846967915e-07,0.0,0.0,0.0,1.21846967915e-07,0.5687857,0.0588399,10.7088618,9e-08,0.0,0.0,0.0,9e-08,0.0,0.0,0.0,9e-08
1536703556286322772,1905,1536703556285986075,base_link,0.293759092709,0.0314147799618,-0.127728274601,-0.946786245632,1.0,0.0,0.0,0.0,1.0,0.0,0.0,0.0,1.0,-0.0175674669445,-0.246541887522,0.390210360289,1.21846967915e-07,0.0,0.0,0.0,1.21846967915e-07,0.0,0.0,0.0,1.21846967915e-07,0.6864655,0.26477955,11.8464332,9e-08,0.0,0.0,0.0,9e-08,0.0,0.0,0.0,9e-08
1536703556724177104,1906,1536703556723783417,base_link,0.297867300844,0.0680779437533,-0.218959349984,-0.926659197179,1.0,0.0,0.0,0.0,1.0,0.0,0.0,0.0,1.0,-0.00229769945145,-0.400518715382,0.312981009483,1.21846967915e-07,0.0,0.0,0.0,1.21846967915e-07,0.0,0.0,0.0,1.21846967915e-07,0.7256921,0.26477955,12.8859381,9e-08,0.0,0.0,0.0,9e-08,0.0,0.0,0.0,9e-08
1536703557236146997,1907,1536703557235540322,base_link,0.282297000404,0.132451266518,-0.331198190746,-0.890546362637,1.0,0.0,0.0,0.0,1.0,0.0,0.0,0.0,1.0,0.120682179928,-0.383603096008,0.390623301268,1.21846967915e-07,0.0,0.0,0.0,1.21846967915e-07,0.0,0.0,0.0,1.21846967915e-07,1.18660465,0.32361945,15.75928655,9e-08,0.0,0.0,0.0,9e-08,0.0,0.0,0.0,9e-08
1536703557665109090,1908,1536703557664631916,base_link,0.239959059583,0.171230941045,-0.423924375326,-0.856380603796,1.0,0.0,0.0,0.0,1.0,0.0,0.0,0.0,1.0,0.166991263628,-0.155709847808,0.2965914011,1.21846967915e-07,0.0,0.0,0.0,1.21846967915e-07,0.0,0.0,0.0,1.21846967915e-07,1.0395049,0.51975245,13.9842829,9e-08,0.0,0.0,0.0,9e-08,0.0,0.0,0.0,9e-08
1536703558118304474,1909,1536703558117941857,base_link,0.162880904315,0.146758200691,-0.492095642064,-0.842480694498,1.0,0.0,0.0,0.0,1.0,0.0,0.0,0.0,1.0,0.441963076591,-0.021160248667,0.282687723637,1.21846967915e-07,0.0,0.0,0.0,1.21846967915e-07,0.0,0.0,0.0,1.21846967915e-07,0.46091255,0.1765197,11.2972608,9e-08,0.0,0.0,0.0,9e-08,0.0,0.0,0.0,9e-08
1536703558512548525,1910,1536703558510721205,base_link,0.128218812189,0.146065880731,-0.538729672206,-0.819753032914,1.0,0.0,0.0,0.0,1.0,0.0,0.0,0.0,1.0,0.23603990674,-0.129387930036,0.167587116361,1.21846967915e-07,0.0,0.0,0.0,1.21846967915e-07,0.0,0.0,0.0,1.21846967915e-07,0.30400615,0.2549729,11.79739995,9e-08,0.0,0.0,0.0,9e-08,0.0,0.0,0.0,9e-08
1536703559014934980,1911,1536703559012537656,base_link,0.0818410012598,0.111403146018,-0.592837336568,-0.793369574626,1.0,0.0,0.0,0.0,1.0,0.0,0.0,0.0,1.0,0.248966097832,0.0497994236648,0.198350891471,1.21846967915e-07,0.0,0.0,0.0,1.21846967915e-07,0.0,0.0,0.0,1.21846967915e-07,0.2157463,0.26477955,9.0613446,9e-08,0.0,0.0,0.0,9e-08,0.0,0.0,0.0,9e-08
1536703559443175871,1912,1536703559442729001,base_link,0.0529858244074,0.0722190703801,-0.61552483114,-0.783010913421,1.0,0.0,0.0,0.0,1.0,0.0,0.0,0.0,1.0,0.217197060585,0.00143938395195,0.0668108537793,1.21846967915e-07,0.0,0.0,0.0,1.21846967915e-07,0.0,0.0,0.0,1.21846967915e-07,0.14709975,0.2353596,8.5906254,9e-08,0.0,0.0,0.0,9e-08,0.0,0.0,0.0,9e-08
1536703559823470005,1913,1536703559823061374,base_link,0.0190750843807,0.0513655320936,-0.637040898701,-0.768880105511,1.0,0.0,0.0,0.0,1.0,0.0,0.0,0.0,1.0,0.122540347278,-0.0468205027282,0.157739281654,1.21846967915e-07,0.0,0.0,0.0,1.21846967915e-07,0.0,0.0,0.0,1.21846967915e-07,0.2745862,0.1765197,10.71866845,9e-08,0.0,0.0,0.0,9e-08,0.0,0.0,0.0,9e-08
1536703560301959416,1914,1536703560301462147,base_link,0.021543431506,0.0364507253527,-0.659928607105,-0.75013429378,1.0,0.0,0.0,0.0,1.0,0.0,0.0,0.0,1.0,0.0246397200972,-0.0126918284222,0.0564425028861,1.21846967915e-07,0.0,0.0,0.0,1.21846967915e-07,0.0,0.0,0.0,1.21846967915e-07,0.06864655,0.44129925,8.87501825,9e-08,0.0,0.0,0.0,9e-08,0.0,0.0,0.0,9e-08
1536703560757111061,1915,1536703560756070764,base_link,0.00665978842167,0.027080831864,-0.670748163979,-0.741160695317,1.0,0.0,0.0,0.0,1.0,0.0,0.0,0.0,1.0,0.115509860218,-0.00290274713188,0.0979920774698,1.21846967915e-07,0.0,0.0,0.0,1.21846967915e-07,0.0,0.0,0.0,1.21846967915e-07,0.20593965,0.2549729,10.2381426,9e-08,0.0,0.0,0.0,9e-08,0.0,0.0,0.0,9e-08
1536703561132712542,1916,1536703561132420005,base_link,-0.0174918847557,-0.00124059220647,-0.688865046018,-0.724677475346,1.0,0.0,0.0,0.0,1.0,0.0,0.0,0.0,1.0,0.0936490297318,0.0438740290701,0.115261547267,1.21846967915e-07,0.0,0.0,0.0,1.21846967915e-07,0.0,0.0,0.0,1.21846967915e-07,0.2941995,0.3530394,11.34629405,9e-08,0.0,0.0,0.0,9e-08,0.0,0.0,0.0,9e-08
1536703561603893993,1917,1536703561603497618,base_link,-0.00274807726237,-0.00621060217931,-0.697652201032,-0.716404412945,1.0,0.0,0.0,0.0,1.0,0.0,0.0,0.0,1.0,-0.0317335799336,-0.0144969495013,-0.00717593589798,1.21846967915e-07,0.0,0.0,0.0,1.21846967915e-07,0.0,0.0,0.0,1.21846967915e-07,0.12748645,0.588399,8.99269805,9e-08,0.0,0.0,0.0,9e-08,0.0,0.0,0.0,9e-08
1536703561938250387,1918,1536703561937960090,base_link,0.00557857698462,-0.00576309534149,-0.695447405367,-0.718532234892,1.0,0.0,0.0,0.0,1.0,0.0,0.0,0.0,1.0,0.00224447436631,0.0290051326156,-0.0103430664167,1.21846967915e-07,0.0,0.0,0.0,1.21846967915e-07,0.0,0.0,0.0,1.21846967915e-07,0.196133,0.55897905,9.3947707,9e-08,0.0,0.0,0.0,9e-08,0.0,0.0,0.0,9e-08
1536703562291878284,1919,1536703562291511092,base_link,-0.00482264410304,-0.0045013277673,-0.696344201822,-0.717677666324,1.0,0.0,0.0,0.0,1.0,0.0,0.0,0.0,1.0,0.0774025917053,-0.103051908314,0.0268002524972,1.21846967915e-07,0.0,0.0,0.0,1.21846967915e-07,0.0,0.0,0.0,1.21846967915e-07,0.32361945,0.16671305,10.983448,9e-08,0.0,0.0,0.0,9e-08,0.0,0.0,0.0,9e-08
1536703562721120352,1920,1536703562720760520,base_link,-0.0103051795499,0.00670927687081,-0.708590028446,-0.705513260305,1.0,0.0,0.0,0.0,1.0,0.0,0.0,0.0,1.0,0.014240982011,-0.0978529453278,0.0629280507565,1.21846967915e-07,0.0,0.0,0.0,1.21846967915e-07,0.0,0.0,0.0,1.21846967915e-07,0.38245935,0.5099458,11.3561007,9e-08,0.0,0.0,0.0,9e-08,0.0,0.0,0.0,9e-08
1536703563055175203,1921,1536703563053437065,base_link,-0.0204524174072,0.0125225536215,-0.712356398473,-0.701408045169,1.0,0.0,0.0,0.0,1.0,0.0,0.0,0.0,1.0,0.0170926935971,-0.0730416029692,0.0165531057864,1.21846967915e-07,0.0,0.0,0.0,1.21846967915e-07,0.0,0.0,0.0,1.21846967915e-07,0.3726527,0.3530394,10.50292215,9e-08,0.0,0.0,0.0,9e-08,0.0,0.0,0.0,9e-08
1536703563463415478,1922,1536703563458399781,base_link,-0.0295940930524,0.00728284474177,-0.726400683205,-0.686595366478,1.0,0.0,0.0,0.0,1.0,0.0,0.0,0.0,1.0,0.122670680285,-0.0128414826468,0.22084826231,1.21846967915e-07,0.0,0.0,0.0,1.21846967915e-07,0.0,0.0,0.0,1.21846967915e-07,0.4707192,0.06864655,11.2384209,9e-08,0.0,0.0,0.0,9e-08,0.0,0.0,0.0,9e-08
1536703563788418006,1923,1536703563787957088,base_link,-0.00413055369055,0.0100274197113,-0.744564602494,-0.667462315111,1.0,0.0,0.0,0.0,1.0,0.0,0.0,0.0,1.0,-0.272097021341,0.128801718354,0.0592718236148,1.21846967915e-07,0.0,0.0,0.0,1.21846967915e-07,0.0,0.0,0.0,1.21846967915e-07,0.14709975,1.01008495,7.1784678,9e-08,0.0,0.0,0.0,9e-08,0.0,0.0,0.0,9e-08
1536703564282069219,1924,1536703564277717763,base_link,0.0209687495518,0.000195690131088,-0.725445495315,-0.687960105366,1.0,0.0,0.0,0.0,1.0,0.0,0.0,0.0,1.0,0.207325428724,0.0490902885795,-0.0506760925055,1.21846967915e-07,0.0,0.0,0.0,1.21846967915e-07,0.0,0.0,0.0,1.21846967915e-07,0.0980665,0.0392266,7.9041599,9e-08,0.0,0.0,0.0,9e-08,0.0,0.0,0.0,9e-08
1536703564681332590,1925,1536703564681142162,base_link,0.0218769494904,-0.00763632143937,-0.737798655553,-0.674623027727,1.0,0.0,0.0,0.0,1.0,0.0,0.0,0.0,1.0,-0.0601384416223,0.0731957629323,0.154673248529,1.21846967915e-07,0.0,0.0,0.0,1.21846967915e-07,0.0,0.0,0.0,1.21846967915e-07,0.22555295,0.3726527,9.7870367,9e-08,0.0,0.0,0.0,9e-08,0.0,0.0,0.0,9e-08
1536703565170505168,1926,1536703565170214934,base_link,0.0462180691646,0.0279546575726,-0.754706177162,-0.653835616463,1.0,0.0,0.0,0.0,1.0,0.0,0.0,0.0,1.0,-0.239909470081,-0.0572074465454,0.115536205471,1.21846967915e-07,0.0,0.0,0.0,1.21846967915e-07,0.0,0.0,0.0,1.21846967915e-07,0.2549729,0.40207265,11.6110736,9e-08,0.0,0.0,0.0,9e-08,0.0,0.0,0.0,9e-08
1536703565492614551,1927,1536703565492383836,base_link,0.052701898869,0.0651584003209,-0.768654734558,-0.63415044884,1.0,0.0,0.0,0.0,1.0,0.0,0.0,0.0,1.0,-0.159449741244,-0.142482578754,0.154258087277,1.21846967915e-07,0.0,0.0,0.0,1.21846967915e-07,0.0,0.0,0.0,1.21846967915e-07,0.3726527,0.3138128,12.8270982,9e-08,0.0,0.0,0.0,9e-08,0.0,0.0,0.0,9e-08
1536703565928769827,1928,1536703565927559741,base_link,0.0691175454018,0.104308397424,-0.789574039759,-0.6007623148,1.0,0.0,0.0,0.0,1.0,0.0,0.0,0.0,1.0,-0.240224838257,-0.00732370465994,0.138838261366,1.21846967915e-07,0.0,0.0,0.0,1.21846967915e-07,0.0,0.0,0.0,1.21846967915e-07,0.1372931,0.51975245,9.1594111,9e-08,0.0,0.0,0.0,9e-08,0.0,0.0,0.0,9e-08
1536703566331418760,1929,1536703566330880052,base_link,0.100295149775,0.13581866193,-0.79829886177,-0.578111668538,1.0,0.0,0.0,0.0,1.0,0.0,0.0,0.0,1.0,-0.203818976879,-0.0310580767691,0.141465336084,1.21846967915e-07,0.0,0.0,0.0,1.21846967915e-07,0.0,0.0,0.0,1.21846967915e-07,0.16671305,0.10787315,9.6497436,9e-08,0.0,0.0,0.0,9e-08,0.0,0.0,0.0,9e-08
1536703566723931979,1930,1536703566723607890,base_link,0.111561113998,0.164252159248,-0.819235390392,-0.537985800143,1.0,0.0,0.0,0.0,1.0,0.0,0.0,0.0,1.0,-0.0794121176004,-0.12904009223,0.25276696682,1.21846967915e-07,0.0,0.0,0.0,1.21846967915e-07,0.0,0.0,0.0,1.21846967915e-07,0.1372931,0.0588399,10.4146623,9e-08,0.0,0.0,0.0,9e-08,0.0,0.0,0.0,9e-08
1536703567083198828,1931,1536703567082808468,base_link,0.123925797447,0.199876807778,-0.842960723353,-0.483847989894,1.0,0.0,0.0,0.0,1.0,0.0,0.0,0.0,1.0,-0.182991668582,-0.0648188591003,0.2764955163,1.21846967915e-07,0.0,0.0,0.0,1.21846967915e-07,0.0,0.0,0.0,1.21846967915e-07,0.18632635,0.4118793,10.8461549,9e-08,0.0,0.0,0.0,9e-08,0.0,0.0,0.0,9e-08
1536703567413763520,1932,1536703567413352201,base_link,0.134052346745,0.219857442255,-0.857128933512,-0.446119563294,1.0,0.0,0.0,0.0,1.0,0.0,0.0,0.0,1.0,-0.0874456763268,-0.187034577131,0.2518273592,1.21846967915e-07,0.0,0.0,0.0,1.21846967915e-07,0.0,0.0,0.0,1.21846967915e-07,0.2157463,-0.04903325,9.60071035,9e-08,0.0,0.0,0.0,9e-08,0.0,0.0,0.0,9e-08
1536703567851985821,1933,1536703567851482377,base_link,0.119520113349,0.25369349424,-0.887842687129,-0.364814907039,1.0,0.0,0.0,0.0,1.0,0.0,0.0,0.0,1.0,0.00805485900491,-0.285008043051,0.386562436819,1.21846967915e-07,0.0,0.0,0.0,1.21846967915e-07,0.0,0.0,0.0,1.21846967915e-07,0.44129925,-0.2745862,12.64077185,9e-08,0.0,0.0,0.0,9e-08,0.0,0.0,0.0,9e-08
1536703568393011203,1934,1536703568392568876,base_link,0.0872325661835,0.298871862552,-0.916850171169,-0.249903687046,1.0,0.0,0.0,0.0,1.0,0.0,0.0,0.0,1.0,-0.0933455452323,-0.229764789343,0.278637677431,1.21846967915e-07,0.0,0.0,0.0,1.21846967915e-07,0.0,0.0,0.0,1.21846967915e-07,0.59820565,0.20593965,12.6309652,9e-08,0.0,0.0,0.0,9e-08,0.0,0.0,0.0,9e-08
1536703568687147957,1935,1536703568686558018,base_link,0.0575985394556,0.3074896534,-0.928857490244,-0.198384183142,1.0,0.0,0.0,0.0,1.0,0.0,0.0,0.0,1.0,-0.0444923974574,-0.25024113059,0.299035102129,1.21846967915e-07,0.0,0.0,0.0,1.21846967915e-07,0.0,0.0,0.0,1.21846967915e-07,0.588399,-0.00980665,13.09187775,9e-08,0.0,0.0,0.0,9e-08,0.0,0.0,0.0,9e-08
1536703569105218751,1936,1536703569104956389,base_link,0.0284064595536,0.317619634638,-0.940539454123,-0.117031517064,1.0,0.0,0.0,0.0,1.0,0.0,0.0,0.0,1.0,0.000437611714005,-0.232707172632,0.304271459579,1.21846967915e-07,0.0,0.0,0.0,1.21846967915e-07,0.0,0.0,0.0,1.21846967915e-07,0.57859235,0.24516625,13.38607725,9e-08,0.0,0.0,0.0,9e-08,0.0,0.0,0.0,9e-08
1536703569342992783,1937,1536703569341878215,base_link,0.00958515937209,0.312818249884,-0.947145096294,-0.0704913741197,1.0,0.0,0.0,0.0,1.0,0.0,0.0,0.0,1.0,0.107147663832,-0.253948777914,0.298791617155,1.21846967915e-07,0.0,0.0,0.0,1.21846967915e-07,0.0,0.0,0.0,1.21846967915e-07,0.55897905,0.04903325,12.83690485,9e-08,0.0,0.0,0.0,9e-08,0.0,0.0,0.0,9e-08
1536703569709949024,1938,1536703569709687558,base_link,-0.0109912459976,0.315833155037,-0.948746706402,-0.00288058704935,1.0,0.0,0.0,0.0,1.0,0.0,0.0,0.0,1.0,-0.226903557777,-0.234784424305,0.338619619608,1.21846967915e-07,0.0,0.0,0.0,1.21846967915e-07,0.0,0.0,0.0,1.21846967915e-07,0.61781895,-0.3530394,11.9248864,9e-08,0.0,0.0,0.0,9e-08,0.0,0.0,0.0,9e-08
1536703570023561558,1939,1536703570023325179,base_link,-0.04792737377,0.343673170901,-0.935153134008,0.0712764645655,1.0,0.0,0.0,0.0,1.0,0.0,0.0,0.0,1.0,-0.0244053360075,-0.398186713457,0.400279968977,1.21846967915e-07,0.0,0.0,0.0,1.21846967915e-07,0.0,0.0,0.0,1.21846967915e-07,0.8433719,-0.1372931,14.8668814,9e-08,0.0,0.0,0.0,9e-08,0.0,0.0,0.0,9e-08
1536703570432452371,1940,1536703570428919969,base_link,-0.0866209073205,0.281663283877,-0.939087652333,0.176853029847,1.0,0.0,0.0,0.0,1.0,0.0,0.0,0.0,1.0,0.463846445084,-0.399023503065,0.320484012365,1.21846967915e-07,0.0,0.0,0.0,1.21846967915e-07,0.0,0.0,0.0,1.21846967915e-07,0.6864655,0.08825985,15.09243435,9e-08,0.0,0.0,0.0,9e-08,0.0,0.0,0.0,9e-08
1536703570925314302,1941,1536703570924996325,base_link,-0.10495247852,0.148094781944,-0.946462948974,0.266947183977,1.0,0.0,0.0,0.0,1.0,0.0,0.0,0.0,1.0,0.708744227886,0.0211576055735,0.137407973409,1.21846967915e-07,0.0,0.0,0.0,1.21846967915e-07,0.0,0.0,0.0,1.21846967915e-07,0.2941995,0.89240515,13.5920169,9e-08,0.0,0.0,0.0,9e-08,0.0,0.0,0.0,9e-08
1536703571451579824,1942,1536703571451267831,base_link,-0.0482596892982,-0.0385147516007,-0.954305063972,0.292385808779,1.0,0.0,0.0,0.0,1.0,0.0,0.0,0.0,1.0,0.619188010693,-0.0456463359296,0.0166550967842,1.21846967915e-07,0.0,0.0,0.0,1.21846967915e-07,0.0,0.0,0.0,1.21846967915e-07,-0.0980665,0.3334261,10.4931155,9e-08,0.0,0.0,0.0,9e-08,0.0,0.0,0.0,9e-08
1536703571749664459,1943,1536703571747991185,base_link,-0.0279183767549,-0.110675367278,-0.947435278248,0.298894497857,1.0,0.0,0.0,0.0,1.0,0.0,0.0,0.0,1.0,0.290631622076,-0.019591294229,0.00924179889262,1.21846967915e-07,0.0,0.0,0.0,1.21846967915e-07,0.0,0.0,0.0,1.21846967915e-07,-0.04903325,0.6080123,9.9243298,9e-08,0.0,0.0,0.0,9e-08,0.0,0.0,0.0,9e-08
1536703572155214303,1944,1536703572154319763,base_link,0.00193849924492,-0.139515142954,-0.946102514896,0.292270077863,1.0,0.0,0.0,0.0,1.0,0.0,0.0,0.0,1.0,0.00400557555258,0.0834472328424,-0.113316506147,1.21846967915e-07,0.0,0.0,0.0,1.21846967915e-07,0.0,0.0,0.0,1.21846967915e-07,-0.12748645,0.61781895,8.0806796,9e-08,0.0,0.0,0.0,9e-08,0.0,0.0,0.0,9e-08
1536703572419246634,1945,1536703572417457170,base_link,0.0209029972208,-0.132071732954,-0.951152193267,0.278261796345,1.0,0.0,0.0,0.0,1.0,0.0,0.0,0.0,1.0,-0.0467101931572,0.133862450719,-0.13647288084,1.21846967915e-07,0.0,0.0,0.0,1.21846967915e-07,0.0,0.0,0.0,1.21846967915e-07,-0.2157463,0.48052585,7.1392412,9e-08,0.0,0.0,0.0,9e-08,0.0,0.0,0.0,9e-08
1536703572754524089,1946,1536703572754252416,base_link,0.0404044197442,-0.119962535666,-0.956944411295,0.26121613004,1.0,0.0,0.0,0.0,1.0,0.0,0.0,0.0,1.0,-0.0977686867118,0.113658182323,-0.100742578506,1.21846967915e-07,0.0,0.0,0.0,1.21846967915e-07,0.0,0.0,0.0,1.21846967915e-07,-0.0980665,0.48052585,8.16893945,9e-08,0.0,0.0,0.0,9e-08,0.0,0.0,0.0,9e-08
1536703573270056158,1947,1536703573269618376,base_link,0.0474223828438,-0.101330513937,-0.964814306741,0.237942425933,1.0,0.0,0.0,0.0,1.0,0.0,0.0,0.0,1.0,-0.00950404070318,0.00427016429603,-0.0826895162463,1.21846967915e-07,0.0,0.0,0.0,1.21846967915e-07,0.0,0.0,0.0,1.21846967915e-07,-0.14709975,0.32361945,9.7281968,9e-08,0.0,0.0,0.0,9e-08,0.0,0.0,0.0,9e-08
1536703573585150790,1948,1536703573584778191,base_link,0.0559335195547,-0.087755311553,-0.96744398961,0.230700181302,1.0,0.0,0.0,0.0,1.0,0.0,0.0,0.0,1.0,-0.1303563416,0.0936396494508,-0.0378331653774,1.21846967915e-07,0.0,0.0,0.0,1.21846967915e-07,0.0,0.0,0.0,1.21846967915e-07,-0.14709975,0.46091255,9.28689755,9e-08,0.0,0.0,0.0,9e-08,0.0,0.0,0.0,9e-08
1536703574010624420,1949,1536703574010364554,base_link,0.0526869786787,-0.0447473140786,-0.972083718887,0.224220881354,1.0,0.0,0.0,0.0,1.0,0.0,0.0,0.0,1.0,-0.196500703692,0.0305686313659,-0.072898991406,1.21846967915e-07,0.0,0.0,0.0,1.21846967915e-07,0.0,0.0,0.0,1.21846967915e-07,-0.1765197,0.5295591,9.8458766,9e-08,0.0,0.0,0.0,9e-08,0.0,0.0,0.0,9e-08
1536703574376663883,1950,1536703574375987738,base_link,0.0416151144577,-0.0223918838501,-0.975575620744,0.214520381308,1.0,0.0,0.0,0.0,1.0,0.0,0.0,0.0,1.0,-0.0520557239652,-0.10287605226,-0.0287574734539,1.21846967915e-07,0.0,0.0,0.0,1.21846967915e-07,0.0,0.0,0.0,1.21846967915e-07,-0.14709975,0.14709975,11.1011278,9e-08,0.0,0.0,0.0,9e-08,0.0,0.0,0.0,9e-08
1536703574780257253,1951,1536703574779827887,base_link,0.0288255220615,-0.0129111423725,-0.974362954407,0.222753731193,1.0,0.0,0.0,0.0,1.0,0.0,0.0,0.0,1.0,-0.110769540071,0.0955093950033,0.0637566745281,1.21846967915e-07,0.0,0.0,0.0,1.21846967915e-07,0.0,0.0,0.0,1.21846967915e-07,-0.14709975,0.2353596,10.83634825,9e-08,0.0,0.0,0.0,9e-08,0.0,0.0,0.0,9e-08
1536703575126504644,1952,1536703575125920305,base_link,0.0294879817302,0.00245922337406,-0.971456939928,0.235363176857,1.0,0.0,0.0,0.0,1.0,0.0,0.0,0.0,1.0,-0.0496566742659,0.0080295111984,0.0748277157545,1.21846967915e-07,0.0,0.0,0.0,1.21846967915e-07,0.0,0.0,0.0,1.21846967915e-07,-0.1176798,0.2941995,9.414384,9e-08,0.0,0.0,0.0,9e-08,0.0,0.0,0.0,9e-08
1536703575605191128,1953,1536703575604869215,base_link,0.0138646782357,0.00168896743637,-0.969923823034,0.24300760399,1.0,0.0,0.0,0.0,1.0,0.0,0.0,0.0,1.0,0.00361013039947,0.0130221489817,0.0100835543126,1.21846967915e-07,0.0,0.0,0.0,1.21846967915e-07,0.0,0.0,0.0,1.21846967915e-07,0.0,0.3334261,11.75817335,9e-08,0.0,0.0,0.0,9e-08,0.0,0.0,0.0,9e-08
1536703576005334323,1954,1536703576005040569,base_link,0.0107411709905,0.000799104358003,-0.968629281743,0.248276666701,1.0,0.0,0.0,0.0,1.0,0.0,0.0,0.0,1.0,0.00699614174664,-0.0340217500925,0.031128892675,1.21846967915e-07,0.0,0.0,0.0,1.21846967915e-07,0.0,0.0,0.0,1.21846967915e-07,-0.10787315,0.4511059,9.9047165,9e-08,0.0,0.0,0.0,9e-08,0.0,0.0,0.0,9e-08
1536703576502644596,1955,1536703576502435289,base_link,0.00862510419761,-0.0237840845681,-0.966339470834,0.256023342698,1.0,0.0,0.0,0.0,1.0,0.0,0.0,0.0,1.0,0.151207461953,-0.0486221723258,0.0676364079118,1.21846967915e-07,0.0,0.0,0.0,1.21846967915e-07,0.0,0.0,0.0,1.21846967915e-07,0.0196133,0.196133,12.83690485,9e-08,0.0,0.0,0.0,9e-08,0.0,0.0,0.0,9e-08
1536703576954872620,1956,1536703576953983584,base_link,0.00590299237915,-0.00918360960734,-0.962226885089,0.272029846907,1.0,0.0,0.0,0.0,1.0,0.0,0.0,0.0,1.0,-0.0814520120621,0.141861453652,-0.0345558039844,1.21846967915e-07,0.0,0.0,0.0,1.21846967915e-07,0.0,0.0,0.0,1.21846967915e-07,-0.1372931,0.8825985,11.1599677,9e-08,0.0,0.0,0.0,9e-08,0.0,0.0,0.0,9e-08
1536703577298128976,1957,1536703577297889110,base_link,0.0269703690031,-0.0180085737203,-0.965419593428,0.258676050483,1.0,0.0,0.0,0.0,1.0,0.0,0.0,0.0,1.0,0.193859875202,0.00553538743407,-0.0246886201203,1.21846967915e-07,0.0,0.0,0.0,1.21846967915e-07,0.0,0.0,0.0,1.21846967915e-07,-0.2157463,0.1176798,8.237586,9e-08,0.0,0.0,0.0,9e-08,0.0,0.0,0.0,9e-08
1536703577788801590,1958,1536703577788489949,base_link,0.0333232590155,-0.0383350054099,-0.962770963207,0.265503408968,1.0,0.0,0.0,0.0,1.0,0.0,0.0,0.0,1.0,0.111965119839,0.0131167126819,-0.00806926842779,1.21846967915e-07,0.0,0.0,0.0,1.21846967915e-07,0.0,0.0,0.0,1.21846967915e-07,-0.2353596,0.55897905,9.85568325,9e-08,0.0,0.0,0.0,9e-08,0.0,0.0,0.0,9e-08
1536703578200600520,1959,1536703578200211601,base_link,0.0422989664893,-0.0376248768602,-0.96665031966,0.249764540271,1.0,0.0,0.0,0.0,1.0,0.0,0.0,0.0,1.0,-0.00309243425727,0.0314460359514,-0.0888759195805,1.21846967915e-07,0.0,0.0,0.0,1.21846967915e-07,0.0,0.0,0.0,1.21846967915e-07,-0.1372931,0.28439285,10.77750835,9e-08,0.0,0.0,0.0,9e-08,0.0,0.0,0.0,9e-08
1536703578653875275,1960,1536703578652587912,base_link,0.0367546383171,-0.0412586095291,-0.966442508267,0.250869890413,1.0,0.0,0.0,0.0,1.0,0.0,0.0,0.0,1.0,-0.279212385416,-0.0933005958796,0.0685565844178,1.21846967915e-07,0.0,0.0,0.0,1.21846967915e-07,0.0,0.0,0.0,1.21846967915e-07,-0.1176798,0.30400615,10.0616229,9e-08,0.0,0.0,0.0,9e-08,0.0,0.0,0.0,9e-08
1536703578997514265,1961,1536703578996631341,base_link,0.0283716526813,-0.025232312508,-0.965634606546,0.257115122797,1.0,0.0,0.0,0.0,1.0,0.0,0.0,0.0,1.0,0.19661334157,0.050150513649,-0.00411621388048,1.21846967915e-07,0.0,0.0,0.0,1.21846967915e-07,0.0,0.0,0.0,1.21846967915e-07,0.0,0.2745862,9.1005712,9e-08,0.0,0.0,0.0,9e-08,0.0,0.0,0.0,9e-08
1536703579491555026,1962,1536703579491002527,base_link,0.0320440806455,-0.0396791533333,-0.965711362476,0.254559042408,1.0,0.0,0.0,0.0,1.0,0.0,0.0,0.0,1.0,-0.0526588261127,0.0349677652121,-0.0514278933406,1.21846967915e-07,0.0,0.0,0.0,1.21846967915e-07,0.0,0.0,0.0,1.21846967915e-07,0.08825985,0.3334261,9.65955025,9e-08,0.0,0.0,0.0,9e-08,0.0,0.0,0.0,9e-08
1536703579724447614,1963,1536703579724149317,base_link,0.0351590179642,-0.0432351956972,-0.966802217929,0.249375284896,1.0,0.0,0.0,0.0,1.0,0.0,0.0,0.0,1.0,0.0662253797054,-0.0650640726089,-0.0188065897673,1.21846967915e-07,0.0,0.0,0.0,1.21846967915e-07,0.0,0.0,0.0,1.21846967915e-07,0.0,0.46091255,8.95347145,9e-08,0.0,0.0,0.0,9e-08,0.0,0.0,0.0,9e-08
1536703580103566044,1964,1536703580102253882,base_link,0.0326669622158,-0.0569403334461,-0.967623912359,0.243710139792,1.0,0.0,0.0,0.0,1.0,0.0,0.0,0.0,1.0,0.088710270822,-0.0257830005139,-0.0322190374136,1.21846967915e-07,0.0,0.0,0.0,1.21846967915e-07,0.0,0.0,0.0,1.21846967915e-07,0.0784532,0.6276256,10.6892485,9e-08,0.0,0.0,0.0,9e-08,0.0,0.0,0.0,9e-08
1536703580572916660,1965,1536703580572112262,base_link,0.0218574123239,-0.0761598683532,-0.966613785952,0.243679537069,1.0,0.0,0.0,0.0,1.0,0.0,0.0,0.0,1.0,-0.01266005449,-0.0324000418186,0.0913340374827,1.21846967915e-07,0.0,0.0,0.0,1.21846967915e-07,0.0,0.0,0.0,1.21846967915e-07,0.1372931,0.14709975,11.99353295,9e-08,0.0,0.0,0.0,9e-08,0.0,0.0,0.0,9e-08
1536703580954317364,1966,1536703580953940029,base_link,0.000413575144354,-0.0640078796696,-0.965604381383,0.252013886421,1.0,0.0,0.0,0.0,1.0,0.0,0.0,0.0,1.0,-0.134772092104,-0.06888897717,-0.00988513138145,1.21846967915e-07,0.0,0.0,0.0,1.21846967915e-07,0.0,0.0,0.0,1.21846967915e-07,0.08825985,0.7256921,11.52281375,9e-08,0.0,0.0,0.0,9e-08,0.0,0.0,0.0,9e-08
1536703581223456797,1967,1536703581222817963,base_link,-0.0147569296958,-0.0488834170857,-0.968205931968,0.244887561673,1.0,0.0,0.0,0.0,1.0,0.0,0.0,0.0,1.0,-0.0685863643885,-0.0607096776366,-0.0618795901537,1.21846967915e-07,0.0,0.0,0.0,1.21846967915e-07,0.0,0.0,0.0,1.21846967915e-07,0.08825985,0.4511059,11.83662655,9e-08,0.0,0.0,0.0,9e-08,0.0,0.0,0.0,9e-08
1536703581728172579,1968,1536703581727625167,base_link,-0.00244068750205,-0.0424708478847,-0.969860798132,0.23991728235,1.0,0.0,0.0,0.0,1.0,0.0,0.0,0.0,1.0,0.00920220930129,0.184785038233,0.0364851616323,1.21846967915e-07,0.0,0.0,0.0,1.21846967915e-07,0.0,0.0,0.0,1.21846967915e-07,0.0,0.22555295,7.2961476,9e-08,0.0,0.0,0.0,9e-08,0.0,0.0,0.0,9e-08
1536703582113263968,1969,1536703582112986310,base_link,0.0123294643538,-0.036228633053,-0.969962411163,0.240225709256,1.0,0.0,0.0,0.0,1.0,0.0,0.0,0.0,1.0,0.0154928127304,-0.00151776196435,-0.00761645939201,1.21846967915e-07,0.0,0.0,0.0,1.21846967915e-07,0.0,0.0,0.0,1.21846967915e-07,-0.0196133,0.2941995,7.83551335,9e-08,0.0,0.0,0.0,9e-08,0.0,0.0,0.0,9e-08
1536703582493187401,1970,1536703582492952846,base_link,0.00802582964073,-0.0359754747056,-0.96967397227,0.241606578513,1.0,0.0,0.0,0.0,1.0,0.0,0.0,0.0,1.0,-0.0503975786269,-0.0166103281081,-0.000184319913387,1.21846967915e-07,0.0,0.0,0.0,1.21846967915e-07,0.0,0.0,0.0,1.21846967915e-07,0.10787315,0.4118793,10.60098865,9e-08,0.0,0.0,0.0,9e-08,0.0,0.0,0.0,9e-08
1536703582972824409,1971,1536703582972399170,base_link,0.0120275880703,-0.031974355478,-0.971433216931,0.234841399162,1.0,0.0,0.0,0.0,1.0,0.0,0.0,0.0,1.0,0.0789945796132,0.0498926118016,0.00810792762786,1.21846967915e-07,0.0,0.0,0.0,1.21846967915e-07,0.0,0.0,0.0,1.21846967915e-07,0.196133,0.26477955,10.16949605,9e-08,0.0,0.0,0.0,9e-08,0.0,0.0,0.0,9e-08
1536703583489209110,1972,1536703583488821855,base_link,0.0167390550157,-0.0509548113264,-0.968740551819,0.242208906735,1.0,0.0,0.0,0.0,1.0,0.0,0.0,0.0,1.0,0.0675721690059,-0.0384749993682,0.0150952357799,1.21846967915e-07,0.0,0.0,0.0,1.21846967915e-07,0.0,0.0,0.0,1.21846967915e-07,0.2549729,0.4511059,10.1204628,9e-08,0.0,0.0,0.0,9e-08,0.0,0.0,0.0,9e-08
1536703583781275042,1973,1536703583780782637,base_link,0.0136881110453,-0.0605738164583,-0.967152403241,0.246494781448,1.0,0.0,0.0,0.0,1.0,0.0,0.0,0.0,1.0,-0.0188875868917,0.0136019112542,0.0570137500763,1.21846967915e-07,0.0,0.0,0.0,1.21846967915e-07,0.0,0.0,0.0,1.21846967915e-07,0.2941995,0.16671305,10.62060195,9e-08,0.0,0.0,0.0,9e-08,0.0,0.0,0.0,9e-08
1536703584153885633,1974,1536703584153691877,base_link,0.0235664114204,-0.0419027634964,-0.964449354584,0.259858086475,1.0,0.0,0.0,0.0,1.0,0.0,0.0,0.0,1.0,0.0122648160905,0.181279852986,0.0461709536612,1.21846967915e-07,0.0,0.0,0.0,1.21846967915e-07,0.0,0.0,0.0,1.21846967915e-07,0.38245935,0.4903325,10.4538889,9e-08,0.0,0.0,0.0,9e-08,0.0,0.0,0.0,9e-08
1536703584435603663,1975,1536703584433344610,base_link,0.035636993092,-0.0318872243663,-0.96516842534,0.25722192825,1.0,0.0,0.0,0.0,1.0,0.0,0.0,0.0,1.0,-0.11087577045,0.0628495588899,-0.0672581121325,1.21846967915e-07,0.0,0.0,0.0,1.21846967915e-07,0.0,0.0,0.0,1.21846967915e-07,0.1569064,0.53936575,7.9041599,9e-08,0.0,0.0,0.0,9e-08,0.0,0.0,0.0,9e-08
1536703584746720319,1976,1536703584743579975,base_link,0.039500615509,-0.027404817347,-0.967296353549,0.249051082654,1.0,0.0,0.0,0.0,1.0,0.0,0.0,0.0,1.0,0.0839996039867,-0.0324433334172,-0.0278059057891,1.21846967915e-07,0.0,0.0,0.0,1.21846967915e-07,0.0,0.0,0.0,1.21846967915e-07,0.14709975,0.40207265,9.48303055,9e-08,0.0,0.0,0.0,9e-08,0.0,0.0,0.0,9e-08
1536703585191736703,1977,1536703585190985104,base_link,0.0233686435101,-0.0187149192712,-0.969677002444,0.242549312982,1.0,0.0,0.0,0.0,1.0,0.0,0.0,0.0,1.0,-0.0773871168494,0.00555416382849,-0.047104049474,1.21846967915e-07,0.0,0.0,0.0,1.21846967915e-07,0.0,0.0,0.0,1.21846967915e-07,0.24516625,0.784532,10.87557485,9e-08,0.0,0.0,0.0,9e-08,0.0,0.0,0.0,9e-08
1536703585640662430,1978,1536703585638011130,base_link,0.00235849628291,-0.0288983660775,-0.972179951689,0.232433782974,1.0,0.0,0.0,0.0,1.0,0.0,0.0,0.0,1.0,0.0542070642114,-0.150938585401,0.0504792928696,1.21846967915e-07,0.0,0.0,0.0,1.21846967915e-07,0.0,0.0,0.0,1.21846967915e-07,0.20593965,0.20593965,11.1991943,9e-08,0.0,0.0,0.0,9e-08,0.0,0.0,0.0,9e-08
1536703586042258163,1979,1536703586042008505,base_link,-0.00818637516974,-0.0418182973148,-0.968840878369,0.243990913094,1.0,0.0,0.0,0.0,1.0,0.0,0.0,0.0,1.0,0.188922300935,0.01081016846,-0.05417284742,1.21846967915e-07,0.0,0.0,0.0,1.21846967915e-07,0.0,0.0,0.0,1.21846967915e-07,0.24516625,0.6276256,10.3754357,9e-08,0.0,0.0,0.0,9e-08,0.0,0.0,0.0,9e-08
1536703586376575710,1980,1536703586376021547,base_link,0.00876538392185,-0.0804507702661,-0.970196861212,0.228405105248,1.0,0.0,0.0,0.0,1.0,0.0,0.0,0.0,1.0,0.238420605659,-0.046970333904,-0.0429903715849,1.21846967915e-07,0.0,0.0,0.0,1.21846967915e-07,0.0,0.0,0.0,1.21846967915e-07,0.14709975,0.08825985,9.2770909,9e-08,0.0,0.0,0.0,9e-08,0.0,0.0,0.0,9e-08
1536703586724973767,1981,1536703586724666318,base_link,0.0216172286562,-0.127664255588,-0.96449203825,0.230194790174,1.0,0.0,0.0,0.0,1.0,0.0,0.0,0.0,1.0,0.0804410874844,0.0466841422021,0.0306563079357,1.21846967915e-07,0.0,0.0,0.0,1.21846967915e-07,0.0,0.0,0.0,1.21846967915e-07,0.2941995,0.59820565,9.34573745,9e-08,0.0,0.0,0.0,9e-08,0.0,0.0,0.0,9e-08
1536703587101347758,1982,1536703587100739356,base_link,0.0365421600284,-0.145032122842,-0.964043352789,0.219660574132,1.0,0.0,0.0,0.0,1.0,0.0,0.0,0.0,1.0,0.112113252282,0.0251423735172,-0.120894104242,1.21846967915e-07,0.0,0.0,0.0,1.21846967915e-07,0.0,0.0,0.0,1.21846967915e-07,0.2353596,0.51975245,9.4536106,9e-08,0.0,0.0,0.0,9e-08,0.0,0.0,0.0,9e-08
1536703587549139467,1983,1536703587548830194,base_link,0.0518846947724,-0.193552036225,-0.964014450273,0.174704686216,1.0,0.0,0.0,0.0,1.0,0.0,0.0,0.0,1.0,0.292149722576,0.000106311868876,-0.189352080226,1.21846967915e-07,0.0,0.0,0.0,1.21846967915e-07,0.0,0.0,0.0,1.21846967915e-07,0.2353596,0.3138128,9.0417313,9e-08,0.0,0.0,0.0,9e-08,0.0,0.0,0.0,9e-08
1536703587848028469,1984,1536703587847754556,base_link,0.0372699333206,-0.228228917772,-0.961662821279,0.1474012596,1.0,0.0,0.0,0.0,1.0,0.0,0.0,0.0,1.0,0.0304757598788,-0.184313774109,-0.106216594577,1.21846967915e-07,0.0,0.0,0.0,1.21846967915e-07,0.0,0.0,0.0,1.21846967915e-07,0.36284605,0.4707192,11.0815145,9e-08,0.0,0.0,0.0,9e-08,0.0,0.0,0.0,9e-08
1536703588169952492,1985,1536703588169743761,base_link,0.0248164950614,-0.264040777459,-0.957235977548,0.115610954066,1.0,0.0,0.0,0.0,1.0,0.0,0.0,0.0,1.0,0.202992677689,-0.133615538478,-0.240474790335,1.21846967915e-07,0.0,0.0,0.0,1.21846967915e-07,0.0,0.0,0.0,1.21846967915e-07,0.48052585,0.9022118,10.87557485,9e-08,0.0,0.0,0.0,9e-08,0.0,0.0,0.0,9e-08
1536703588593775744,1986,1536703588593451431,base_link,0.0120009601014,-0.305076559715,-0.951058518419,0.0476651257395,1.0,0.0,0.0,0.0,1.0,0.0,0.0,0.0,1.0,0.230411633849,-0.236819282174,-0.271942734718,1.21846967915e-07,0.0,0.0,0.0,1.21846967915e-07,0.0,0.0,0.0,1.21846967915e-07,0.59820565,0.784532,11.5914603,9e-08,0.0,0.0,0.0,9e-08,0.0,0.0,0.0,9e-08
1536703589015745918,1987,1536703589015464036,base_link,-0.0195674366959,-0.311632278056,-0.949823237771,-0.0183917287001,1.0,0.0,0.0,0.0,1.0,0.0,0.0,0.0,1.0,0.0994969755411,-0.243243604898,-0.211544170976,1.21846967915e-07,0.0,0.0,0.0,1.21846967915e-07,0.0,0.0,0.0,1.21846967915e-07,0.91201845,0.63743225,12.87613145,9e-08,0.0,0.0,0.0,9e-08,0.0,0.0,0.0,9e-08
1536703589411219343,1988,1536703589410931765,base_link,-0.0467622376149,-0.325129842525,-0.941143697463,-0.0797020662098,1.0,0.0,0.0,0.0,1.0,0.0,0.0,0.0,1.0,0.019380191341,-0.233250394464,-0.336186766624,1.21846967915e-07,0.0,0.0,0.0,1.21846967915e-07,0.0,0.0,0.0,1.21846967915e-07,0.95124505,1.36312435,13.11149105,9e-08,0.0,0.0,0.0,9e-08,0.0,0.0,0.0,9e-08
1536703589763747161,1989,1536703589763450656,base_link,-0.0645159831637,-0.33008175806,-0.92810762616,-0.159687053877,1.0,0.0,0.0,0.0,1.0,0.0,0.0,0.0,1.0,0.0897058621049,-0.246647596359,-0.404288500547,1.21846967915e-07,0.0,0.0,0.0,1.21846967915e-07,0.0,0.0,0.0,1.21846967915e-07,0.69627215,0.784532,11.69933345,9e-08,0.0,0.0,0.0,9e-08,0.0,0.0,0.0,9e-08
1536703590221712906,1990,1536703590221424785,base_link,-0.100837164641,-0.338720002765,-0.901886398984,-0.248397965536,1.0,0.0,0.0,0.0,1.0,0.0,0.0,0.0,1.0,-0.0385201722383,-0.299091309309,-0.220435887575,1.21846967915e-07,0.0,0.0,0.0,1.21846967915e-07,0.0,0.0,0.0,1.21846967915e-07,0.8433719,0.48052585,12.30734575,9e-08,0.0,0.0,0.0,9e-08,0.0,0.0,0.0,9e-08
1536703590625111289,1991,1536703590624750785,base_link,-0.121416460105,-0.315971507584,-0.887899577716,-0.311535534894,1.0,0.0,0.0,0.0,1.0,0.0,0.0,0.0,1.0,-0.0625752881169,-0.207385331392,-0.318981558084,1.21846967915e-07,0.0,0.0,0.0,1.21846967915e-07,0.0,0.0,0.0,1.21846967915e-07,0.588399,1.0983448,10.7088618,9e-08,0.0,0.0,0.0,9e-08,0.0,0.0,0.0,9e-08
1536703591044631701,1992,1536703591043973060,base_link,-0.141641779405,-0.303021197703,-0.859124691936,-0.387324829796,1.0,0.0,0.0,0.0,1.0,0.0,0.0,0.0,1.0,0.000333465635777,-0.106595017016,-0.329298943281,1.21846967915e-07,0.0,0.0,0.0,1.21846967915e-07,0.0,0.0,0.0,1.21846967915e-07,0.6668522,0.8433719,12.20927925,9e-08,0.0,0.0,0.0,9e-08,0.0,0.0,0.0,9e-08
1536703591405612231,1993,1536703591405250031,base_link,-0.166369092563,-0.286882297702,-0.82666263697,-0.45458635807,1.0,0.0,0.0,0.0,1.0,0.0,0.0,0.0,1.0,-0.0452345833182,-0.312487989664,-0.280099183321,1.21846967915e-07,0.0,0.0,0.0,1.21846967915e-07,0.0,0.0,0.0,1.21846967915e-07,0.77472535,0.7256921,13.3762706,9e-08,0.0,0.0,0.0,9e-08,0.0,0.0,0.0,9e-08
1536703591775449038,1994,1536703591775099478,base_link,-0.1957457594,-0.265032520712,-0.794798646322,-0.509643475822,1.0,0.0,0.0,0.0,1.0,0.0,0.0,0.0,1.0,-0.083374813199,-0.292484074831,-0.258187681437,1.21846967915e-07,0.0,0.0,0.0,1.21846967915e-07,0.0,0.0,0.0,1.21846967915e-07,0.7060788,1.06892485,13.91563635,9e-08,0.0,0.0,0.0,9e-08,0.0,0.0,0.0,9e-08
1536703592217294966,1995,1536703592216243182,base_link,-0.178374612255,-0.218466745933,-0.764765334472,-0.579300234606,1.0,0.0,0.0,0.0,1.0,0.0,0.0,0.0,1.0,-0.110138565302,-0.0123183690012,-0.327543914318,1.21846967915e-07,0.0,0.0,0.0,1.21846967915e-07,0.0,0.0,0.0,1.21846967915e-07,0.4314926,0.97085835,10.2185293,9e-08,0.0,0.0,0.0,9e-08,0.0,0.0,0.0,9e-08
1536703592576984155,1996,1536703592576232140,base_link,-0.153979719651,-0.194479856829,-0.736810786845,-0.628949676535,1.0,0.0,0.0,0.0,1.0,0.0,0.0,0.0,1.0,-0.170372247696,-0.0986856147647,-0.254499584436,1.21846967915e-07,0.0,0.0,0.0,1.21846967915e-07,0.0,0.0,0.0,1.21846967915e-07,0.2353596,0.6472389,10.05181625,9e-08,0.0,0.0,0.0,9e-08,0.0,0.0,0.0,9e-08
1536703592934474003,1997,1536703592934019293,base_link,-0.141258398862,-0.162260272038,-0.717253442084,-0.662770826672,1.0,0.0,0.0,0.0,1.0,0.0,0.0,0.0,1.0,-0.257979631424,-0.183543249965,-0.143380895257,1.21846967915e-07,0.0,0.0,0.0,1.21846967915e-07,0.0,0.0,0.0,1.21846967915e-07,0.2353596,0.50013915,10.11065615,9e-08,0.0,0.0,0.0,9e-08,0.0,0.0,0.0,9e-08
1536703593364314942,1998,1536703593361453440,base_link,-0.104988035307,-0.101501649236,-0.706643782827,-0.692336256336,1.0,0.0,0.0,0.0,1.0,0.0,0.0,0.0,1.0,-0.354241430759,-0.0295158363879,-0.120049864054,1.21846967915e-07,0.0,0.0,0.0,1.21846967915e-07,0.0,0.0,0.0,1.21846967915e-07,0.2157463,0.8041453,10.7480884,9e-08,0.0,0.0,0.0,9e-08,0.0,0.0,0.0,9e-08
1536703593704189218,1999,1536703593703527953,base_link,-0.0653976781591,-0.0535244614429,-0.695116728472,-0.713912466285,1.0,0.0,0.0,0.0,1.0,0.0,0.0,0.0,1.0,-0.308226883411,-0.00631256680936,-0.123620353639,1.21846967915e-07,0.0,0.0,0.0,1.21846967915e-07,0.0,0.0,0.0,1.21846967915e-07,0.24516625,0.83356525,10.91480145,9e-08,0.0,0.0,0.0,9e-08,0.0,0.0,0.0,9e-08
1536703594114683750,2000,1536703594114321742,base_link,-0.0195249003784,-0.0234758161287,-0.681567547165,-0.731117872148,1.0,0.0,0.0,0.0,1.0,0.0,0.0,0.0,1.0,-0.19707454741,0.0472747348249,-0.0871159732342,1.21846967915e-07,0.0,0.0,0.0,1.21846967915e-07,0.0,0.0,0.0,1.21846967915e-07,0.04903325,0.7060788,9.1594111,9e-08,0.0,0.0,0.0,9e-08,0.0,0.0,0.0,9e-08
1536703594484852836,2001,1536703594483663839,base_link,0.0062224785792,0.00593422749893,-0.675725913271,-0.737102812258,1.0,0.0,0.0,0.0,1.0,0.0,0.0,0.0,1.0,-0.189641535282,-0.104947276413,0.025842834264,1.21846967915e-07,0.0,0.0,0.0,1.21846967915e-07,0.0,0.0,0.0,1.21846967915e-07,0.0588399,0.2549729,10.54214875,9e-08,0.0,0.0,0.0,9e-08,0.0,0.0,0.0,9e-08
1536703594889921692,2002,1536703594888535868,base_link,0.0249730974252,0.0342970764369,-0.684181166931,-0.728077046589,1.0,0.0,0.0,0.0,1.0,0.0,0.0,0.0,1.0,-0.115182980895,0.0170872043818,0.100017040968,1.21846967915e-07,0.0,0.0,0.0,1.21846967915e-07,0.0,0.0,0.0,1.21846967915e-07,0.20593965,0.53936575,10.65982855,9e-08,0.0,0.0,0.0,9e-08,0.0,0.0,0.0,9e-08
1536703595172681911,2003,1536703595172365342,base_link,0.0396275805569,0.0354053900035,-0.692493032921,-0.719464740327,1.0,0.0,0.0,0.0,1.0,0.0,0.0,0.0,1.0,-0.0712487474084,0.0470275208354,0.0921649858356,1.21846967915e-07,0.0,0.0,0.0,1.21846967915e-07,0.0,0.0,0.0,1.21846967915e-07,0.02941995,0.22555295,8.9632781,9e-08,0.0,0.0,0.0,9e-08,0.0,0.0,0.0,9e-08
1536703595626721880,2004,1536703595626477341,base_link,0.0453165810435,0.0501946150478,-0.709040524606,-0.701917689312,1.0,0.0,0.0,0.0,1.0,0.0,0.0,0.0,1.0,0.0189708173275,-0.0272184479982,0.0856801345944,1.21846967915e-07,0.0,0.0,0.0,1.21846967915e-07,0.0,0.0,0.0,1.21846967915e-07,0.08825985,0.32361945,10.198916,9e-08,0.0,0.0,0.0,9e-08,0.0,0.0,0.0,9e-08
1536703595993636950,2005,1536703595986763637,base_link,0.0314859068455,0.043699870423,-0.72104631574,-0.690790250042,1.0,0.0,0.0,0.0,1.0,0.0,0.0,0.0,1.0,0.124611668289,-0.029632229358,0.0737431123853,1.21846967915e-07,0.0,0.0,0.0,1.21846967915e-07,0.0,0.0,0.0,1.21846967915e-07,0.16671305,0.2549729,10.46369555,9e-08,0.0,0.0,0.0,9e-08,0.0,0.0,0.0,9e-08
1536703596340109635,2006,1536703596334006225,base_link,0.024196726508,0.0203329682687,-0.734359802476,-0.678024165746,1.0,0.0,0.0,0.0,1.0,0.0,0.0,0.0,1.0,0.132536172867,0.0212648548186,0.121512189507,1.21846967915e-07,0.0,0.0,0.0,1.21846967915e-07,0.0,0.0,0.0,1.21846967915e-07,0.1176798,0.3530394,8.9632781,9e-08,0.0,0.0,0.0,9e-08,0.0,0.0,0.0,9e-08
1536703596747341074,2007,1536703596746730816,base_link,0.00849132048332,-0.00349485020857,-0.748457736189,-0.663118918926,1.0,0.0,0.0,0.0,1.0,0.0,0.0,0.0,1.0,0.152456402779,0.0852410271764,0.0668623670936,1.21846967915e-07,0.0,0.0,0.0,1.21846967915e-07,0.0,0.0,0.0,1.21846967915e-07,0.02941995,0.40207265,9.1594111,9e-08,0.0,0.0,0.0,9e-08,0.0,0.0,0.0,9e-08
1536703597218837323,2008,1536703597218309207,base_link,-0.011112755917,-0.0444130289866,-0.750396214512,-0.659400872579,1.0,0.0,0.0,0.0,1.0,0.0,0.0,0.0,1.0,0.256601929665,0.0368642508984,0.0252511706203,1.21846967915e-07,0.0,0.0,0.0,1.21846967915e-07,0.0,0.0,0.0,1.21846967915e-07,0.196133,0.24516625,9.77723005,9e-08,0.0,0.0,0.0,9e-08,0.0,0.0,0.0,9e-08
1536703597601996444,2009,1536703597598848069,base_link,-0.0389139108159,-0.0731797002709,-0.753276383871,-0.652460825272,1.0,0.0,0.0,0.0,1.0,0.0,0.0,0.0,1.0,0.105030842125,0.0500985085964,0.0556338578463,1.21846967915e-07,0.0,0.0,0.0,1.21846967915e-07,0.0,0.0,0.0,1.21846967915e-07,0.1765197,0.63743225,9.91452315,9e-08,0.0,0.0,0.0,9e-08,0.0,0.0,0.0,9e-08
1536703597988783673,2010,1536703597988458368,base_link,-0.0353800891711,-0.0814657735869,-0.751760449564,-0.65342773395,1.0,0.0,0.0,0.0,1.0,0.0,0.0,0.0,1.0,-0.0326614491642,0.0757652521133,-0.0872907936573,1.21846967915e-07,0.0,0.0,0.0,1.21846967915e-07,0.0,0.0,0.0,1.21846967915e-07,0.0588399,0.588399,9.6693569,9e-08,0.0,0.0,0.0,9e-08,0.0,0.0,0.0,9e-08
1536703598480808257,2011,1536703598480244174,base_link,-0.0400927361852,-0.0971931481983,-0.729996450064,-0.675315664961,1.0,0.0,0.0,0.0,1.0,0.0,0.0,0.0,1.0,0.111085161567,-0.106527268887,-0.118769347668,1.21846967915e-07,0.0,0.0,0.0,1.21846967915e-07,0.0,0.0,0.0,1.21846967915e-07,0.08825985,0.57859235,10.0616229,9e-08,0.0,0.0,0.0,9e-08,0.0,0.0,0.0,9e-08
1536703598803557889,2012,1536703598803228872,base_link,-0.0653870755148,-0.11267133397,-0.716144447502,-0.68568712338,1.0,0.0,0.0,0.0,1.0,0.0,0.0,0.0,1.0,0.291931569576,-0.0969179272652,-0.068329654634,1.21846967915e-07,0.0,0.0,0.0,1.21846967915e-07,0.0,0.0,0.0,1.21846967915e-07,0.00980665,0.16671305,10.38524235,9e-08,0.0,0.0,0.0,9e-08,0.0,0.0,0.0,9e-08
1536703599197952540,2013,1536703599196680346,base_link,-0.113163415475,-0.123175498188,-0.70326971499,-0.69096566197,1.0,0.0,0.0,0.0,1.0,0.0,0.0,0.0,1.0,0.191934078932,-0.103827998042,-0.037581268698,1.21846967915e-07,0.0,0.0,0.0,1.21846967915e-07,0.0,0.0,0.0,1.21846967915e-07,0.26477955,0.6080123,11.6895268,9e-08,0.0,0.0,0.0,9e-08,0.0,0.0,0.0,9e-08
1536703599535936561,2014,1536703599535600601,base_link,-0.131830048534,-0.135114110297,-0.688413170211,-0.700323013032,1.0,0.0,0.0,0.0,1.0,0.0,0.0,0.0,1.0,0.0604618862271,-0.0145049924031,-0.190828219056,1.21846967915e-07,0.0,0.0,0.0,1.21846967915e-07,0.0,0.0,0.0,1.21846967915e-07,0.1569064,0.9218251,11.03248125,9e-08,0.0,0.0,0.0,9e-08,0.0,0.0,0.0,9e-08
1536703599929091620,2015,1536703599927705028,base_link,-0.149620662346,-0.140892846206,-0.650482995951,-0.731187209452,1.0,0.0,0.0,0.0,1.0,0.0,0.0,0.0,1.0,0.0895983278751,-0.122200526297,-0.213748976588,1.21846967915e-07,0.0,0.0,0.0,1.21846967915e-07,0.0,0.0,0.0,1.21846967915e-07,0.22555295,0.6668522,10.9638347,9e-08,0.0,0.0,0.0,9e-08,0.0,0.0,0.0,9e-08
1536703600213511791,2016,1536703600211048328,base_link,-0.163628179988,-0.145546916755,-0.631091338307,-0.74415430957,1.0,0.0,0.0,0.0,1.0,0.0,0.0,0.0,1.0,0.193229600787,-0.0391359254718,-0.0818670764565,1.21846967915e-07,0.0,0.0,0.0,1.21846967915e-07,0.0,0.0,0.0,1.21846967915e-07,0.1765197,0.5687857,10.26756255,9e-08,0.0,0.0,0.0,9e-08,0.0,0.0,0.0,9e-08
1536703600706851580,2017,1536703600703209617,base_link,-0.191893723152,-0.139653782368,-0.592509614424,-0.769809052234,1.0,0.0,0.0,0.0,1.0,0.0,0.0,0.0,1.0,0.0746699124575,-0.0561358593404,-0.216869726777,1.21846967915e-07,0.0,0.0,0.0,1.21846967915e-07,0.0,0.0,0.0,1.21846967915e-07,0.2549729,0.81395195,10.56176205,9e-08,0.0,0.0,0.0,9e-08,0.0,0.0,0.0,9e-08
1536703601121239475,2018,1536703601120708767,base_link,-0.200012632911,-0.120752597024,-0.548028956185,-0.803167491978,1.0,0.0,0.0,0.0,1.0,0.0,0.0,0.0,1.0,0.0521530210972,-0.102462470531,-0.200881391764,1.21846967915e-07,0.0,0.0,0.0,1.21846967915e-07,0.0,0.0,0.0,1.21846967915e-07,0.6080123,0.4511059,13.4154972,9e-08,0.0,0.0,0.0,9e-08,0.0,0.0,0.0,9e-08
1536703601412117117,2019,1536703601411723303,base_link,-0.212196558999,-0.120631697652,-0.525352203053,-0.815123105192,1.0,0.0,0.0,0.0,1.0,0.0,0.0,0.0,1.0,0.0772538855672,-0.103267550468,-0.157759189606,1.21846967915e-07,0.0,0.0,0.0,1.21846967915e-07,0.0,0.0,0.0,1.21846967915e-07,0.28439285,0.69627215,10.9638347,9e-08,0.0,0.0,0.0,9e-08,0.0,0.0,0.0,9e-08
1536703601721967182,2020,1536703601720646221,base_link,-0.219808465505,-0.116242050843,-0.493178540354,-0.833634783009,1.0,0.0,0.0,0.0,1.0,0.0,0.0,0.0,1.0,-0.107828609645,-0.0428391434252,-0.211850836873,1.21846967915e-07,0.0,0.0,0.0,1.21846967915e-07,0.0,0.0,0.0,1.21846967915e-07,0.38245935,0.69627215,11.0619012,9e-08,0.0,0.0,0.0,9e-08,0.0,0.0,0.0,9e-08
1536703602012464865,2021,1536703602011991052,base_link,-0.21986615053,-0.111523055799,-0.461251481636,-0.852331246972,1.0,0.0,0.0,0.0,1.0,0.0,0.0,0.0,1.0,0.080531604588,-0.1228909567,-0.231938496232,1.21846967915e-07,0.0,0.0,0.0,1.21846967915e-07,0.0,0.0,0.0,1.21846967915e-07,0.3138128,0.59820565,10.79712165,9e-08,0.0,0.0,0.0,9e-08,0.0,0.0,0.0,9e-08
1536703602473740319,2022,1536703602473211115,base_link,-0.238758063404,-0.114215831194,-0.412258169423,-0.871775505969,1.0,0.0,0.0,0.0,1.0,0.0,0.0,0.0,1.0,0.104142837226,-0.0852550268173,-0.21865683794,1.21846967915e-07,0.0,0.0,0.0,1.21846967915e-07,0.0,0.0,0.0,1.21846967915e-07,0.1569064,0.8629852,10.38524235,9e-08,0.0,0.0,0.0,9e-08,0.0,0.0,0.0,9e-08
1536703602823961306,2023,1536703602823170284,base_link,-0.251876523882,-0.118429243031,-0.363316917446,-0.889119535614,1.0,0.0,0.0,0.0,1.0,0.0,0.0,0.0,1.0,0.0726690664887,-0.0259888917208,-0.315517365932,1.21846967915e-07,0.0,0.0,0.0,1.21846967915e-07,0.0,0.0,0.0,1.21846967915e-07,0.0980665,0.77472535,9.5712904,9e-08,0.0,0.0,0.0,9e-08,0.0,0.0,0.0,9e-08
1536703603225070540,2024,1536703603224636374,base_link,-0.270784560244,-0.117759045288,-0.299546609577,-0.907237762594,1.0,0.0,0.0,0.0,1.0,0.0,0.0,0.0,1.0,0.102640286088,-0.189899265766,-0.265777975321,1.21846967915e-07,0.0,0.0,0.0,1.21846967915e-07,0.0,0.0,0.0,1.21846967915e-07,0.16671305,0.71588545,10.7677017,9e-08,0.0,0.0,0.0,9e-08,0.0,0.0,0.0,9e-08
1536703603630824973,2025,1536703603630578259,base_link,-0.280660804207,-0.113791042007,-0.245432510361,-0.920893041888,1.0,0.0,0.0,0.0,1.0,0.0,0.0,0.0,1.0,0.00466064736247,-0.136568486691,-0.259774774313,1.21846967915e-07,0.0,0.0,0.0,1.21846967915e-07,0.0,0.0,0.0,1.21846967915e-07,0.20593965,0.71588545,10.05181625,9e-08,0.0,0.0,0.0,9e-08,0.0,0.0,0.0,9e-08
1536703604098404393,2026,1536703604098055857,base_link,-0.300786431528,-0.0830528355438,-0.160718944617,-0.936375549637,1.0,0.0,0.0,0.0,1.0,0.0,0.0,0.0,1.0,0.0654205009341,-0.113435693085,-0.241457626224,1.21846967915e-07,0.0,0.0,0.0,1.21846967915e-07,0.0,0.0,0.0,1.21846967915e-07,0.4314926,0.9022118,13.140911,9e-08,0.0,0.0,0.0,9e-08,0.0,0.0,0.0,9e-08
1536703604527134278,2027,1536703604526658609,base_link,-0.313064490566,-0.057130279848,-0.0870133898235,-0.944010289066,1.0,0.0,0.0,0.0,1.0,0.0,0.0,0.0,1.0,-0.0195904430002,-0.258299380541,-0.301810503006,1.21846967915e-07,0.0,0.0,0.0,1.21846967915e-07,0.0,0.0,0.0,1.21846967915e-07,0.42168595,0.95124505,12.1406327,9e-08,0.0,0.0,0.0,9e-08,0.0,0.0,0.0,9e-08
1536703604929264016,2028,1536703604928572225,base_link,-0.330362785799,-0.045365897702,-0.00888448863392,-0.942721290173,1.0,0.0,0.0,0.0,1.0,0.0,0.0,0.0,1.0,0.25282651186,-0.27327761054,-0.295638024807,1.21846967915e-07,0.0,0.0,0.0,1.21846967915e-07,0.0,0.0,0.0,1.21846967915e-07,0.51975245,0.3726527,11.6699135,9e-08,0.0,0.0,0.0,9e-08,0.0,0.0,0.0,9e-08
1536703605305545999,2029,1536703605305060698,base_link,-0.34170079368,-0.00899402742065,0.0480211205907,-0.93853803708,1.0,0.0,0.0,0.0,1.0,0.0,0.0,0.0,1.0,-0.0458497479558,-0.145201042295,-0.156939059496,1.21846967915e-07,0.0,0.0,0.0,1.21846967915e-07,0.0,0.0,0.0,1.21846967915e-07,0.67665885,0.71588545,11.87585315,9e-08,0.0,0.0,0.0,9e-08,0.0,0.0,0.0,9e-08
1536703605576530891,2030,1536703605576242450,base_link,-0.326176979743,0.0184406158282,0.0892554398922,-0.940904877245,1.0,0.0,0.0,0.0,1.0,0.0,0.0,0.0,1.0,-0.140263468027,-0.282816141844,-0.273887038231,1.21846967915e-07,0.0,0.0,0.0,1.21846967915e-07,0.0,0.0,0.0,1.21846967915e-07,0.57859235,1.26505785,12.8467115,9e-08,0.0,0.0,0.0,9e-08,0.0,0.0,0.0,9e-08
1536703606031111871,2031,1536703606030334929,base_link,-0.300783051214,0.0359219642073,0.172235703548,-0.937322799794,1.0,0.0,0.0,0.0,1.0,0.0,0.0,0.0,1.0,-0.0896926298738,-0.263204306364,-0.303565591574,1.21846967915e-07,0.0,0.0,0.0,1.21846967915e-07,0.0,0.0,0.0,1.21846967915e-07,0.6080123,0.7256921,11.58165365,9e-08,0.0,0.0,0.0,9e-08,0.0,0.0,0.0,9e-08
1536703606425331405,2032,1536703606424689180,base_link,-0.279184178396,0.0683995132544,0.234517828509,-0.928643682599,1.0,0.0,0.0,0.0,1.0,0.0,0.0,0.0,1.0,-0.167124584317,-0.227851107717,-0.152670115232,1.21846967915e-07,0.0,0.0,0.0,1.21846967915e-07,0.0,0.0,0.0,1.21846967915e-07,0.53936575,0.784532,12.0425662,9e-08,0.0,0.0,0.0,9e-08,0.0,0.0,0.0,9e-08
1536703606805048591,2033,1536703606804872179,base_link,-0.222377962539,0.076919655929,0.285888581411,-0.928923639126,1.0,0.0,0.0,0.0,1.0,0.0,0.0,0.0,1.0,-0.427873045206,-0.0803500041366,-0.248641356826,1.21846967915e-07,0.0,0.0,0.0,1.21846967915e-07,0.0,0.0,0.0,1.21846967915e-07,0.32361945,1.10815145,11.87585315,9e-08,0.0,0.0,0.0,9e-08,0.0,0.0,0.0,9e-08
1536703607219510110,2034,1536703607219231236,base_link,-0.126676574242,0.0583467983124,0.338828717209,-0.930453543741,1.0,0.0,0.0,0.0,1.0,0.0,0.0,0.0,1.0,-0.463411182165,-0.0733015015721,-0.182270765305,1.21846967915e-07,0.0,0.0,0.0,1.21846967915e-07,0.0,0.0,0.0,1.21846967915e-07,0.2157463,0.81395195,11.24822755,9e-08,0.0,0.0,0.0,9e-08,0.0,0.0,0.0,9e-08
1536703607587040051,2035,1536703607582403136,base_link,-0.0603729461456,0.0477528905693,0.359011427965,-0.930153516043,1.0,0.0,0.0,0.0,1.0,0.0,0.0,0.0,1.0,-0.339873850346,-0.0463480986655,0.00539516378194,1.21846967915e-07,0.0,0.0,0.0,1.21846967915e-07,0.0,0.0,0.0,1.21846967915e-07,0.0588399,0.392266,11.20900095,9e-08,0.0,0.0,0.0,9e-08,0.0,0.0,0.0,9e-08
1536703607862354332,2036,1536703607860869630,base_link,-0.0065132131026,0.0393254729472,0.35504526174,-0.93399890115,1.0,0.0,0.0,0.0,1.0,0.0,0.0,0.0,1.0,-0.383873313665,-0.0414055734873,0.0673612952232,1.21846967915e-07,0.0,0.0,0.0,1.21846967915e-07,0.0,0.0,0.0,1.21846967915e-07,0.0,0.61781895,11.6895268,9e-08,0.0,0.0,0.0,9e-08,0.0,0.0,0.0,9e-08
1536703608248180830,2037,1536703608247855429,base_link,0.0604630337904,0.0223261109893,0.349329800728,-0.934780432314,1.0,0.0,0.0,0.0,1.0,0.0,0.0,0.0,1.0,-0.311147212982,-0.061486646533,0.00615577399731,1.21846967915e-07,0.0,0.0,0.0,1.21846967915e-07,0.0,0.0,0.0,1.21846967915e-07,-0.0196133,0.7060788,11.0815145,9e-08,0.0,0.0,0.0,9e-08,0.0,0.0,0.0,9e-08
1536703608679175192,2038,1536703608675934244,base_link,0.11127547512,0.0099450213698,0.34296218377,-0.932682049624,1.0,0.0,0.0,0.0,1.0,0.0,0.0,0.0,1.0,-0.138731211424,0.0445466004312,0.10592854023,1.21846967915e-07,0.0,0.0,0.0,1.21846967915e-07,0.0,0.0,0.0,1.21846967915e-07,-0.04903325,0.0784532,10.5323421,9e-08,0.0,0.0,0.0,9e-08,0.0,0.0,0.0,9e-08
1536703609047857608,2039,1536703609047386899,base_link,0.129037613761,-0.00397883486944,0.316729569015,-0.939689226936,1.0,0.0,0.0,0.0,1.0,0.0,0.0,0.0,1.0,-0.0702854245901,0.0324537791312,0.166768923402,1.21846967915e-07,0.0,0.0,0.0,1.21846967915e-07,0.0,0.0,0.0,1.21846967915e-07,-0.0588399,0.2353596,9.58109705,9e-08,0.0,0.0,0.0,9e-08,0.0,0.0,0.0,9e-08
1536703609512622141,2040,1536703609512180103,base_link,0.136325762195,-0.0330144561082,0.277924672778,-0.950306902275,1.0,0.0,0.0,0.0,1.0,0.0,0.0,0.0,1.0,-0.0595698207617,0.13718496263,0.156225293875,1.21846967915e-07,0.0,0.0,0.0,1.21846967915e-07,0.0,0.0,0.0,1.21846967915e-07,-0.3530394,0.50013915,6.97252815,9e-08,0.0,0.0,0.0,9e-08,0.0,0.0,0.0,9e-08
1536703609878427816,2041,1536703609877398624,base_link,0.140824154236,-0.0597798138506,0.25701847394,-0.954220328589,1.0,0.0,0.0,0.0,1.0,0.0,0.0,0.0,1.0,-0.00907390937209,0.139322251081,0.157726332545,1.21846967915e-07,0.0,0.0,0.0,1.21846967915e-07,0.0,0.0,0.0,1.21846967915e-07,-0.3138128,0.02941995,7.5118939,9e-08,0.0,0.0,0.0,9e-08,0.0,0.0,0.0,9e-08
1536703610220008294,2042,1536703610217258983,base_link,0.119963019813,-0.0675507066235,0.227820784669,-0.9639208816,1.0,0.0,0.0,0.0,1.0,0.0,0.0,0.0,1.0,0.153328239918,-0.0227583870292,0.20625127852,1.21846967915e-07,0.0,0.0,0.0,1.21846967915e-07,0.0,0.0,0.0,1.21846967915e-07,-0.3334261,0.0588399,8.2768126,9e-08,0.0,0.0,0.0,9e-08,0.0,0.0,0.0,9e-08
