%time,field.header.seq,field.header.stamp,field.header.frame_id,field.orientation.x,field.orientation.y,field.orientation.z,field.orientation.w,field.orientation_covariance0,field.orientation_covariance1,field.orientation_covariance2,field.orientation_covariance3,field.orientation_covariance4,field.orientation_covariance5,field.orientation_covariance6,field.orientation_covariance7,field.orientation_covariance8,field.angular_velocity.x,field.angular_velocity.y,field.angular_velocity.z,field.angular_velocity_covariance0,field.angular_velocity_covariance1,field.angular_velocity_covariance2,field.angular_velocity_covariance3,field.angular_velocity_covariance4,field.angular_velocity_covariance5,field.angular_velocity_covariance6,field.angular_velocity_covariance7,field.angular_velocity_covariance8,field.linear_acceleration.x,field.linear_acceleration.y,field.linear_acceleration.z,field.linear_acceleration_covariance0,field.linear_acceleration_covariance1,field.linear_acceleration_covariance2,field.linear_acceleration_covariance3,field.linear_acceleration_covariance4,field.linear_acceleration_covariance5,field.linear_acceleration_covariance6,field.linear_acceleration_covariance7,field.linear_acceleration_covariance8
1531946683905591225,3988,1531946683905342051,base_link,0.179012444746,0.0236410094571,-0.0111717656131,-0.983499282639,1.0,0.0,0.0,0.0,1.0,0.0,0.0,0.0,1.0,0.794922828674,-0.10380616039,0.161342933774,1.21846967915e-07,0.0,0.0,0.0,1.21846967915e-07,0.0,0.0,0.0,1.21846967915e-07,-0.40207265,0.02941995,13.2978174,9e-08,0.0,0.0,0.0,9e-08,0.0,0.0,0.0,9e-08
1531946684318627170,3989,1531946684317870619,base_link,0.245106344672,0.0411244688947,-0.05993169821,-0.966767732917,1.0,0.0,0.0,0.0,1.0,0.0,0.0,0.0,1.0,-0.489966362715,-0.10565020144,0.205346032977,1.21846967915e-07,0.0,0.0,0.0,1.21846967915e-07,0.0,0.0,0.0,1.21846967915e-07,-0.40207265,0.10787315,11.16977435,9e-08,0.0,0.0,0.0,9e-08,0.0,0.0,0.0,9e-08
1531946684726197160,3990,1531946684725644098,base_link,0.302395013349,0.0827665432886,-0.10565745513,-0.943686101089,1.0,0.0,0.0,0.0,1.0,0.0,0.0,0.0,1.0,-0.00553274061531,-0.330323964357,0.24470846355,1.21846967915e-07,0.0,0.0,0.0,1.21846967915e-07,0.0,0.0,0.0,1.21846967915e-07,0.8629852,-0.5295591,14.24906245,9e-08,0.0,0.0,0.0,9e-08,0.0,0.0,0.0,9e-08
1531946685075367922,3991,1531946685074594243,base_link,0.335861444297,0.117714836757,-0.173597087936,-0.918261595899,1.0,0.0,0.0,0.0,1.0,0.0,0.0,0.0,1.0,-0.16565656662,-0.296660363674,0.346757948399,1.21846967915e-07,0.0,0.0,0.0,1.21846967915e-07,0.0,0.0,0.0,1.21846967915e-07,0.1372931,-0.3726527,12.7682583,9e-08,0.0,0.0,0.0,9e-08,0.0,0.0,0.0,9e-08
1531946685515620588,3992,1531946685515314587,base_link,0.352063997265,0.183419604033,-0.264812802971,-0.878795977499,1.0,0.0,0.0,0.0,1.0,0.0,0.0,0.0,1.0,-0.191445186734,-0.54195690155,0.264933288097,1.21846967915e-07,0.0,0.0,0.0,1.21846967915e-07,0.0,0.0,0.0,1.21846967915e-07,0.59820565,-0.08825985,16.44575205,9e-08,0.0,0.0,0.0,9e-08,0.0,0.0,0.0,9e-08
1531946685901351993,3993,1531946685897420751,base_link,0.356573836658,0.245625309567,-0.348726702986,-0.831211761789,1.0,0.0,0.0,0.0,1.0,0.0,0.0,0.0,1.0,0.0646941736341,-0.536648273468,0.311211079359,1.21846967915e-07,0.0,0.0,0.0,1.21846967915e-07,0.0,0.0,0.0,1.21846967915e-07,1.5298374,0.0588399,15.3768272,9e-08,0.0,0.0,0.0,9e-08,0.0,0.0,0.0,9e-08
1531946686266008886,3994,1531946686265636005,base_link,0.325660495431,0.290726009813,-0.428028588795,-0.791337574053,1.0,0.0,0.0,0.0,1.0,0.0,0.0,0.0,1.0,0.159065037966,-0.417463392019,0.336534112692,1.21846967915e-07,0.0,0.0,0.0,1.21846967915e-07,0.0,0.0,0.0,1.21846967915e-07,1.69655045,-0.85317855,14.56287525,9e-08,0.0,0.0,0.0,9e-08,0.0,0.0,0.0,9e-08
1531946686699925650,3995,1531946686699704105,base_link,0.299435355003,0.33252304922,-0.535280066577,-0.716409198878,1.0,0.0,0.0,0.0,1.0,0.0,0.0,0.0,1.0,-0.156014338136,-0.45055270195,0.424937605858,1.21846967915e-07,0.0,0.0,0.0,1.21846967915e-07,0.0,0.0,0.0,1.21846967915e-07,1.0983448,0.1765197,15.1806942,9e-08,0.0,0.0,0.0,9e-08,0.0,0.0,0.0,9e-08
1531946687170834589,3996,1531946687170333264,base_link,0.278570565641,0.391460441997,-0.617196428228,-0.623077628625,1.0,0.0,0.0,0.0,1.0,0.0,0.0,0.0,1.0,0.0324937961996,-0.439645379782,0.341724961996,1.21846967915e-07,0.0,0.0,0.0,1.21846967915e-07,0.0,0.0,0.0,1.21846967915e-07,1.4513842,-0.6864655,13.77834325,9e-08,0.0,0.0,0.0,9e-08,0.0,0.0,0.0,9e-08
1531946687664368760,3997,1531946687664102970,base_link,0.202209216519,0.406332069843,-0.732467548181,-0.507441595293,1.0,0.0,0.0,0.0,1.0,0.0,0.0,0.0,1.0,0.347518861294,-0.649617135525,0.496384710073,1.21846967915e-07,0.0,0.0,0.0,1.21846967915e-07,0.0,0.0,0.0,1.21846967915e-07,1.8240369,-0.48052585,17.8873296,9e-08,0.0,0.0,0.0,9e-08,0.0,0.0,0.0,9e-08
1531946688028888629,3998,1531946688028540495,base_link,0.12721977956,0.377569929262,-0.816844902468,-0.417157621911,1.0,0.0,0.0,0.0,1.0,0.0,0.0,0.0,1.0,0.612461328506,-0.473887562752,0.395507603884,1.21846967915e-07,0.0,0.0,0.0,1.21846967915e-07,0.0,0.0,0.0,1.21846967915e-07,0.6276256,-0.32361945,14.70016835,9e-08,0.0,0.0,0.0,9e-08,0.0,0.0,0.0,9e-08
1531946688354524127,3999,1531946688354268678,base_link,0.040444797819,0.297479634725,-0.888091828554,-0.348084744435,1.0,0.0,0.0,0.0,1.0,0.0,0.0,0.0,1.0,0.820576965809,-0.374171793461,0.370810240507,1.21846967915e-07,0.0,0.0,0.0,1.21846967915e-07,0.0,0.0,0.0,1.21846967915e-07,0.30400615,0.0980665,15.81812645,9e-08,0.0,0.0,0.0,9e-08,0.0,0.0,0.0,9e-08
1531946688722033926,4000,1531946688717711299,base_link,-0.0401153452242,0.173883813923,-0.94236225488,-0.283034554271,1.0,0.0,0.0,0.0,1.0,0.0,0.0,0.0,1.0,0.819851160049,-0.24003110826,0.216154709458,1.21846967915e-07,0.0,0.0,0.0,1.21846967915e-07,0.0,0.0,0.0,1.21846967915e-07,-0.0196133,0.44129925,13.26839745,9e-08,0.0,0.0,0.0,9e-08,0.0,0.0,0.0,9e-08
1531946689342042314,4001,1531946689340177077,base_link,-0.108235819082,-0.00713762315571,-0.965633224127,-0.236191740469,1.0,0.0,0.0,0.0,1.0,0.0,0.0,0.0,1.0,0.537581622601,0.0534859411418,-0.0130252586678,1.21846967915e-07,0.0,0.0,0.0,1.21846967915e-07,0.0,0.0,0.0,1.21846967915e-07,-0.42168595,0.46091255,8.63965865,9e-08,0.0,0.0,0.0,9e-08,0.0,0.0,0.0,9e-08
1531946689651554003,4002,1531946689651339661,base_link,-0.105532304934,-0.0747445033141,-0.96372272136,-0.233483849922,1.0,0.0,0.0,0.0,1.0,0.0,0.0,0.0,1.0,0.271187871695,0.121390961111,-0.0545255690813,1.21846967915e-07,0.0,0.0,0.0,1.21846967915e-07,0.0,0.0,0.0,1.21846967915e-07,-0.2745862,0.5491724,7.4922806,9e-08,0.0,0.0,0.0,9e-08,0.0,0.0,0.0,9e-08
1531946689950192596,4003,1531946689949542399,base_link,-0.0872301604141,-0.120791466556,-0.958710278786,-0.242229069419,1.0,0.0,0.0,0.0,1.0,0.0,0.0,0.0,1.0,0.132114067674,0.254575580359,-0.155742868781,1.21846967915e-07,0.0,0.0,0.0,1.21846967915e-07,0.0,0.0,0.0,1.21846967915e-07,-0.0588399,0.1765197,8.237586,9e-08,0.0,0.0,0.0,9e-08,0.0,0.0,0.0,9e-08
1531946690313420395,4004,1531946690313123742,base_link,-0.0465246065238,-0.145425301185,-0.946595090182,-0.283980066213,1.0,0.0,0.0,0.0,1.0,0.0,0.0,0.0,1.0,0.0824631750584,0.20259514451,-0.299718409777,1.21846967915e-07,0.0,0.0,0.0,1.21846967915e-07,0.0,0.0,0.0,1.21846967915e-07,-0.1765197,-0.1176798,5.491724,9e-08,0.0,0.0,0.0,9e-08,0.0,0.0,0.0,9e-08
1531946690679793879,4005,1531946690679540383,base_link,-0.00445297187638,-0.153113388842,-0.933121025303,-0.325302341423,1.0,0.0,0.0,0.0,1.0,0.0,0.0,0.0,1.0,-0.019743386656,0.0773332118988,-0.19353197515,1.21846967915e-07,0.0,0.0,0.0,1.21846967915e-07,0.0,0.0,0.0,1.21846967915e-07,-0.2745862,-0.0196133,6.38412915,9e-08,0.0,0.0,0.0,9e-08,0.0,0.0,0.0,9e-08
1531946691277969572,4006,1531946691272783207,base_link,0.00818228703452,-0.13332437985,-0.930748728739,-0.34038869527,1.0,0.0,0.0,0.0,1.0,0.0,0.0,0.0,1.0,0.0121143981814,-0.0556585490704,0.0872519463301,1.21846967915e-07,0.0,0.0,0.0,1.21846967915e-07,0.0,0.0,0.0,1.21846967915e-07,0.2941995,-0.0392266,11.22861425,9e-08,0.0,0.0,0.0,9e-08,0.0,0.0,0.0,9e-08
1531946691680358993,4007,1531946691679612943,base_link,0.0255666418414,-0.0804441696055,-0.944310171762,-0.318046194614,1.0,0.0,0.0,0.0,1.0,0.0,0.0,0.0,1.0,-0.195328235626,-0.0392721518874,0.0708523318172,1.21846967915e-07,0.0,0.0,0.0,1.21846967915e-07,0.0,0.0,0.0,1.21846967915e-07,-0.392266,-0.20593965,8.433719,9e-08,0.0,0.0,0.0,9e-08,0.0,0.0,0.0,9e-08
1531946692158515659,4008,1531946692158206873,base_link,0.0381060791312,-0.0395191902253,-0.943511676913,-0.326759660709,1.0,0.0,0.0,0.0,1.0,0.0,0.0,0.0,1.0,-0.200161457062,0.0466348193586,-0.136868968606,1.21846967915e-07,0.0,0.0,0.0,1.21846967915e-07,0.0,0.0,0.0,1.21846967915e-07,-0.3334261,-0.12748645,11.15016105,9e-08,0.0,0.0,0.0,9e-08,0.0,0.0,0.0,9e-08
1531946692621494532,4009,1531946692621031752,base_link,0.040330124143,-0.0126727740855,-0.937280582125,-0.34600287897,1.0,0.0,0.0,0.0,1.0,0.0,0.0,0.0,1.0,-0.175613895059,-0.0894850641489,-0.0136954206973,1.21846967915e-07,0.0,0.0,0.0,1.21846967915e-07,0.0,0.0,0.0,1.21846967915e-07,-0.55897905,0.5491724,10.3362091,9e-08,0.0,0.0,0.0,9e-08,0.0,0.0,0.0,9e-08
1531946693025145447,4010,1531946693023860806,base_link,0.0246479000095,0.0090826944704,-0.932919690546,-0.359125098925,1.0,0.0,0.0,0.0,1.0,0.0,0.0,0.0,1.0,-0.0661701932549,-0.113623924553,-0.0545239895582,1.21846967915e-07,0.0,0.0,0.0,1.21846967915e-07,0.0,0.0,0.0,1.21846967915e-07,-0.588399,-0.22555295,10.6500219,9e-08,0.0,0.0,0.0,9e-08,0.0,0.0,0.0,9e-08
1531946693498818354,4011,1531946693497757851,base_link,0.000889689683313,-0.00494509010386,-0.932737922888,-0.360520071207,1.0,0.0,0.0,0.0,1.0,0.0,0.0,0.0,1.0,0.164919048548,0.0331090912223,0.0330996140838,1.21846967915e-07,0.0,0.0,0.0,1.21846967915e-07,0.0,0.0,0.0,1.21846967915e-07,-0.38245935,-0.1372931,11.01286795,9e-08,0.0,0.0,0.0,9e-08,0.0,0.0,0.0,9e-08
1531946693790879171,4012,1531946693790663164,base_link,0.00912572452512,-0.01454717707,-0.933779172029,-0.357437489186,1.0,0.0,0.0,0.0,1.0,0.0,0.0,0.0,1.0,-0.0389045067132,0.0885190740228,0.0160526130348,1.21846967915e-07,0.0,0.0,0.0,1.21846967915e-07,0.0,0.0,0.0,1.21846967915e-07,-0.3334261,0.04903325,9.97336305,9e-08,0.0,0.0,0.0,9e-08,0.0,0.0,0.0,9e-08
1531946694228548947,4013,1531946694228013749,base_link,0.0225409692946,-0.0206142904221,-0.934448480871,-0.354785840095,1.0,0.0,0.0,0.0,1.0,0.0,0.0,0.0,1.0,0.103196658194,0.00243748864159,0.025632025674,1.21846967915e-07,0.0,0.0,0.0,1.21846967915e-07,0.0,0.0,0.0,1.21846967915e-07,-0.50013915,0.2157463,8.24739265,9e-08,0.0,0.0,0.0,9e-08,0.0,0.0,0.0,9e-08
1531946694751813704,4014,1531946694741234541,base_link,0.00974054171061,-0.0273430558418,-0.936321740134,-0.349941535256,1.0,0.0,0.0,0.0,1.0,0.0,0.0,0.0,1.0,-0.029206385836,-0.0493355318904,0.0193190295249,1.21846967915e-07,0.0,0.0,0.0,1.21846967915e-07,0.0,0.0,0.0,1.21846967915e-07,-0.2745862,0.87279185,8.54159215,9e-08,0.0,0.0,0.0,9e-08,0.0,0.0,0.0,9e-08
1531946695241481592,4015,1531946695241138102,base_link,0.000304834542118,-0.0312308063451,-0.93496092936,-0.353373180053,1.0,0.0,0.0,0.0,1.0,0.0,0.0,0.0,1.0,-0.0110809737816,-0.0150210764259,-0.0120844962075,1.21846967915e-07,0.0,0.0,0.0,1.21846967915e-07,0.0,0.0,0.0,1.21846967915e-07,-0.0980665,-0.2941995,9.4732239,9e-08,0.0,0.0,0.0,9e-08,0.0,0.0,0.0,9e-08
1531946695683811788,4016,1531946695683497527,base_link,-0.0112752761879,-0.0374968307583,-0.933199620448,-0.357218874397,1.0,0.0,0.0,0.0,1.0,0.0,0.0,0.0,1.0,-0.0838449597359,-0.0199964009225,-0.01663313061,1.21846967915e-07,0.0,0.0,0.0,1.21846967915e-07,0.0,0.0,0.0,1.21846967915e-07,0.20593965,0.588399,9.63993695,9e-08,0.0,0.0,0.0,9e-08,0.0,0.0,0.0,9e-08
1531946696138745340,4017,1531946696138326133,base_link,-0.00693518531243,-0.0111092458901,-0.932180687338,-0.361756346199,1.0,0.0,0.0,0.0,1.0,0.0,0.0,0.0,1.0,-0.0101283397526,-0.00844978075475,-0.0345275774598,1.21846967915e-07,0.0,0.0,0.0,1.21846967915e-07,0.0,0.0,0.0,1.21846967915e-07,0.3138128,0.32361945,10.0420096,9e-08,0.0,0.0,0.0,9e-08,0.0,0.0,0.0,9e-08
1531946696538338458,4018,1531946696537724887,base_link,0.00512092304851,-0.007672204382,-0.931211857383,-0.364361619956,1.0,0.0,0.0,0.0,1.0,0.0,0.0,0.0,1.0,-0.0705641210079,0.0823310390115,8.43626912683e-05,1.21846967915e-07,0.0,0.0,0.0,1.21846967915e-07,0.0,0.0,0.0,1.21846967915e-07,0.1176798,0.2745862,8.8063717,9e-08,0.0,0.0,0.0,9e-08,0.0,0.0,0.0,9e-08
1531946696998167452,4019,1531946696997015418,base_link,0.00987457026071,-0.0161363041161,-0.930649244464,-0.36542317432,1.0,0.0,0.0,0.0,1.0,0.0,0.0,0.0,1.0,0.00356203364208,-0.059549678117,-0.0151245053858,1.21846967915e-07,0.0,0.0,0.0,1.21846967915e-07,0.0,0.0,0.0,1.21846967915e-07,0.18632635,-0.0588399,8.4925589,9e-08,0.0,0.0,0.0,9e-08,0.0,0.0,0.0,9e-08
1531946697382656700,4020,1531946697381476043,base_link,0.00101568550264,-0.0140505988954,-0.932180611312,-0.361719306849,1.0,0.0,0.0,0.0,1.0,0.0,0.0,0.0,1.0,0.0624942816794,-0.084616407752,0.0672395154834,1.21846967915e-07,0.0,0.0,0.0,1.21846967915e-07,0.0,0.0,0.0,1.21846967915e-07,0.48052585,0.24516625,10.26756255,9e-08,0.0,0.0,0.0,9e-08,0.0,0.0,0.0,9e-08
1531946697818030154,4021,1531946697817728123,base_link,-0.0190379993241,-0.0249285971191,-0.936539353308,-0.349156353706,1.0,0.0,0.0,0.0,1.0,0.0,0.0,0.0,1.0,0.0530236549675,-0.0741479694843,0.0562721006572,1.21846967915e-07,0.0,0.0,0.0,1.21846967915e-07,0.0,0.0,0.0,1.21846967915e-07,0.8433719,0.1176798,10.99325465,9e-08,0.0,0.0,0.0,9e-08,0.0,0.0,0.0,9e-08
1531946698182243894,4022,1531946698181575801,base_link,-0.0336712216239,-0.0109179879299,-0.93827391905,-0.344077170421,1.0,0.0,0.0,0.0,1.0,0.0,0.0,0.0,1.0,-0.136310249567,-0.140811353922,0.00466735940427,1.21846967915e-07,0.0,0.0,0.0,1.21846967915e-07,0.0,0.0,0.0,1.21846967915e-07,0.7649187,0.24516625,11.16977435,9e-08,0.0,0.0,0.0,9e-08,0.0,0.0,0.0,9e-08
1531946698593986008,4023,1531946698588321176,base_link,-0.0475655422474,0.0128044407454,-0.935929324774,-0.348726059415,1.0,0.0,0.0,0.0,1.0,0.0,0.0,0.0,1.0,-0.0659351348877,-0.0732250213623,-0.0248342249542,1.21846967915e-07,0.0,0.0,0.0,1.21846967915e-07,0.0,0.0,0.0,1.21846967915e-07,0.77472535,0.36284605,11.16977435,9e-08,0.0,0.0,0.0,9e-08,0.0,0.0,0.0,9e-08
1531946699011086537,4024,1531946699010705748,base_link,-0.0512723196741,0.0286476324867,-0.936377442562,-0.346045874776,1.0,0.0,0.0,0.0,1.0,0.0,0.0,0.0,1.0,-0.0393353141844,0.031085588038,0.06843572855,1.21846967915e-07,0.0,0.0,0.0,1.21846967915e-07,0.0,0.0,0.0,1.21846967915e-07,0.87279185,0.24516625,11.0422879,9e-08,0.0,0.0,0.0,9e-08,0.0,0.0,0.0,9e-08
1531946699361026079,4025,1531946699359235982,base_link,-0.0512033112762,0.0266570126193,-0.940448691886,-0.334998332119,1.0,0.0,0.0,0.0,1.0,0.0,0.0,0.0,1.0,0.0670169070363,0.0301485657692,0.0248295925558,1.21846967915e-07,0.0,0.0,0.0,1.21846967915e-07,0.0,0.0,0.0,1.21846967915e-07,0.8629852,0.4511059,10.0616229,9e-08,0.0,0.0,0.0,9e-08,0.0,0.0,0.0,9e-08
1531946699713162152,4026,1531946699711583098,base_link,-0.0412905203724,0.00692405289036,-0.942051720241,-0.332844868985,1.0,0.0,0.0,0.0,1.0,0.0,0.0,0.0,1.0,0.115879885852,0.154643818736,0.00020181084983,1.21846967915e-07,0.0,0.0,0.0,1.21846967915e-07,0.0,0.0,0.0,1.21846967915e-07,0.6276256,0.2157463,7.6295737,9e-08,0.0,0.0,0.0,9e-08,0.0,0.0,0.0,9e-08
1531946700037342784,4027,1531946700036438355,base_link,-0.0376303686909,-0.00666019877052,-0.941158567637,-0.335797777937,1.0,0.0,0.0,0.0,1.0,0.0,0.0,0.0,1.0,0.113843381405,0.0210403092206,-0.055876083672,1.21846967915e-07,0.0,0.0,0.0,1.21846967915e-07,0.0,0.0,0.0,1.21846967915e-07,1.0198916,0.196133,7.84532,9e-08,0.0,0.0,0.0,9e-08,0.0,0.0,0.0,9e-08
1531946700318260745,4028,1531946700317678773,base_link,-0.0366506216223,-0.02104636134,-0.94009487018,-0.338283043723,1.0,0.0,0.0,0.0,1.0,0.0,0.0,0.0,1.0,0.057395003736,0.0860120877624,0.012300407514,1.21846967915e-07,0.0,0.0,0.0,1.21846967915e-07,0.0,0.0,0.0,1.21846967915e-07,1.372931,0.08825985,8.42391235,9e-08,0.0,0.0,0.0,9e-08,0.0,0.0,0.0,9e-08
1531946700668366254,4029,1531946700668143973,base_link,-0.0369283905051,-0.0321782866048,-0.94187203545,-0.332382190683,1.0,0.0,0.0,0.0,1.0,0.0,0.0,0.0,1.0,-0.00100855575874,-0.00435884157196,0.0440841764212,1.21846967915e-07,0.0,0.0,0.0,1.21846967915e-07,0.0,0.0,0.0,1.21846967915e-07,1.44157755,0.392266,10.2577559,9e-08,0.0,0.0,0.0,9e-08,0.0,0.0,0.0,9e-08
1531946701039030510,4030,1531946701038652219,base_link,-0.0373811570699,-0.0175224572363,-0.942667088564,-0.331171213614,1.0,0.0,0.0,0.0,1.0,0.0,0.0,0.0,1.0,-0.101518340409,-0.0271941386163,-0.014813109301,1.21846967915e-07,0.0,0.0,0.0,1.21846967915e-07,0.0,0.0,0.0,1.21846967915e-07,1.40235095,0.3726527,9.6497436,9e-08,0.0,0.0,0.0,9e-08,0.0,0.0,0.0,9e-08
1531946701339703028,4031,1531946701339334854,base_link,-0.0340358016387,-0.0107853577292,-0.940468398932,-0.33800063739,1.0,0.0,0.0,0.0,1.0,0.0,0.0,0.0,1.0,0.00138318352401,0.00120039004833,-0.0485569126904,1.21846967915e-07,0.0,0.0,0.0,1.21846967915e-07,0.0,0.0,0.0,1.21846967915e-07,1.3337044,0.2941995,10.44408225,9e-08,0.0,0.0,0.0,9e-08,0.0,0.0,0.0,9e-08
1531946701770556643,4032,1531946701761241023,base_link,-0.0278232721533,-0.0133460626277,-0.941276430397,-0.336223779227,1.0,0.0,0.0,0.0,1.0,0.0,0.0,0.0,1.0,0.0553692728281,-0.00462837517262,0.0319957062602,1.21846967915e-07,0.0,0.0,0.0,1.21846967915e-07,0.0,0.0,0.0,1.21846967915e-07,1.02969825,0.2157463,9.36535075,9e-08,0.0,0.0,0.0,9e-08,0.0,0.0,0.0,9e-08
1531946702187827652,4033,1531946702187420675,base_link,-0.0383345535641,-0.00726282337991,-0.94133463244,-0.335211609539,1.0,0.0,0.0,0.0,1.0,0.0,0.0,0.0,1.0,-0.036367174238,-0.12114482373,-0.00528885424137,1.21846967915e-07,0.0,0.0,0.0,1.21846967915e-07,0.0,0.0,0.0,1.21846967915e-07,1.50041745,0.3138128,11.66010685,9e-08,0.0,0.0,0.0,9e-08,0.0,0.0,0.0,9e-08
1531946702707940322,4034,1531946702707453051,base_link,-0.0558595630881,-0.0116204843782,-0.937996142203,-0.341917988365,1.0,0.0,0.0,0.0,1.0,0.0,0.0,0.0,1.0,0.079362295568,-0.016346886754,-0.0150642981753,1.21846967915e-07,0.0,0.0,0.0,1.21846967915e-07,0.0,0.0,0.0,1.21846967915e-07,1.1179581,0.26477955,10.42446895,9e-08,0.0,0.0,0.0,9e-08,0.0,0.0,0.0,9e-08
1531946703180953396,4035,1531946703180414580,base_link,-0.060479400809,-0.0184793253685,-0.936102934469,-0.345994295749,1.0,0.0,0.0,0.0,1.0,0.0,0.0,0.0,1.0,-0.0524957478046,0.0384795218706,-0.0254551395774,1.21846967915e-07,0.0,0.0,0.0,1.21846967915e-07,0.0,0.0,0.0,1.21846967915e-07,1.20621795,0.38245935,9.97336305,9e-08,0.0,0.0,0.0,9e-08,0.0,0.0,0.0,9e-08
1531946703699478272,4036,1531946703697683693,base_link,-0.0684434428179,-0.0384637784933,-0.928098800641,-0.363962428182,1.0,0.0,0.0,0.0,1.0,0.0,0.0,0.0,1.0,0.413648575544,-0.015467453748,-0.117427021265,1.21846967915e-07,0.0,0.0,0.0,1.21846967915e-07,0.0,0.0,0.0,1.21846967915e-07,1.16699135,0.40207265,9.11037785,9e-08,0.0,0.0,0.0,9e-08,0.0,0.0,0.0,9e-08
1531946704019875926,4037,1531946704019585068,base_link,-0.0735750227641,-0.0801511510841,-0.918911795322,-0.379161735177,1.0,0.0,0.0,0.0,1.0,0.0,0.0,0.0,1.0,0.0466905012727,0.0472701266408,-0.0915573313832,1.21846967915e-07,0.0,0.0,0.0,1.21846967915e-07,0.0,0.0,0.0,1.21846967915e-07,1.1964113,0.16671305,8.7475318,9e-08,0.0,0.0,0.0,9e-08,0.0,0.0,0.0,9e-08
1531946704355959037,4038,1531946704355448139,base_link,-0.0727845447575,-0.0826186635458,-0.916279579082,-0.385108165891,1.0,0.0,0.0,0.0,1.0,0.0,0.0,0.0,1.0,0.0320681110024,-0.0126412464306,-0.0184322651476,1.21846967915e-07,0.0,0.0,0.0,1.21846967915e-07,0.0,0.0,0.0,1.21846967915e-07,1.38273765,0.0784532,9.0613446,9e-08,0.0,0.0,0.0,9e-08,0.0,0.0,0.0,9e-08
1531946704781395617,4039,1531946704774879374,base_link,-0.0832835208178,-0.0944941649955,-0.911466466039,-0.391616635537,1.0,0.0,0.0,0.0,1.0,0.0,0.0,0.0,1.0,0.0119465701282,-0.0347715467215,-0.0643402189016,1.21846967915e-07,0.0,0.0,0.0,1.21846967915e-07,0.0,0.0,0.0,1.21846967915e-07,1.46119085,0.5491724,9.1594111,9e-08,0.0,0.0,0.0,9e-08,0.0,0.0,0.0,9e-08
1531946705140927423,4040,1531946705139883600,base_link,-0.101010796453,-0.130914380055,-0.893659053681,-0.417171115812,1.0,0.0,0.0,0.0,1.0,0.0,0.0,0.0,1.0,0.613695800304,-0.0181473214179,-0.253681093454,1.21846967915e-07,0.0,0.0,0.0,1.21846967915e-07,0.0,0.0,0.0,1.21846967915e-07,1.2356379,0.71588545,9.93413645,9e-08,0.0,0.0,0.0,9e-08,0.0,0.0,0.0,9e-08
1531946705634516436,4041,1531946705634025323,base_link,-0.158732438646,-0.249211096619,-0.838190733896,-0.458403900348,1.0,0.0,0.0,0.0,1.0,0.0,0.0,0.0,1.0,0.370780587196,-0.0983647033572,-0.302401423454,1.21846967915e-07,0.0,0.0,0.0,1.21846967915e-07,0.0,0.0,0.0,1.21846967915e-07,1.42196425,0.93163175,8.6886919,9e-08,0.0,0.0,0.0,9e-08,0.0,0.0,0.0,9e-08
1531946706080911248,4042,1531946706080559945,base_link,-0.202754648636,-0.282509151806,-0.773214000645,-0.530301085053,1.0,0.0,0.0,0.0,1.0,0.0,0.0,0.0,1.0,0.116340495646,-0.298441618681,-0.388489991426,1.21846967915e-07,0.0,0.0,0.0,1.21846967915e-07,0.0,0.0,0.0,1.21846967915e-07,2.06920315,0.980665,11.7483667,9e-08,0.0,0.0,0.0,9e-08,0.0,0.0,0.0,9e-08
1531946706519988668,4043,1531946706519473192,base_link,-0.255787642426,-0.287228911811,-0.69423550024,-0.608366094065,1.0,0.0,0.0,0.0,1.0,0.0,0.0,0.0,1.0,0.0913982465863,-0.464748769999,-0.355029076338,1.21846967915e-07,0.0,0.0,0.0,1.21846967915e-07,0.0,0.0,0.0,1.21846967915e-07,1.77500365,0.9414384,12.01314625,9e-08,0.0,0.0,0.0,9e-08,0.0,0.0,0.0,9e-08
1531946706854143281,4044,1531946706853791594,base_link,-0.290425851661,-0.254787083275,-0.634192975808,-0.669728031606,1.0,0.0,0.0,0.0,1.0,0.0,0.0,0.0,1.0,-0.0539761707187,-0.450312852859,-0.384268343449,1.21846967915e-07,0.0,0.0,0.0,1.21846967915e-07,0.0,0.0,0.0,1.21846967915e-07,1.9809433,1.0591182,14.2392558,9e-08,0.0,0.0,0.0,9e-08,0.0,0.0,0.0,9e-08
1531946707339664818,4045,1531946707339282589,base_link,-0.327196220502,-0.205378710428,-0.531470618157,-0.753857546641,1.0,0.0,0.0,0.0,1.0,0.0,0.0,0.0,1.0,-0.0708759874105,-0.446075022221,-0.342545747757,1.21846967915e-07,0.0,0.0,0.0,1.21846967915e-07,0.0,0.0,0.0,1.21846967915e-07,1.14737805,0.5099458,13.8469898,9e-08,0.0,0.0,0.0,9e-08,0.0,0.0,0.0,9e-08
1531946707761538460,4046,1531946707760117369,base_link,-0.356642175175,-0.137368524992,-0.446521390626,-0.809045669256,1.0,0.0,0.0,0.0,1.0,0.0,0.0,0.0,1.0,-0.115761451423,-0.505321264267,-0.293147921562,1.21846967915e-07,0.0,0.0,0.0,1.21846967915e-07,0.0,0.0,0.0,1.21846967915e-07,1.40235095,0.6080123,15.5533469,9e-08,0.0,0.0,0.0,9e-08,0.0,0.0,0.0,9e-08
1531946708104822620,4047,1531946708103606011,base_link,-0.34520528093,-0.0886603188217,-0.378012436094,-0.854446756704,1.0,0.0,0.0,0.0,1.0,0.0,0.0,0.0,1.0,-0.40830385685,-0.264720797539,-0.40489000082,1.21846967915e-07,0.0,0.0,0.0,1.21846967915e-07,0.0,0.0,0.0,1.21846967915e-07,1.0983448,1.04931155,12.87613145,9e-08,0.0,0.0,0.0,9e-08,0.0,0.0,0.0,9e-08
1531946708497291718,4048,1531946708497029033,base_link,-0.312640171293,-0.0405123965697,-0.280295296867,-0.906669408093,1.0,0.0,0.0,0.0,1.0,0.0,0.0,0.0,1.0,-0.298749476671,-0.329212784767,-0.412032663822,1.21846967915e-07,0.0,0.0,0.0,1.21846967915e-07,0.0,0.0,0.0,1.21846967915e-07,0.95124505,0.7649187,12.1210194,9e-08,0.0,0.0,0.0,9e-08,0.0,0.0,0.0,9e-08
1531946708945007669,4049,1531946708944566660,base_link,-0.232091257194,0.0291315417829,-0.185420603436,-0.954413014071,1.0,0.0,0.0,0.0,1.0,0.0,0.0,0.0,1.0,-0.554311096668,-0.271958827972,-0.30739018321,1.21846967915e-07,0.0,0.0,0.0,1.21846967915e-07,0.0,0.0,0.0,1.21846967915e-07,1.4121576,0.5099458,13.42530385,9e-08,0.0,0.0,0.0,9e-08,0.0,0.0,0.0,9e-08
1531946709230513599,4050,1531946709230258694,base_link,-0.180817283733,0.0657115729559,-0.141746546523,-0.971027814036,1.0,0.0,0.0,0.0,1.0,0.0,0.0,0.0,1.0,-0.350696355104,-0.228883802891,-0.216694414616,1.21846967915e-07,0.0,0.0,0.0,1.21846967915e-07,0.0,0.0,0.0,1.21846967915e-07,1.52003075,0.6080123,13.8862164,9e-08,0.0,0.0,0.0,9e-08,0.0,0.0,0.0,9e-08
1531946709694646620,4051,1531946709693292089,base_link,-0.0937479089032,0.106127206358,-0.0976779438007,-0.985092566687,1.0,0.0,0.0,0.0,1.0,0.0,0.0,0.0,1.0,-0.438064604998,-0.0984911397099,-0.0366397313774,1.21846967915e-07,0.0,0.0,0.0,1.21846967915e-07,0.0,0.0,0.0,1.21846967915e-07,0.784532,0.3138128,10.2969825,9e-08,0.0,0.0,0.0,9e-08,0.0,0.0,0.0,9e-08
1531946710028070966,4052,1531946710027727187,base_link,-0.0384947479737,0.128562839402,-0.0814271681436,-0.987602838692,1.0,0.0,0.0,0.0,1.0,0.0,0.0,0.0,1.0,-0.212823659182,-0.0519901588559,-0.0376076884568,1.21846967915e-07,0.0,0.0,0.0,1.21846967915e-07,0.0,0.0,0.0,1.21846967915e-07,1.16699135,-0.02941995,9.1594111,9e-08,0.0,0.0,0.0,9e-08,0.0,0.0,0.0,9e-08
1531946710486528013,4053,1531946710486225502,base_link,0.00252932222003,0.123324531288,-0.0848943008787,-0.988725250102,1.0,0.0,0.0,0.0,1.0,0.0,0.0,0.0,1.0,-0.292411535978,0.0454982146621,0.110968187451,1.21846967915e-07,0.0,0.0,0.0,1.21846967915e-07,0.0,0.0,0.0,1.21846967915e-07,1.4906108,0.3138128,8.7083052,9e-08,0.0,0.0,0.0,9e-08,0.0,0.0,0.0,9e-08
1531946710871410023,4054,1531946710871129410,base_link,0.0418038544158,0.108398613709,-0.10006961522,-0.988174200438,1.0,0.0,0.0,0.0,1.0,0.0,0.0,0.0,1.0,-0.102483287454,0.154511585832,0.141029387712,1.21846967915e-07,0.0,0.0,0.0,1.21846967915e-07,0.0,0.0,0.0,1.21846967915e-07,1.4121576,0.3138128,8.52197885,9e-08,0.0,0.0,0.0,9e-08,0.0,0.0,0.0,9e-08
1531946711236510999,4055,1531946711235737256,base_link,0.0381633667301,0.0729713302946,-0.115568712202,-0.989880101404,1.0,0.0,0.0,0.0,1.0,0.0,0.0,0.0,1.0,0.145371347666,0.178516849875,0.0344568490982,1.21846967915e-07,0.0,0.0,0.0,1.21846967915e-07,0.0,0.0,0.0,1.21846967915e-07,1.20621795,0.22555295,5.87418335,9e-08,0.0,0.0,0.0,9e-08,0.0,0.0,0.0,9e-08
1531946711600574011,4056,1531946711599204145,base_link,0.00849294104407,0.0418625140996,-0.119662394113,-0.991895312672,1.0,0.0,0.0,0.0,1.0,0.0,0.0,0.0,1.0,0.216511666775,0.146934598684,0.00805711746216,1.21846967915e-07,0.0,0.0,0.0,1.21846967915e-07,0.0,0.0,0.0,1.21846967915e-07,1.18660465,0.3334261,6.79600845,9e-08,0.0,0.0,0.0,9e-08,0.0,0.0,0.0,9e-08
1531946712070158290,4057,1531946712069816176,base_link,-0.0184188497309,0.0050732789747,-0.118608636284,-0.992757271046,1.0,0.0,0.0,0.0,1.0,0.0,0.0,0.0,1.0,0.0930694192648,0.0539111867547,-0.00242571812123,1.21846967915e-07,0.0,0.0,0.0,1.21846967915e-07,0.0,0.0,0.0,1.21846967915e-07,1.4709975,0.06864655,7.77667345,9e-08,0.0,0.0,0.0,9e-08,0.0,0.0,0.0,9e-08
1531946712549014713,4058,1531946712548584909,base_link,-0.0762813070302,-0.012191387686,-0.127179137662,-0.988867028072,1.0,0.0,0.0,0.0,1.0,0.0,0.0,0.0,1.0,0.0829353109002,0.00147260865197,-0.044036179781,1.21846967915e-07,0.0,0.0,0.0,1.21846967915e-07,0.0,0.0,0.0,1.21846967915e-07,1.3925443,1.1375714,8.4141057,9e-08,0.0,0.0,0.0,9e-08,0.0,0.0,0.0,9e-08
1531946712862851813,4059,1531946712862554808,base_link,-0.140153191981,-0.0254413697955,-0.0903538825316,-0.985670327945,1.0,0.0,0.0,0.0,1.0,0.0,0.0,0.0,1.0,0.542033076286,-0.00828367937356,-0.271127969027,1.21846967915e-07,0.0,0.0,0.0,1.21846967915e-07,0.0,0.0,0.0,1.21846967915e-07,1.176798,0.36284605,8.5906254,9e-08,0.0,0.0,0.0,9e-08,0.0,0.0,0.0,9e-08
1531946713274596521,4060,1531946713274271471,base_link,-0.258617357947,-0.0205538529066,-0.0197927116558,-0.965558309925,1.0,0.0,0.0,0.0,1.0,0.0,0.0,0.0,1.0,0.433821231127,-0.171976029873,-0.229013636708,1.21846967915e-07,0.0,0.0,0.0,1.21846967915e-07,0.0,0.0,0.0,1.21846967915e-07,1.0787315,-0.0196133,10.26756255,9e-08,0.0,0.0,0.0,9e-08,0.0,0.0,0.0,9e-08
1531946713753434310,4061,1531946713753045294,base_link,-0.326680567788,0.0280118575811,0.034389610882,-0.94409347902,1.0,0.0,0.0,0.0,1.0,0.0,0.0,0.0,1.0,0.018407581374,-0.289169818163,-0.114948533475,1.21846967915e-07,0.0,0.0,0.0,1.21846967915e-07,0.0,0.0,0.0,1.21846967915e-07,1.34351105,1.0591182,12.69961175,9e-08,0.0,0.0,0.0,9e-08,0.0,0.0,0.0,9e-08
1531946714224108675,4062,1531946714223739187,base_link,-0.359328633497,0.0606365282375,0.159278377387,-0.917516508347,1.0,0.0,0.0,0.0,1.0,0.0,0.0,0.0,1.0,0.467666178942,-0.364786922932,-0.605558753014,1.21846967915e-07,0.0,0.0,0.0,1.21846967915e-07,0.0,0.0,0.0,1.21846967915e-07,0.6080123,1.31506023735e-15,10.73828175,9e-08,0.0,0.0,0.0,9e-08,0.0,0.0,0.0,9e-08
1531946714704359583,4063,1531946714703463094,base_link,-0.370999557256,0.154913113852,0.280076129086,-0.871733111444,1.0,0.0,0.0,0.0,1.0,0.0,0.0,0.0,1.0,-0.38106957078,-0.667104780674,-0.246390759945,1.21846967915e-07,0.0,0.0,0.0,1.21846967915e-07,0.0,0.0,0.0,1.21846967915e-07,2.04958985,0.588399,19.28968055,9e-08,0.0,0.0,0.0,9e-08,0.0,0.0,0.0,9e-08
1531946715063447850,4064,1531946715062284866,base_link,-0.299193499546,0.205732831833,0.360066820838,-0.859365542867,1.0,0.0,0.0,0.0,1.0,0.0,0.0,0.0,1.0,2.15461477637e-06,-0.395479589701,-0.348136395216,1.21846967915e-07,0.0,0.0,0.0,1.21846967915e-07,0.0,0.0,0.0,1.21846967915e-07,1.5886773,0.87279185,18.09326925,9e-08,0.0,0.0,0.0,9e-08,0.0,0.0,0.0,9e-08
1531946715496589878,4065,1531946715495448601,base_link,-0.29424447713,0.22892118921,0.467855069096,-0.801328216857,1.0,0.0,0.0,0.0,1.0,0.0,0.0,0.0,1.0,0.119592763484,-0.395060032606,-0.589524507523,1.21846967915e-07,0.0,0.0,0.0,1.21846967915e-07,0.0,0.0,0.0,1.21846967915e-07,0.40207265,0.63743225,12.54270535,9e-08,0.0,0.0,0.0,9e-08,0.0,0.0,0.0,9e-08
1531946715950186283,4066,1531946715949780459,base_link,-0.261057373609,0.26051030245,0.569420529918,-0.734672505345,1.0,0.0,0.0,0.0,1.0,0.0,0.0,0.0,1.0,-0.386299967766,-0.492545962334,-0.282479226589,1.21846967915e-07,0.0,0.0,0.0,1.21846967915e-07,0.0,0.0,0.0,1.21846967915e-07,0.91201845,0.32361945,12.552512,9e-08,0.0,0.0,0.0,9e-08,0.0,0.0,0.0,9e-08
1531946716369208140,4067,1531946716368784099,base_link,-0.161020088424,0.255254369082,0.649794487741,-0.697628025447,1.0,0.0,0.0,0.0,1.0,0.0,0.0,0.0,1.0,-0.358000189066,-0.336422353983,-0.282354623079,1.21846967915e-07,0.0,0.0,0.0,1.21846967915e-07,0.0,0.0,0.0,1.21846967915e-07,1.2552512,0.6668522,13.62143685,9e-08,0.0,0.0,0.0,9e-08,0.0,0.0,0.0,9e-08
1531946716863408259,4068,1531946716863126653,base_link,0.0603003718459,-0.197395022146,-0.725867577109,0.656136670892,1.0,0.0,0.0,0.0,1.0,0.0,0.0,0.0,1.0,-0.542761385441,0.0368674434721,-0.208352729678,1.21846967915e-07,0.0,0.0,0.0,1.21846967915e-07,0.0,0.0,0.0,1.21846967915e-07,0.980665,0.51975245,11.6110736,9e-08,0.0,0.0,0.0,9e-08,0.0,0.0,0.0,9e-08
1531946717182259770,4069,1531946717181921466,base_link,0.0183151025926,-0.133022782535,-0.757767457456,0.638559297767,1.0,0.0,0.0,0.0,1.0,0.0,0.0,0.0,1.0,-0.340845525265,0.102821484208,-0.167120605707,1.21846967915e-07,0.0,0.0,0.0,1.21846967915e-07,0.0,0.0,0.0,1.21846967915e-07,0.6472389,0.2549729,9.1790244,9e-08,0.0,0.0,0.0,9e-08,0.0,0.0,0.0,9e-08
1531946717650133158,4070,1531946717649657284,base_link,-0.0546939526498,-0.0291660036463,-0.781747209177,0.620507225356,1.0,0.0,0.0,0.0,1.0,0.0,0.0,0.0,1.0,-0.613034367561,-0.0183460973203,-0.0264978408813,1.21846967915e-07,0.0,0.0,0.0,1.21846967915e-07,0.0,0.0,0.0,1.21846967915e-07,0.83356525,0.10787315,9.79684335,9e-08,0.0,0.0,0.0,9e-08,0.0,0.0,0.0,9e-08
1531946718060174113,4071,1531946718059921993,base_link,-0.0982636432978,0.0311332558897,-0.777076723987,0.620907997872,1.0,0.0,0.0,0.0,1.0,0.0,0.0,0.0,1.0,-0.241144046187,0.0962635353208,0.112863056362,1.21846967915e-07,0.0,0.0,0.0,1.21846967915e-07,0.0,0.0,0.0,1.21846967915e-07,0.63743225,0.10787315,8.8063717,9e-08,0.0,0.0,0.0,9e-08,0.0,0.0,0.0,9e-08
1531946718451973997,4072,1531946718446574507,base_link,-0.0911602100749,0.0690825016645,-0.763497790664,0.635600934324,1.0,0.0,0.0,0.0,1.0,0.0,0.0,0.0,1.0,0.112373650074,0.0912805646658,0.144364580512,1.21846967915e-07,0.0,0.0,0.0,1.21846967915e-07,0.0,0.0,0.0,1.21846967915e-07,0.79433865,-0.12748645,7.6884136,9e-08,0.0,0.0,0.0,9e-08,0.0,0.0,0.0,9e-08
1531946718760886521,4073,1531946718760620251,base_link,-0.0752891967072,0.0787781285744,-0.745372513133,0.657681807551,1.0,0.0,0.0,0.0,1.0,0.0,0.0,0.0,1.0,-0.0976336225867,0.0668970420957,0.271300464869,1.21846967915e-07,0.0,0.0,0.0,1.21846967915e-07,0.0,0.0,0.0,1.21846967915e-07,0.8629852,-0.1372931,8.5906254,9e-08,0.0,0.0,0.0,9e-08,0.0,0.0,0.0,9e-08
1531946719254742284,4074,1531946719254485202,base_link,-0.0677441276744,0.091550586442,-0.713884437489,0.690940108258,1.0,0.0,0.0,0.0,1.0,0.0,0.0,0.0,1.0,0.221007347107,0.0212737284601,0.127237349749,1.21846967915e-07,0.0,0.0,0.0,1.21846967915e-07,0.0,0.0,0.0,1.21846967915e-07,0.7453054,0.0196133,8.6886919,9e-08,0.0,0.0,0.0,9e-08,0.0,0.0,0.0,9e-08
1531946719529914863,4075,1531946719529567947,base_link,-0.038115349149,0.0686488355243,-0.704121289437,0.705724994103,1.0,0.0,0.0,0.0,1.0,0.0,0.0,0.0,1.0,0.272575944662,0.0587778016925,0.164558455348,1.21846967915e-07,0.0,0.0,0.0,1.21846967915e-07,0.0,0.0,0.0,1.21846967915e-07,0.44129925,0.18632635,8.01203305,9e-08,0.0,0.0,0.0,9e-08,0.0,0.0,0.0,9e-08
1531946720013457670,4076,1531946720011806358,base_link,-0.0232276390847,-0.0213873028077,0.699113597435,-0.714313123177,1.0,0.0,0.0,0.0,1.0,0.0,0.0,0.0,1.0,0.497865796089,0.0196482185274,-0.0292143076658,1.21846967915e-07,0.0,0.0,0.0,1.21846967915e-07,0.0,0.0,0.0,1.21846967915e-07,0.50013915,1.20457115805e-15,9.83606995,9e-08,0.0,0.0,0.0,9e-08,0.0,0.0,0.0,9e-08
1531946720416906409,4077,1531946720416428102,base_link,-0.0624958850066,0.0288179209256,0.687624187803,-0.722797875024,1.0,0.0,0.0,0.0,1.0,0.0,0.0,0.0,1.0,0.12040682137,-0.07815194875,0.101808868349,1.21846967915e-07,0.0,0.0,0.0,1.21846967915e-07,0.0,0.0,0.0,1.21846967915e-07,0.40207265,0.5491724,10.002783,9e-08,0.0,0.0,0.0,9e-08,0.0,0.0,0.0,9e-08
1531946720884788344,4078,1531946720884529758,base_link,-0.0630528637152,0.0348343876443,0.696483970025,-0.713947463972,1.0,0.0,0.0,0.0,1.0,0.0,0.0,0.0,1.0,0.0176382251084,0.0109096355736,-0.158395916224,1.21846967915e-07,0.0,0.0,0.0,1.21846967915e-07,0.0,0.0,0.0,1.21846967915e-07,0.38245935,0.51975245,8.79656505,9e-08,0.0,0.0,0.0,9e-08,0.0,0.0,0.0,9e-08
1531946721347565714,4079,1531946721346848701,base_link,0.0578981647517,-0.0375091777304,-0.731123824615,0.678747977665,1.0,0.0,0.0,0.0,1.0,0.0,0.0,0.0,1.0,0.0235928408802,-0.143248334527,-0.2081682235,1.21846967915e-07,0.0,0.0,0.0,1.21846967915e-07,0.0,0.0,0.0,1.21846967915e-07,0.3138128,0.0392266,9.6301303,9e-08,0.0,0.0,0.0,9e-08,0.0,0.0,0.0,9e-08
1531946721614453338,4080,1531946721614000643,base_link,0.042670636408,-0.054785055361,-0.744822379778,0.663639538514,1.0,0.0,0.0,0.0,1.0,0.0,0.0,0.0,1.0,-0.0565514825284,-0.171440884471,-0.0862038955092,1.21846967915e-07,0.0,0.0,0.0,1.21846967915e-07,0.0,0.0,0.0,1.21846967915e-07,0.6080123,0.0392266,11.6503002,9e-08,0.0,0.0,0.0,9e-08,0.0,0.0,0.0,9e-08
1531946722040848389,4081,1531946722039895168,base_link,0.00624036037595,-0.0335958068023,-0.749967065613,0.660591992203,1.0,0.0,0.0,0.0,1.0,0.0,0.0,0.0,1.0,-0.240743637085,-0.0247079990804,-0.0438046194613,1.21846967915e-07,0.0,0.0,0.0,1.21846967915e-07,0.0,0.0,0.0,1.21846967915e-07,0.50013915,0.38245935,11.18938765,9e-08,0.0,0.0,0.0,9e-08,0.0,0.0,0.0,9e-08
1531946722418686256,4082,1531946722416759166,base_link,-0.00851650312706,-0.018886714784,-0.766952530809,0.641369298193,1.0,0.0,0.0,0.0,1.0,0.0,0.0,0.0,1.0,0.0305006206036,0.00574829662219,-0.163197606802,1.21846967915e-07,0.0,0.0,0.0,1.21846967915e-07,0.0,0.0,0.0,1.21846967915e-07,0.2549729,-0.04903325,9.22805765,9e-08,0.0,0.0,0.0,9e-08,0.0,0.0,0.0,9e-08
1531946722736234942,4083,1531946722735259055,base_link,-0.00669109616332,-0.0219891119725,-0.773817242172,0.632991772383,1.0,0.0,0.0,0.0,1.0,0.0,0.0,0.0,1.0,-0.0822651386261,-0.0229052454233,0.0250583142042,1.21846967915e-07,0.0,0.0,0.0,1.21846967915e-07,0.0,0.0,0.0,1.21846967915e-07,0.1765197,-0.1569064,10.0812362,9e-08,0.0,0.0,0.0,9e-08,0.0,0.0,0.0,9e-08
1531946723243661784,4084,1531946723242984503,base_link,-0.00853416426994,-0.0194236932836,-0.752554561427,0.658188058426,1.0,0.0,0.0,0.0,1.0,0.0,0.0,0.0,1.0,-0.137795448303,-0.0347870737314,0.15528409183,1.21846967915e-07,0.0,0.0,0.0,1.21846967915e-07,0.0,0.0,0.0,1.21846967915e-07,0.3334261,0.10787315,9.1201845,9e-08,0.0,0.0,0.0,9e-08,0.0,0.0,0.0,9e-08
1531946723756233404,4085,1531946723752147657,base_link,-0.049071441201,0.0051200109151,-0.741414018604,0.669231673013,1.0,0.0,0.0,0.0,1.0,0.0,0.0,0.0,1.0,-0.0200650840998,-0.00376367382705,0.0108510255814,1.21846967915e-07,0.0,0.0,0.0,1.21846967915e-07,0.0,0.0,0.0,1.21846967915e-07,0.8237586,0.24516625,11.0422879,9e-08,0.0,0.0,0.0,9e-08,0.0,0.0,0.0,9e-08
1531946724246836584,4086,1531946724246413823,base_link,-0.0222960647075,-0.00257408716777,-0.746354904024,0.665169615071,1.0,0.0,0.0,0.0,1.0,0.0,0.0,0.0,1.0,0.118442833424,0.0575584843755,-0.0603858828545,1.21846967915e-07,0.0,0.0,0.0,1.21846967915e-07,0.0,0.0,0.0,1.21846967915e-07,0.4118793,0.30400615,8.6102387,9e-08,0.0,0.0,0.0,9e-08,0.0,0.0,0.0,9e-08
1531946724512168782,4087,1531946724511809027,base_link,-0.00168375682559,-0.0198235053928,-0.750513171609,0.660555957386,1.0,0.0,0.0,0.0,1.0,0.0,0.0,0.0,1.0,0.370565533638,0.0129577908665,-0.0293328184634,1.21846967915e-07,0.0,0.0,0.0,1.21846967915e-07,0.0,0.0,0.0,1.21846967915e-07,0.4511059,0.12748645,8.56120545,9e-08,0.0,0.0,0.0,9e-08,0.0,0.0,0.0,9e-08
1531946724952693577,4088,1531946724952360459,base_link,0.0447021564448,-0.0617039587755,-0.746654304171,0.66083408564,1.0,0.0,0.0,0.0,1.0,0.0,0.0,0.0,1.0,0.207178667188,0.000791777390987,0.00821921415627,1.21846967915e-07,0.0,0.0,0.0,1.21846967915e-07,0.0,0.0,0.0,1.21846967915e-07,0.7453054,0.46091255,9.14960445,9e-08,0.0,0.0,0.0,9e-08,0.0,0.0,0.0,9e-08
1531946725423470486,4089,1531946725423051631,base_link,0.0776057998883,-0.100666553533,-0.755883606599,0.642248828802,1.0,0.0,0.0,0.0,1.0,0.0,0.0,0.0,1.0,0.294055432081,-0.0451918616891,-0.104398339987,1.21846967915e-07,0.0,0.0,0.0,1.21846967915e-07,0.0,0.0,0.0,1.21846967915e-07,1.0395049,0.00980665,10.93441475,9e-08,0.0,0.0,0.0,9e-08,0.0,0.0,0.0,9e-08
1531946725759853964,4090,1531946725759345051,base_link,0.1016104677,-0.154424326489,-0.762295658672,0.620269110155,1.0,0.0,0.0,0.0,1.0,0.0,0.0,0.0,1.0,0.283829569817,-0.217909142375,-0.154578074813,1.21846967915e-07,0.0,0.0,0.0,1.21846967915e-07,0.0,0.0,0.0,1.21846967915e-07,0.83356525,0.46091255,10.42446895,9e-08,0.0,0.0,0.0,9e-08,0.0,0.0,0.0,9e-08
1531946726176088322,4091,1531946726175261210,base_link,0.117033754746,-0.208213760646,-0.778243498552,0.580764312858,1.0,0.0,0.0,0.0,1.0,0.0,0.0,0.0,1.0,0.147675409913,-0.123584978282,-0.21841596067,1.21846967915e-07,0.0,0.0,0.0,1.21846967915e-07,0.0,0.0,0.0,1.21846967915e-07,0.8825985,0.392266,11.571847,9e-08,0.0,0.0,0.0,9e-08,0.0,0.0,0.0,9e-08
1531946726497157302,4092,1531946726494005631,base_link,0.129205906149,-0.232958502887,-0.800754027422,0.536497117715,1.0,0.0,0.0,0.0,1.0,0.0,0.0,0.0,1.0,0.303315252066,-0.137982815504,-0.3710283041,1.21846967915e-07,0.0,0.0,0.0,1.21846967915e-07,0.0,0.0,0.0,1.21846967915e-07,0.53936575,0.48052585,7.71783355,9e-08,0.0,0.0,0.0,9e-08,0.0,0.0,0.0,9e-08
1531946727013873256,4093,1531946727012278515,base_link,0.121108291492,-0.276350584826,-0.839076243531,0.452674489607,1.0,0.0,0.0,0.0,1.0,0.0,0.0,0.0,1.0,-0.144368723035,-0.208153963089,-0.239212796092,1.21846967915e-07,0.0,0.0,0.0,1.21846967915e-07,0.0,0.0,0.0,1.21846967915e-07,1.06892485,0.4118793,13.1801376,9e-08,0.0,0.0,0.0,9e-08,0.0,0.0,0.0,9e-08
1531946727426324539,4094,1531946727423508099,base_link,0.101470156214,-0.290430058461,-0.863569022656,0.399503105933,1.0,0.0,0.0,0.0,1.0,0.0,0.0,0.0,1.0,-0.0109334466979,-0.219572335482,-0.278692930937,1.21846967915e-07,0.0,0.0,0.0,1.21846967915e-07,0.0,0.0,0.0,1.21846967915e-07,0.7453054,0.69627215,11.4541672,9e-08,0.0,0.0,0.0,9e-08,0.0,0.0,0.0,9e-08
1531946727859148208,4095,1531946727858706750,base_link,0.100746319366,-0.317896394718,-0.886561721432,0.320624976337,1.0,0.0,0.0,0.0,1.0,0.0,0.0,0.0,1.0,0.0155606428161,-0.22683224082,-0.377608954906,1.21846967915e-07,0.0,0.0,0.0,1.21846967915e-07,0.0,0.0,0.0,1.21846967915e-07,0.4707192,0.71588545,9.7674234,9e-08,0.0,0.0,0.0,9e-08,0.0,0.0,0.0,9e-08
1531946728192652144,4096,1531946728192395702,base_link,0.0784050510051,-0.328116541191,-0.909676465923,0.242241430642,1.0,0.0,0.0,0.0,1.0,0.0,0.0,0.0,1.0,0.0577880181372,-0.375043928623,-0.370255559683,1.21846967915e-07,0.0,0.0,0.0,1.21846967915e-07,0.0,0.0,0.0,1.21846967915e-07,0.9414384,0.2157463,11.4541672,9e-08,0.0,0.0,0.0,9e-08,0.0,0.0,0.0,9e-08
1531946728715572322,4097,1531946728714872246,base_link,0.0152514071056,-0.329948065138,-0.933702966266,0.138204340304,1.0,0.0,0.0,0.0,1.0,0.0,0.0,0.0,1.0,-0.254281401634,-0.367611736059,-0.306074291468,1.21846967915e-07,0.0,0.0,0.0,1.21846967915e-07,0.0,0.0,0.0,1.21846967915e-07,0.8825985,0.71588545,13.3174307,9e-08,0.0,0.0,0.0,9e-08,0.0,0.0,0.0,9e-08
1531946729171402427,4098,1531946729170945282,base_link,-0.0289883274563,-0.299205521781,-0.952293408181,0.0526592569527,1.0,0.0,0.0,0.0,1.0,0.0,0.0,0.0,1.0,-0.141963362694,-0.295716643333,-0.297394096851,1.21846967915e-07,0.0,0.0,0.0,1.21846967915e-07,0.0,0.0,0.0,1.21846967915e-07,0.67665885,0.2353596,11.60126695,9e-08,0.0,0.0,0.0,9e-08,0.0,0.0,0.0,9e-08
1531946729661870567,4099,1531946729661620688,base_link,-0.0754166838132,-0.231417246399,-0.969501321729,-0.0287327172086,1.0,0.0,0.0,0.0,1.0,0.0,0.0,0.0,1.0,-0.469856619835,-0.1700450629,-0.231950297952,1.21846967915e-07,0.0,0.0,0.0,1.21846967915e-07,0.0,0.0,0.0,1.21846967915e-07,0.85317855,0.2353596,12.30734575,9e-08,0.0,0.0,0.0,9e-08,0.0,0.0,0.0,9e-08
1531946730116370569,4100,1531946730114906386,base_link,-0.0863556461434,-0.12570277932,-0.983277626078,-0.0995320235096,1.0,0.0,0.0,0.0,1.0,0.0,0.0,0.0,1.0,-0.464633226395,-0.123439110816,-0.22265163064,1.21846967915e-07,0.0,0.0,0.0,1.21846967915e-07,0.0,0.0,0.0,1.21846967915e-07,0.7453054,0.0784532,10.81673495,9e-08,0.0,0.0,0.0,9e-08,0.0,0.0,0.0,9e-08
1531946730630483752,4101,1531946730629487247,base_link,-0.0825053897635,-0.0466873615609,-0.986452881638,-0.133880033009,1.0,0.0,0.0,0.0,1.0,0.0,0.0,0.0,1.0,-0.316937088966,0.0132427904755,0.0156195759773,1.21846967915e-07,0.0,0.0,0.0,1.21846967915e-07,0.0,0.0,0.0,1.21846967915e-07,0.69627215,0.00980665,9.0809579,9e-08,0.0,0.0,0.0,9e-08,0.0,0.0,0.0,9e-08
1531946730977442520,4102,1531946730977001447,base_link,-0.0831348885332,0.0155716677706,-0.98782288397,-0.130583549414,1.0,0.0,0.0,0.0,1.0,0.0,0.0,0.0,1.0,-0.296562671661,-0.0180182922632,0.0592665821314,1.21846967915e-07,0.0,0.0,0.0,1.21846967915e-07,0.0,0.0,0.0,1.21846967915e-07,1.0591182,0.1569064,9.3947707,9e-08,0.0,0.0,0.0,9e-08,0.0,0.0,0.0,9e-08
1531946731401245685,4103,1531946731400525407,base_link,-0.0565094832087,0.0627429287721,-0.989007031801,-0.121388196482,1.0,0.0,0.0,0.0,1.0,0.0,0.0,0.0,1.0,-0.190201938152,0.131172075868,0.0748359635472,1.21846967915e-07,0.0,0.0,0.0,1.21846967915e-07,0.0,0.0,0.0,1.21846967915e-07,1.1964113,0.196133,8.69849855,9e-08,0.0,0.0,0.0,9e-08,0.0,0.0,0.0,9e-08
1531946731825665879,4104,1531946731824172690,base_link,-0.0477814718145,0.0677126492817,-0.991051435407,-0.104637376001,1.0,0.0,0.0,0.0,1.0,0.0,0.0,0.0,1.0,-0.014018855989,0.0123371966183,0.118492461741,1.21846967915e-07,0.0,0.0,0.0,1.21846967915e-07,0.0,0.0,0.0,1.21846967915e-07,1.42196425,-0.10787315,9.67916355,9e-08,0.0,0.0,0.0,9e-08,0.0,0.0,0.0,9e-08
1531946732299198975,4105,1531946732298943142,base_link,-0.0450935824438,0.0827385224553,-0.992931831789,-0.0721615073597,1.0,0.0,0.0,0.0,1.0,0.0,0.0,0.0,1.0,0.195989221334,0.0234020911157,0.0587815120816,1.21846967915e-07,0.0,0.0,0.0,1.21846967915e-07,0.0,0.0,0.0,1.21846967915e-07,1.0395049,0.30400615,7.4138274,9e-08,0.0,0.0,0.0,9e-08,0.0,0.0,0.0,9e-08
1531946732715593473,4106,1531946732715075467,base_link,-0.0398683000516,0.0339053085246,-0.997228501357,-0.0528797199878,1.0,0.0,0.0,0.0,1.0,0.0,0.0,0.0,1.0,0.251702398062,0.101066246629,0.0952993556857,1.21846967915e-07,0.0,0.0,0.0,1.21846967915e-07,0.0,0.0,0.0,1.21846967915e-07,1.2160246,0.32361945,9.24767095,9e-08,0.0,0.0,0.0,9e-08,0.0,0.0,0.0,9e-08
1531946733197655769,4107,1531946733197346598,base_link,-0.0314546347915,-0.0203812940598,-0.998929568903,-0.027109503376,1.0,0.0,0.0,0.0,1.0,0.0,0.0,0.0,1.0,0.0904503241181,0.144082918763,0.0963358730078,1.21846967915e-07,0.0,0.0,0.0,1.21846967915e-07,0.0,0.0,0.0,1.21846967915e-07,1.4709975,0.5099458,10.1400761,9e-08,0.0,0.0,0.0,9e-08,0.0,0.0,0.0,9e-08
1531946733480486189,4108,1531946733471050768,base_link,-0.0186226311872,-0.0263202957246,-0.999189980433,-0.0240795066963,1.0,0.0,0.0,0.0,1.0,0.0,0.0,0.0,1.0,0.0663705468178,0.0914765372872,-0.0607858635485,1.21846967915e-07,0.0,0.0,0.0,1.21846967915e-07,0.0,0.0,0.0,1.21846967915e-07,1.57887065,0.44129925,8.9436648,9e-08,0.0,0.0,0.0,9e-08,0.0,0.0,0.0,9e-08
1531946733820106243,4109,1531946733819053776,base_link,-0.00338920721907,-0.060708083999,-0.99743934263,-0.0376536795862,1.0,0.0,0.0,0.0,1.0,0.0,0.0,0.0,1.0,0.235192894936,0.08744366467,-0.0569539181888,1.21846967915e-07,0.0,0.0,0.0,1.21846967915e-07,0.0,0.0,0.0,1.21846967915e-07,1.372931,0.04903325,8.30623255,9e-08,0.0,0.0,0.0,9e-08,0.0,0.0,0.0,9e-08
1531946734229851026,4110,1531946734229102063,base_link,-0.00646094227532,-0.0810157844571,-0.995538784866,-0.0479293930803,1.0,0.0,0.0,0.0,1.0,0.0,0.0,0.0,1.0,-0.031718634069,-0.0604767650366,-0.0480986759067,1.21846967915e-07,0.0,0.0,0.0,1.21846967915e-07,0.0,0.0,0.0,1.21846967915e-07,1.5298374,0.2745862,10.20872265,9e-08,0.0,0.0,0.0,9e-08,0.0,0.0,0.0,9e-08
1531946734699536345,4111,1531946734697498994,base_link,-0.0220312388765,-0.0711617910909,-0.995117406298,-0.0647454375616,1.0,0.0,0.0,0.0,1.0,0.0,0.0,0.0,1.0,-0.042498383671,-0.0960313975811,-0.0784430876374,1.21846967915e-07,0.0,0.0,0.0,1.21846967915e-07,0.0,0.0,0.0,1.21846967915e-07,1.32389775,0.50013915,11.0030613,9e-08,0.0,0.0,0.0,9e-08,0.0,0.0,0.0,9e-08
1531946735165061962,4112,1531946735164607347,base_link,-0.0258570766298,-0.0583201316267,-0.994794958081,-0.0794554290866,1.0,0.0,0.0,0.0,1.0,0.0,0.0,0.0,1.0,-0.0402138382196,0.00500596594065,-0.0405680015683,1.21846967915e-07,0.0,0.0,0.0,1.21846967915e-07,0.0,0.0,0.0,1.21846967915e-07,1.04931155,0.2745862,10.44408225,9e-08,0.0,0.0,0.0,9e-08,0.0,0.0,0.0,9e-08
1531946735646823059,4113,1531946735646205102,base_link,-0.0318235394166,-0.0725302475234,-0.993778385927,-0.0783016296023,1.0,0.0,0.0,0.0,1.0,0.0,0.0,0.0,1.0,0.0298053883016,-0.0534916743636,0.0251877512783,1.21846967915e-07,0.0,0.0,0.0,1.21846967915e-07,0.0,0.0,0.0,1.21846967915e-07,0.99047165,0.1372931,10.0812362,9e-08,0.0,0.0,0.0,9e-08,0.0,0.0,0.0,9e-08
1531946736034255847,4114,1531946736033783367,base_link,-0.0375254002279,-0.0458572499799,-0.995121786258,-0.0788770402399,1.0,0.0,0.0,0.0,1.0,0.0,0.0,0.0,1.0,-0.237501233816,-0.0437967330217,-0.0655989199877,1.21846967915e-07,0.0,0.0,0.0,1.21846967915e-07,0.0,0.0,0.0,1.21846967915e-07,0.8825985,0.75511205,9.1201845,9e-08,0.0,0.0,0.0,9e-08,0.0,0.0,0.0,9e-08
1531946736441483756,4115,1531946736441123841,base_link,-0.0497511228695,-0.0137485568685,-0.993558480425,-0.100882847568,1.0,0.0,0.0,0.0,1.0,0.0,0.0,0.0,1.0,-0.138008832932,-0.0507982484996,-0.0792045891285,1.21846967915e-07,0.0,0.0,0.0,1.21846967915e-07,0.0,0.0,0.0,1.21846967915e-07,1.26505785,0.18632635,11.9248864,9e-08,0.0,0.0,0.0,9e-08,0.0,0.0,0.0,9e-08
1531946736799506781,4116,1531946736799117989,base_link,-0.0514260457705,0.00195754390088,-0.993760946055,-0.0989480264298,1.0,0.0,0.0,0.0,1.0,0.0,0.0,0.0,1.0,-0.0316732563078,-0.0944929942489,0.0709592178464,1.21846967915e-07,0.0,0.0,0.0,1.21846967915e-07,0.0,0.0,0.0,1.21846967915e-07,0.97085835,-0.18632635,10.40485565,9e-08,0.0,0.0,0.0,9e-08,0.0,0.0,0.0,9e-08
1531946737104900708,4117,1531946737104637287,base_link,-0.0608105479597,0.0294739185973,-0.994213255179,-0.0835066979639,1.0,0.0,0.0,0.0,1.0,0.0,0.0,0.0,1.0,-0.207045286894,-0.0461954548955,0.15525406599,1.21846967915e-07,0.0,0.0,0.0,1.21846967915e-07,0.0,0.0,0.0,1.21846967915e-07,0.8041453,-0.1765197,10.81673495,9e-08,0.0,0.0,0.0,9e-08,0.0,0.0,0.0,9e-08
1531946737446403639,4118,1531946737445315603,base_link,-0.0599633704404,0.0468716990405,-0.995986971985,-0.0470891672338,1.0,0.0,0.0,0.0,1.0,0.0,0.0,0.0,1.0,-0.0370505079627,0.0369888283312,0.165774360299,1.21846967915e-07,0.0,0.0,0.0,1.21846967915e-07,0.0,0.0,0.0,1.21846967915e-07,1.22583125,0.4511059,11.1991943,9e-08,0.0,0.0,0.0,9e-08,0.0,0.0,0.0,9e-08
1531946737854670120,4119,1531946737854280015,base_link,-0.0543190128391,0.0142250422928,-0.997716029206,-0.0375475442829,1.0,0.0,0.0,0.0,1.0,0.0,0.0,0.0,1.0,0.176589339972,-0.0239577088505,-0.00539083220065,1.21846967915e-07,0.0,0.0,0.0,1.21846967915e-07,0.0,0.0,0.0,1.21846967915e-07,0.87279185,0.40207265,10.30678915,9e-08,0.0,0.0,0.0,9e-08,0.0,0.0,0.0,9e-08
1531946738220288942,4120,1531946738220025713,base_link,-0.0532839856647,-0.0317688942413,-0.99754858443,-0.0323786338793,1.0,0.0,0.0,0.0,1.0,0.0,0.0,0.0,1.0,0.149787291884,0.0735770836473,0.0680330842733,1.21846967915e-07,0.0,0.0,0.0,1.21846967915e-07,0.0,0.0,0.0,1.21846967915e-07,0.7453054,0.0392266,9.01231135,9e-08,0.0,0.0,0.0,9e-08,0.0,0.0,0.0,9e-08
1531946738582471638,4121,1531946738581999094,base_link,-0.0307289115668,-0.0367333452543,-0.998697587072,-0.0175933202345,1.0,0.0,0.0,0.0,1.0,0.0,0.0,0.0,1.0,-0.161375433207,0.12331404537,0.0478090010583,1.21846967915e-07,0.0,0.0,0.0,1.21846967915e-07,0.0,0.0,0.0,1.21846967915e-07,0.55897905,0.67665885,7.52170055,9e-08,0.0,0.0,0.0,9e-08,0.0,0.0,0.0,9e-08
1531946738941071193,4122,1531946738940791284,base_link,-0.00703955837026,-0.0180745009058,-0.999330013699,-0.03103676459,1.0,0.0,0.0,0.0,1.0,0.0,0.0,0.0,1.0,-0.0958503037691,0.156038582325,-0.158586204052,1.21846967915e-07,0.0,0.0,0.0,1.21846967915e-07,0.0,0.0,0.0,1.21846967915e-07,0.63743225,0.6864655,7.7864801,9e-08,0.0,0.0,0.0,9e-08,0.0,0.0,0.0,9e-08
1531946739291805673,4123,1531946739291357428,base_link,0.00620474567536,-0.0279956158944,-0.998022808268,-0.0559304997113,1.0,0.0,0.0,0.0,1.0,0.0,0.0,0.0,1.0,0.106710031629,0.062811434269,-0.097072802484,1.21846967915e-07,0.0,0.0,0.0,1.21846967915e-07,0.0,0.0,0.0,1.21846967915e-07,0.7060788,-0.02941995,6.58026215,9e-08,0.0,0.0,0.0,9e-08,0.0,0.0,0.0,9e-08
1531946739750486923,4124,1531946739749524994,base_link,0.0167329385322,-0.0366416278326,-0.997243974834,-0.0623045306134,1.0,0.0,0.0,0.0,1.0,0.0,0.0,0.0,1.0,-0.0661120042205,-0.0209283735603,0.00690445117652,1.21846967915e-07,0.0,0.0,0.0,1.21846967915e-07,0.0,0.0,0.0,1.21846967915e-07,0.93163175,0.00980665,8.91424485,9e-08,0.0,0.0,0.0,9e-08,0.0,0.0,0.0,9e-08
1531946740296532345,4125,1531946740294610057,base_link,0.00658842728843,-0.0286063321809,-0.997676948848,-0.0614733773431,1.0,0.0,0.0,0.0,1.0,0.0,0.0,0.0,1.0,-0.0339010283351,-0.0524569675326,-0.0250303037465,1.21846967915e-07,0.0,0.0,0.0,1.21846967915e-07,0.0,0.0,0.0,1.21846967915e-07,0.77472535,0.30400615,9.9831697,9e-08,0.0,0.0,0.0,9e-08,0.0,0.0,0.0,9e-08
1531946740646663434,4126,1531946740646391593,base_link,0.000864932474409,-0.0140547584226,-0.997330661712,-0.0716468203468,1.0,0.0,0.0,0.0,1.0,0.0,0.0,0.0,1.0,-0.0577724315226,-0.047499537468,-0.0652594566345,1.21846967915e-07,0.0,0.0,0.0,1.21846967915e-07,0.0,0.0,0.0,1.21846967915e-07,0.55897905,0.38245935,10.6500219,9e-08,0.0,0.0,0.0,9e-08,0.0,0.0,0.0,9e-08
1531946741159655285,4127,1531946741159335773,base_link,-0.0159714305656,-0.018116832229,-0.995141134402,-0.0954505967337,1.0,0.0,0.0,0.0,1.0,0.0,0.0,0.0,1.0,0.040546040982,-0.114468924701,-0.0834679454565,1.21846967915e-07,0.0,0.0,0.0,1.21846967915e-07,0.0,0.0,0.0,1.21846967915e-07,0.2549729,0.00980665,9.022118,9e-08,0.0,0.0,0.0,9e-08,0.0,0.0,0.0,9e-08
1531946741602719781,4128,1531946741601623421,base_link,-0.0321685219807,-0.0193919868979,-0.993748256287,-0.105135817699,1.0,0.0,0.0,0.0,1.0,0.0,0.0,0.0,1.0,-0.0677254348993,0.0229731425643,0.00549912732095,1.21846967915e-07,0.0,0.0,0.0,1.21846967915e-07,0.0,0.0,0.0,1.21846967915e-07,0.55897905,1.27422731674e-15,10.40485565,9e-08,0.0,0.0,0.0,9e-08,0.0,0.0,0.0,9e-08
1531946742105488125,4129,1531946742105027747,base_link,-0.0241139984921,-0.0307326735708,-0.993633596166,-0.10567068857,1.0,0.0,0.0,0.0,1.0,0.0,0.0,0.0,1.0,0.000641415361315,0.0491525493562,-0.00649621989578,1.21846967915e-07,0.0,0.0,0.0,1.21846967915e-07,0.0,0.0,0.0,1.21846967915e-07,0.4118793,0.0392266,8.4925589,9e-08,0.0,0.0,0.0,9e-08,0.0,0.0,0.0,9e-08
1531946742542693905,4130,1531946742542308955,base_link,-0.0127471789583,-0.00848689678557,-0.993647882472,-0.111487074003,1.0,0.0,0.0,0.0,1.0,0.0,0.0,0.0,1.0,-0.127424329519,0.0124599421397,-0.0485608316958,1.21846967915e-07,0.0,0.0,0.0,1.21846967915e-07,0.0,0.0,0.0,1.21846967915e-07,0.67665885,0.1176798,9.56148375,9e-08,0.0,0.0,0.0,9e-08,0.0,0.0,0.0,9e-08
1531946743002827428,4131,1531946742996840108,base_link,-0.0143509003894,-0.00927927205858,-0.993537413138,-0.112211209169,1.0,0.0,0.0,0.0,1.0,0.0,0.0,0.0,1.0,-0.0761992558837,-0.0124329356477,0.0803640037775,1.21846967915e-07,0.0,0.0,0.0,1.21846967915e-07,0.0,0.0,0.0,1.21846967915e-07,0.5491724,0.1176798,10.6304086,9e-08,0.0,0.0,0.0,9e-08,0.0,0.0,0.0,9e-08
1531946743268842094,4132,1531946743267688939,base_link,-0.0228392231373,0.0140024868844,-0.994750092361,-0.0987651456551,1.0,0.0,0.0,0.0,1.0,0.0,0.0,0.0,1.0,-0.0954729542136,-0.0783732235432,0.0725940912962,1.21846967915e-07,0.0,0.0,0.0,1.21846967915e-07,0.0,0.0,0.0,1.21846967915e-07,0.7453054,0.30400615,10.95402805,9e-08,0.0,0.0,0.0,9e-08,0.0,0.0,0.0,9e-08
1531946743677079890,4133,1531946743676696220,base_link,-0.0243807452649,0.00443485179747,-0.995417861665,-0.0923536248828,1.0,0.0,0.0,0.0,1.0,0.0,0.0,0.0,1.0,0.0244987476617,0.0717429295182,-0.0273984968662,1.21846967915e-07,0.0,0.0,0.0,1.21846967915e-07,0.0,0.0,0.0,1.21846967915e-07,0.55897905,0.2549729,9.5909037,9e-08,0.0,0.0,0.0,9e-08,0.0,0.0,0.0,9e-08
1531946744095971444,4134,1531946744095183230,base_link,-0.0268478972431,-0.00668796309797,-0.995171777867,-0.094167903771,1.0,0.0,0.0,0.0,1.0,0.0,0.0,0.0,1.0,0.12870323658,-0.0376036427915,0.00108478171751,1.21846967915e-07,0.0,0.0,0.0,1.21846967915e-07,0.0,0.0,0.0,1.21846967915e-07,0.6080123,0.20593965,9.44380395,9e-08,0.0,0.0,0.0,9e-08,0.0,0.0,0.0,9e-08
1531946744500298360,4135,1531946744499766748,base_link,-0.0160480383067,-0.0270071050237,-0.994998314784,-0.0948231528816,1.0,0.0,0.0,0.0,1.0,0.0,0.0,0.0,1.0,0.0136531163007,0.0741252303123,-0.00456068199128,1.21846967915e-07,0.0,0.0,0.0,1.21846967915e-07,0.0,0.0,0.0,1.21846967915e-07,0.6080123,0.0784532,8.12971285,9e-08,0.0,0.0,0.0,9e-08,0.0,0.0,0.0,9e-08
1531946745018041394,4136,1531946745017714775,base_link,-0.00811006589087,-0.020583211944,-0.995508563423,-0.0920503034662,1.0,0.0,0.0,0.0,1.0,0.0,0.0,0.0,1.0,-0.00628160266206,0.0598522573709,-0.000839639687911,1.21846967915e-07,0.0,0.0,0.0,1.21846967915e-07,0.0,0.0,0.0,1.21846967915e-07,0.7453054,0.32361945,9.5909037,9e-08,0.0,0.0,0.0,9e-08,0.0,0.0,0.0,9e-08
1531946745474469735,4137,1531946745473481330,base_link,-0.00213082797589,-0.00885755601661,-0.995655985616,-0.0926615431578,1.0,0.0,0.0,0.0,1.0,0.0,0.0,0.0,1.0,-0.0550029575825,-0.00702763069421,-0.00433827098459,1.21846967915e-07,0.0,0.0,0.0,1.21846967915e-07,0.0,0.0,0.0,1.21846967915e-07,0.81395195,0.1372931,9.32612415,9e-08,0.0,0.0,0.0,9e-08,0.0,0.0,0.0,9e-08
1531946745779149338,4138,1531946745778738071,base_link,-0.00176536097287,-0.00256500567005,-0.995781691899,-0.0917012885726,1.0,0.0,0.0,0.0,1.0,0.0,0.0,0.0,1.0,-0.0243552755564,-0.0221337936819,0.0116937495768,1.21846967915e-07,0.0,0.0,0.0,1.21846967915e-07,0.0,0.0,0.0,1.21846967915e-07,0.6276256,0.3334261,10.002783,9e-08,0.0,0.0,0.0,9e-08,0.0,0.0,0.0,9e-08
1531946746263361518,4139,1531946746262831731,base_link,-0.00534935224111,-0.00817372859305,-0.995725250639,-0.0918466103374,1.0,0.0,0.0,0.0,1.0,0.0,0.0,0.0,1.0,-0.0431494005024,-0.0777773708105,-0.00167942629196,1.21846967915e-07,0.0,0.0,0.0,1.21846967915e-07,0.0,0.0,0.0,1.21846967915e-07,0.53936575,0.28439285,9.85568325,9e-08,0.0,0.0,0.0,9e-08,0.0,0.0,0.0,9e-08
1531946746751816127,4140,1531946746751374317,base_link,-0.013227811797,-0.0134463035087,-0.996092764182,-0.086275298095,1.0,0.0,0.0,0.0,1.0,0.0,0.0,0.0,1.0,0.0185855813324,-0.0735942795873,0.0642056912184,1.21846967915e-07,0.0,0.0,0.0,1.21846967915e-07,0.0,0.0,0.0,1.21846967915e-07,0.7453054,0.0196133,10.50292215,9e-08,0.0,0.0,0.0,9e-08,0.0,0.0,0.0,9e-08
1531946747240965465,4141,1531946747240666475,base_link,-0.04148611323,-0.0112324417221,-0.996092621746,-0.0771506549931,1.0,0.0,0.0,0.0,1.0,0.0,0.0,0.0,1.0,-0.00989691074938,-0.0960662961006,0.00321477465332,1.21846967915e-07,0.0,0.0,0.0,1.21846967915e-07,0.0,0.0,0.0,1.21846967915e-07,0.4707192,0.3334261,11.5130071,9e-08,0.0,0.0,0.0,9e-08,0.0,0.0,0.0,9e-08
1531946747545000539,4142,1531946747544808736,base_link,-0.0464237048859,-0.0147052493935,-0.99576305743,-0.0780033891776,1.0,0.0,0.0,0.0,1.0,0.0,0.0,0.0,1.0,0.0565056800842,-0.023425899446,-0.0145509149879,1.21846967915e-07,0.0,0.0,0.0,1.21846967915e-07,0.0,0.0,0.0,1.21846967915e-07,0.26477955,1.16373823743e-15,9.50264385,9e-08,0.0,0.0,0.0,9e-08,0.0,0.0,0.0,9e-08
1531946747969435811,4143,1531946747968783054,base_link,-0.0541769404673,-0.0245506828899,-0.995552335401,-0.0730593633219,1.0,0.0,0.0,0.0,1.0,0.0,0.0,0.0,1.0,-0.011007883586,0.0756379514933,0.0354232341051,1.21846967915e-07,0.0,0.0,0.0,1.21846967915e-07,0.0,0.0,0.0,1.21846967915e-07,0.2941995,1.1517285549e-15,9.40457735,9e-08,0.0,0.0,0.0,9e-08,0.0,0.0,0.0,9e-08
1531946748474540848,4144,1531946748464574360,base_link,-0.0401581353614,-0.0114204244845,-0.996995683201,-0.0652419017736,1.0,0.0,0.0,0.0,1.0,0.0,0.0,0.0,1.0,0.0298595484346,0.14176350832,-0.0105455042794,1.21846967915e-07,0.0,0.0,0.0,1.21846967915e-07,0.0,0.0,0.0,1.21846967915e-07,0.4903325,0.32361945,9.26728425,9e-08,0.0,0.0,0.0,9e-08,0.0,0.0,0.0,9e-08
1531946748948024898,4145,1531946748947856210,base_link,-0.0252701911321,-0.0240268497975,-0.995617280071,-0.0867776443166,1.0,0.0,0.0,0.0,1.0,0.0,0.0,0.0,1.0,0.235788196325,0.0341320484877,-0.0534076541662,1.21846967915e-07,0.0,0.0,0.0,1.21846967915e-07,0.0,0.0,0.0,1.21846967915e-07,0.4903325,-0.4314926,8.433719,9e-08,0.0,0.0,0.0,9e-08,0.0,0.0,0.0,9e-08
1531946749203384044,4146,1531946749203144890,base_link,-0.0251464930938,-0.066166489127,-0.994159410957,-0.0814660371353,1.0,0.0,0.0,0.0,1.0,0.0,0.0,0.0,1.0,0.275112360716,0.0358463302255,0.044091809541,1.21846967915e-07,0.0,0.0,0.0,1.21846967915e-07,0.0,0.0,0.0,1.21846967915e-07,0.6276256,0.40207265,9.4339973,9e-08,0.0,0.0,0.0,9e-08,0.0,0.0,0.0,9e-08
1531946749601313717,4147,1531946749600243225,base_link,-0.0148917634963,-0.0643662767379,-0.994458092548,-0.08178214943,1.0,0.0,0.0,0.0,1.0,0.0,0.0,0.0,1.0,-0.194825038314,0.00564520666376,-0.0628747344017,1.21846967915e-07,0.0,0.0,0.0,1.21846967915e-07,0.0,0.0,0.0,1.21846967915e-07,0.61781895,0.3530394,8.9436648,9e-08,0.0,0.0,0.0,9e-08,0.0,0.0,0.0,9e-08
1531946749943228459,4148,1531946749941407595,base_link,-0.0133004348719,-0.0417860857856,-0.994608336885,-0.0939748778407,1.0,0.0,0.0,0.0,1.0,0.0,0.0,0.0,1.0,-0.234540358186,0.0504406392574,-0.0612562634051,1.21846967915e-07,0.0,0.0,0.0,1.21846967915e-07,0.0,0.0,0.0,1.21846967915e-07,0.5099458,0.196133,8.71811185,9e-08,0.0,0.0,0.0,9e-08,0.0,0.0,0.0,9e-08
1531946750390629637,4149,1531946750390232649,base_link,0.00060251395227,-0.00426730853754,-0.99435109914,-0.106053376626,1.0,0.0,0.0,0.0,1.0,0.0,0.0,0.0,1.0,-0.22752904892,-0.0259603969753,-0.0596319139004,1.21846967915e-07,0.0,0.0,0.0,1.21846967915e-07,0.0,0.0,0.0,1.21846967915e-07,0.55897905,0.40207265,10.07142955,9e-08,0.0,0.0,0.0,9e-08,0.0,0.0,0.0,9e-08
1531946750842603320,4150,1531946750842267929,base_link,0.000559047562395,0.028165963706,-0.993995162479,-0.10573543835,1.0,0.0,0.0,0.0,1.0,0.0,0.0,0.0,1.0,-0.118242606521,0.0380627922714,0.0698340535164,1.21846967915e-07,0.0,0.0,0.0,1.21846967915e-07,0.0,0.0,0.0,1.21846967915e-07,0.67665885,-0.0392266,10.395049,9e-08,0.0,0.0,0.0,9e-08,0.0,0.0,0.0,9e-08
1531946751246260286,4151,1531946751245866660,base_link,0.00188805741881,0.0200362614521,-0.995989661197,-0.0871755599624,1.0,0.0,0.0,0.0,1.0,0.0,0.0,0.0,1.0,0.0998282209039,-0.0153807401657,0.0667731836438,1.21846967915e-07,0.0,0.0,0.0,1.21846967915e-07,0.0,0.0,0.0,1.21846967915e-07,0.36284605,0.42168595,9.42419065,9e-08,0.0,0.0,0.0,9e-08,0.0,0.0,0.0,9e-08
1531946751538577608,4152,1531946751537580751,base_link,-0.00578210061418,-0.00283199526268,-0.996667393189,-0.0813182296262,1.0,0.0,0.0,0.0,1.0,0.0,0.0,0.0,1.0,0.18832296133,-0.0263028498739,0.0437764003873,1.21846967915e-07,0.0,0.0,0.0,1.21846967915e-07,0.0,0.0,0.0,1.21846967915e-07,0.55897905,0.2745862,10.0812362,9e-08,0.0,0.0,0.0,9e-08,0.0,0.0,0.0,9e-08
1531946751963548015,4153,1531946751963173309,base_link,-0.0109557009513,-0.0378357881571,-0.99610508132,-0.0788865813652,1.0,0.0,0.0,0.0,1.0,0.0,0.0,0.0,1.0,0.186333224177,-0.00954007357359,-0.0602761656046,1.21846967915e-07,0.0,0.0,0.0,1.21846967915e-07,0.0,0.0,0.0,1.21846967915e-07,0.50013915,0.4511059,9.58109705,9e-08,0.0,0.0,0.0,9e-08,0.0,0.0,0.0,9e-08
1531946752293077842,4154,1531946752292120523,base_link,-0.0141270158467,-0.0595836538244,-0.993304197228,-0.0979642148437,1.0,0.0,0.0,0.0,1.0,0.0,0.0,0.0,1.0,0.0331079848111,0.0559621043503,-0.130146726966,1.21846967915e-07,0.0,0.0,0.0,1.21846967915e-07,0.0,0.0,0.0,1.21846967915e-07,0.6080123,0.18632635,9.97336305,9e-08,0.0,0.0,0.0,9e-08,0.0,0.0,0.0,9e-08
1531946752785617396,4155,1531946752781622829,base_link,-0.0215480021051,-0.12812944108,-0.983959145888,-0.122241274362,1.0,0.0,0.0,0.0,1.0,0.0,0.0,0.0,1.0,0.371253937483,-0.108264498413,-0.116864815354,1.21846967915e-07,0.0,0.0,0.0,1.21846967915e-07,0.0,0.0,0.0,1.21846967915e-07,0.5295591,0.26477955,9.09076455,9e-08,0.0,0.0,0.0,9e-08,0.0,0.0,0.0,9e-08
1531946753290411374,4156,1531946753288130131,base_link,-0.0431623501296,-0.199615712893,-0.965184180174,-0.163432178712,1.0,0.0,0.0,0.0,1.0,0.0,0.0,0.0,1.0,0.324571460485,0.00284709315747,-0.209812313318,1.21846967915e-07,0.0,0.0,0.0,1.21846967915e-07,0.0,0.0,0.0,1.21846967915e-07,0.6472389,0.2941995,8.44352565,9e-08,0.0,0.0,0.0,9e-08,0.0,0.0,0.0,9e-08
1531946753784230672,4157,1531946753783970965,base_link,-0.0511443257509,-0.197903870389,-0.954082994615,-0.218961081965,1.0,0.0,0.0,0.0,1.0,0.0,0.0,0.0,1.0,-0.00232637068257,-0.0985334292054,-0.19167265296,1.21846967915e-07,0.0,0.0,0.0,1.21846967915e-07,0.0,0.0,0.0,1.21846967915e-07,1.40235095,0.2745862,11.0815145,9e-08,0.0,0.0,0.0,9e-08,0.0,0.0,0.0,9e-08
1531946754097437810,4158,1531946754096792832,base_link,-0.0622321215016,-0.206123674205,-0.944929699152,-0.246471210581,1.0,0.0,0.0,0.0,1.0,0.0,0.0,0.0,1.0,0.0396794304252,-0.056801378727,-0.175063058734,1.21846967915e-07,0.0,0.0,0.0,1.21846967915e-07,0.0,0.0,0.0,1.21846967915e-07,0.87279185,0.2941995,10.5323421,9e-08,0.0,0.0,0.0,9e-08,0.0,0.0,0.0,9e-08
1531946754527258934,4159,1531946754526952645,base_link,-0.0886489640334,-0.215571984545,-0.931157311471,-0.280385702112,1.0,0.0,0.0,0.0,1.0,0.0,0.0,0.0,1.0,-0.0933635309339,-0.151790618896,-0.155348286033,1.21846967915e-07,0.0,0.0,0.0,1.21846967915e-07,0.0,0.0,0.0,1.21846967915e-07,0.71588545,0.6864655,11.5522337,9e-08,0.0,0.0,0.0,9e-08,0.0,0.0,0.0,9e-08
1531946754902683592,4160,1531946754902446264,base_link,-0.0951480787583,-0.200391778557,-0.922220678827,-0.316700170097,1.0,0.0,0.0,0.0,1.0,0.0,0.0,0.0,1.0,-0.0462785921991,-0.151731520891,-0.145857468247,1.21846967915e-07,0.0,0.0,0.0,1.21846967915e-07,0.0,0.0,0.0,1.21846967915e-07,0.5295591,0.61781895,10.4146623,9e-08,0.0,0.0,0.0,9e-08,0.0,0.0,0.0,9e-08
1531946755397339800,4161,1531946755394777560,base_link,-0.109263885821,-0.20204695649,-0.896031793011,-0.379954545364,1.0,0.0,0.0,0.0,1.0,0.0,0.0,0.0,1.0,0.046990185976,-0.121450781822,-0.384612381458,1.21846967915e-07,0.0,0.0,0.0,1.21846967915e-07,0.0,0.0,0.0,1.21846967915e-07,0.77472535,0.3726527,9.2967042,9e-08,0.0,0.0,0.0,9e-08,0.0,0.0,0.0,9e-08
1531946755706565240,4162,1531946755705986790,base_link,-0.121867892801,-0.205887177444,-0.868702562548,-0.433721736476,1.0,0.0,0.0,0.0,1.0,0.0,0.0,0.0,1.0,0.0580420866609,-0.060392126441,-0.286865383387,1.21846967915e-07,0.0,0.0,0.0,1.21846967915e-07,0.0,0.0,0.0,1.21846967915e-07,0.9414384,0.2549729,11.93469305,9e-08,0.0,0.0,0.0,9e-08,0.0,0.0,0.0,9e-08
1531946756211718428,4163,1531946756210979645,base_link,-0.131386922043,-0.204931810629,-0.832008969501,-0.498499252134,1.0,0.0,0.0,0.0,1.0,0.0,0.0,0.0,1.0,-0.0270844772458,-0.17289352417,-0.296693980694,1.21846967915e-07,0.0,0.0,0.0,1.21846967915e-07,0.0,0.0,0.0,1.21846967915e-07,0.4707192,0.51975245,11.2776475,9e-08,0.0,0.0,0.0,9e-08,0.0,0.0,0.0,9e-08
1531946756583181623,4164,1531946756582426032,base_link,-0.146621894812,-0.186524780575,-0.805746424857,-0.542663086108,1.0,0.0,0.0,0.0,1.0,0.0,0.0,0.0,1.0,-0.11639008671,-0.263413339853,-0.184788033366,1.21846967915e-07,0.0,0.0,0.0,1.21846967915e-07,0.0,0.0,0.0,1.21846967915e-07,0.51975245,0.20593965,11.99353295,9e-08,0.0,0.0,0.0,9e-08,0.0,0.0,0.0,9e-08
1531946757119615732,4165,1531946757119387048,base_link,-0.154786191108,-0.135737305018,-0.776370732503,-0.595705552082,1.0,0.0,0.0,0.0,1.0,0.0,0.0,0.0,1.0,-0.246525421739,-0.0723801404238,-0.186567932367,1.21846967915e-07,0.0,0.0,0.0,1.21846967915e-07,0.0,0.0,0.0,1.21846967915e-07,0.6080123,0.588399,11.9248864,9e-08,0.0,0.0,0.0,9e-08,0.0,0.0,0.0,9e-08
1531946757474523200,4166,1531946757473740076,base_link,-0.13610635059,-0.105279669303,-0.756786827314,-0.630606811385,1.0,0.0,0.0,0.0,1.0,0.0,0.0,0.0,1.0,-0.198062121868,-0.0524703077972,-0.219085529447,1.21846967915e-07,0.0,0.0,0.0,1.21846967915e-07,0.0,0.0,0.0,1.21846967915e-07,0.4707192,0.24516625,10.44408225,9e-08,0.0,0.0,0.0,9e-08,0.0,0.0,0.0,9e-08
1531946757917030856,4167,1531946757916681570,base_link,-0.111719450855,-0.0719431249774,-0.730757404306,-0.669579395682,1.0,0.0,0.0,0.0,1.0,0.0,0.0,0.0,1.0,-0.255114018917,-0.00948478933424,-0.198062673211,1.21846967915e-07,0.0,0.0,0.0,1.21846967915e-07,0.0,0.0,0.0,1.21846967915e-07,0.59820565,0.28439285,10.34601575,9e-08,0.0,0.0,0.0,9e-08,0.0,0.0,0.0,9e-08
1531946758229876382,4168,1531946758229659991,base_link,-0.0844729871017,-0.0492178055003,-0.715026028171,-0.692228070155,1.0,0.0,0.0,0.0,1.0,0.0,0.0,0.0,1.0,-0.251074671745,-0.0441966578364,-0.101814247668,1.21846967915e-07,0.0,0.0,0.0,1.21846967915e-07,0.0,0.0,0.0,1.21846967915e-07,0.48052585,-0.0588399,8.71811185,9e-08,0.0,0.0,0.0,9e-08,0.0,0.0,0.0,9e-08
1531946758596601969,4169,1531946758595427011,base_link,-0.0640920024774,-0.0218011330945,-0.708016363662,-0.702943635437,1.0,0.0,0.0,0.0,1.0,0.0,0.0,0.0,1.0,-0.257947266102,0.0209756363183,-0.0513760149479,1.21846967915e-07,0.0,0.0,0.0,1.21846967915e-07,0.0,0.0,0.0,1.21846967915e-07,0.6864655,0.24516625,9.34573745,9e-08,0.0,0.0,0.0,9e-08,0.0,0.0,0.0,9e-08
1531946759032167227,4170,1531946759031695131,base_link,-0.0197172163132,0.00516131395516,-0.703152781657,-0.710746620018,1.0,0.0,0.0,0.0,1.0,0.0,0.0,0.0,1.0,-0.208360761404,0.080123052001,-0.0152974687517,1.21846967915e-07,0.0,0.0,0.0,1.21846967915e-07,0.0,0.0,0.0,1.21846967915e-07,0.7256921,0.10787315,9.05153795,9e-08,0.0,0.0,0.0,9e-08,0.0,0.0,0.0,9e-08
1531946759502250719,4171,1531946759495076179,base_link,-0.00252521669978,0.025992677032,-0.706859025608,-0.706872210472,1.0,0.0,0.0,0.0,1.0,0.0,0.0,0.0,1.0,-0.0854732319713,0.0169072169811,0.0557415895164,1.21846967915e-07,0.0,0.0,0.0,1.21846967915e-07,0.0,0.0,0.0,1.21846967915e-07,0.85317855,1.16614017394e-15,9.52225715,9e-08,0.0,0.0,0.0,9e-08,0.0,0.0,0.0,9e-08
1531946759782959076,4172,1531946759780475914,base_link,0.00109317752217,0.0316503521867,-0.713178574772,-0.700266649681,1.0,0.0,0.0,0.0,1.0,0.0,0.0,0.0,1.0,0.0293558966368,0.0378489606082,0.027951516211,1.21846967915e-07,0.0,0.0,0.0,1.21846967915e-07,0.0,0.0,0.0,1.21846967915e-07,0.784532,0.18632635,9.7281968,9e-08,0.0,0.0,0.0,9e-08,0.0,0.0,0.0,9e-08
1531946760209238969,4173,1531946760208548497,base_link,0.00914202296917,0.0298633147213,-0.711479097446,-0.702012891439,1.0,0.0,0.0,0.0,1.0,0.0,0.0,0.0,1.0,0.0385342426598,-0.0743125081062,-0.0158978682011,1.21846967915e-07,0.0,0.0,0.0,1.21846967915e-07,0.0,0.0,0.0,1.21846967915e-07,0.4903325,0.10787315,8.62004535,9e-08,0.0,0.0,0.0,9e-08,0.0,0.0,0.0,9e-08
1531946760527340749,4174,1531946760526901468,base_link,-0.00238154630405,0.0419379260679,-0.715455554923,-0.697394355816,1.0,0.0,0.0,0.0,1.0,0.0,0.0,0.0,1.0,0.0781742110848,-0.066891387105,0.0401690341532,1.21846967915e-07,0.0,0.0,0.0,1.21846967915e-07,0.0,0.0,0.0,1.21846967915e-07,0.75511205,0.2353596,11.13054775,9e-08,0.0,0.0,0.0,9e-08,0.0,0.0,0.0,9e-08
1531946760898238555,4175,1531946760897512323,base_link,-0.0197580837594,0.0323055486809,-0.720921235246,-0.691981605407,1.0,0.0,0.0,0.0,1.0,0.0,0.0,0.0,1.0,0.131338343024,-0.0515306517482,0.0380112789571,1.21846967915e-07,0.0,0.0,0.0,1.21846967915e-07,0.0,0.0,0.0,1.21846967915e-07,0.50013915,0.10787315,10.0223963,9e-08,0.0,0.0,0.0,9e-08,0.0,0.0,0.0,9e-08
1531946761350793795,4176,1531946761350359925,base_link,-0.0251269480074,0.0283194775198,-0.727633208878,-0.684920839962,1.0,0.0,0.0,0.0,1.0,0.0,0.0,0.0,1.0,0.0276028811932,0.025104008615,0.0143276173621,1.21846967915e-07,0.0,0.0,0.0,1.21846967915e-07,0.0,0.0,0.0,1.21846967915e-07,0.5491724,0.2745862,10.13026945,9e-08,0.0,0.0,0.0,9e-08,0.0,0.0,0.0,9e-08
1531946761661710181,4177,1531946761661444167,base_link,-0.0240725339077,0.00601152946504,-0.730301533699,-0.682674186198,1.0,0.0,0.0,0.0,1.0,0.0,0.0,0.0,1.0,0.0982889384031,0.175799638033,-0.00572716258466,1.21846967915e-07,0.0,0.0,0.0,1.21846967915e-07,0.0,0.0,0.0,1.21846967915e-07,0.42168595,0.4314926,8.7279185,9e-08,0.0,0.0,0.0,9e-08,0.0,0.0,0.0,9e-08
1531946762111380596,4178,1531946762111102832,base_link,-0.0207509945513,-0.0174085776467,-0.728370768272,-0.684647618542,1.0,0.0,0.0,0.0,1.0,0.0,0.0,0.0,1.0,0.0244116336107,0.0487777516246,-0.0331379771233,1.21846967915e-07,0.0,0.0,0.0,1.21846967915e-07,0.0,0.0,0.0,1.21846967915e-07,0.42168595,0.392266,8.5513988,9e-08,0.0,0.0,0.0,9e-08,0.0,0.0,0.0,9e-08
1531946762473869581,4179,1531946762472035686,base_link,-0.0254731815221,-0.0259633321139,-0.722902776578,-0.68999173765,1.0,0.0,0.0,0.0,1.0,0.0,0.0,0.0,1.0,0.0798459351063,0.0442640334368,-0.0721740573645,1.21846967915e-07,0.0,0.0,0.0,1.21846967915e-07,0.0,0.0,0.0,1.21846967915e-07,0.57859235,0.22555295,9.44380395,9e-08,0.0,0.0,0.0,9e-08,0.0,0.0,0.0,9e-08
1531946762938325282,4180,1531946762938000776,base_link,-0.0379428759369,-0.033713075862,-0.716622489253,-0.695611942521,1.0,0.0,0.0,0.0,1.0,0.0,0.0,0.0,1.0,0.0536129325628,-0.0239740759134,-0.0393831580877,1.21846967915e-07,0.0,0.0,0.0,1.21846967915e-07,0.0,0.0,0.0,1.21846967915e-07,0.71588545,0.2941995,9.9243298,9e-08,0.0,0.0,0.0,9e-08,0.0,0.0,0.0,9e-08
1531946763282857363,4181,1531946763282607196,base_link,-0.0344227406075,-0.0369060134267,-0.711976504897,-0.700387376797,1.0,0.0,0.0,0.0,1.0,0.0,0.0,0.0,1.0,-0.0403362624347,0.0767240822315,-0.050794404,1.21846967915e-07,0.0,0.0,0.0,1.21846967915e-07,0.0,0.0,0.0,1.21846967915e-07,0.6472389,0.1569064,9.52225715,9e-08,0.0,0.0,0.0,9e-08,0.0,0.0,0.0,9e-08
1531946763649546837,4182,1531946763649277429,base_link,-0.0187609578736,-0.0343773591838,-0.70757264739,-0.705554514053,1.0,0.0,0.0,0.0,1.0,0.0,0.0,0.0,1.0,-0.0586131252348,0.0560557544231,-0.0536425933242,1.21846967915e-07,0.0,0.0,0.0,1.21846967915e-07,0.0,0.0,0.0,1.21846967915e-07,0.5687857,0.10787315,10.07142955,9e-08,0.0,0.0,0.0,9e-08,0.0,0.0,0.0,9e-08
1531946764045016526,4183,1531946764044694998,base_link,-0.00155621916728,-0.0281187475709,-0.703258010735,-0.710376720166,1.0,0.0,0.0,0.0,1.0,0.0,0.0,0.0,1.0,-0.123224318027,-0.0816573947668,-0.0104981241748,1.21846967915e-07,0.0,0.0,0.0,1.21846967915e-07,0.0,0.0,0.0,1.21846967915e-07,0.42168595,0.1765197,9.89490985,9e-08,0.0,0.0,0.0,9e-08,0.0,0.0,0.0,9e-08
1531946764451803137,4184,1531946764451134404,base_link,-0.00215500199174,-0.00306618653518,-0.704650325642,-0.709544835115,1.0,0.0,0.0,0.0,1.0,0.0,0.0,0.0,1.0,-0.106521941721,-0.0382198020816,0.0509159713984,1.21846967915e-07,0.0,0.0,0.0,1.21846967915e-07,0.0,0.0,0.0,1.21846967915e-07,0.57859235,-0.02941995,10.52253545,9e-08,0.0,0.0,0.0,9e-08,0.0,0.0,0.0,9e-08
1531946764814530379,4185,1531946764814328715,base_link,0.0087684910777,0.00276499850601,-0.708490967388,-0.705659987159,1.0,0.0,0.0,0.0,1.0,0.0,0.0,0.0,1.0,-0.133456021547,0.0532060824335,-0.0533163920045,1.21846967915e-07,0.0,0.0,0.0,1.21846967915e-07,0.0,0.0,0.0,1.21846967915e-07,0.34323275,0.40207265,9.0025047,9e-08,0.0,0.0,0.0,9e-08,0.0,0.0,0.0,9e-08
1531946765305160676,4186,1531946765304490342,base_link,0.0270945625373,0.00825606146052,-0.701573946188,-0.71203351056,1.0,0.0,0.0,0.0,1.0,0.0,0.0,0.0,1.0,0.129154205322,-0.0159530099481,0.0333175174892,1.21846967915e-07,0.0,0.0,0.0,1.21846967915e-07,0.0,0.0,0.0,1.21846967915e-07,0.44129925,0.0392266,10.2185293,9e-08,0.0,0.0,0.0,9e-08,0.0,0.0,0.0,9e-08
1531946765755206917,4187,1531946765753443840,base_link,0.0297096116497,0.0162450705139,-0.720281220487,-0.692855251891,1.0,0.0,0.0,0.0,1.0,0.0,0.0,0.0,1.0,-0.174527063966,-0.0509878993034,0.152510747313,1.21846967915e-07,0.0,0.0,0.0,1.21846967915e-07,0.0,0.0,0.0,1.21846967915e-07,0.44129925,0.0784532,9.7674234,9e-08,0.0,0.0,0.0,9e-08,0.0,0.0,0.0,9e-08
1531946766281986910,4188,1531946766281726498,base_link,0.0100289245571,0.00833313113446,-0.743645150436,-0.668447357562,1.0,0.0,0.0,0.0,1.0,0.0,0.0,0.0,1.0,0.136549681425,-0.046111792326,0.0529120005667,1.21846967915e-07,0.0,0.0,0.0,1.21846967915e-07,0.0,0.0,0.0,1.21846967915e-07,0.6276256,0.3138128,10.03220295,9e-08,0.0,0.0,0.0,9e-08,0.0,0.0,0.0,9e-08
1531946766624114234,4189,1531946766623741897,base_link,-0.0115423524459,0.00361379853621,-0.746816751469,-0.664919885615,1.0,0.0,0.0,0.0,1.0,0.0,0.0,0.0,1.0,0.161993682384,-0.0447183288634,-0.0368165522814,1.21846967915e-07,0.0,0.0,0.0,1.21846967915e-07,0.0,0.0,0.0,1.21846967915e-07,0.65704555,0.1765197,10.50292215,9e-08,0.0,0.0,0.0,9e-08,0.0,0.0,0.0,9e-08
1531946766951824861,4190,1531946766948230259,base_link,-0.0291587409496,-0.0186551439505,-0.742316012059,-0.669155207461,1.0,0.0,0.0,0.0,1.0,0.0,0.0,0.0,1.0,0.146356999874,-0.0105881430209,-0.0558823496103,1.21846967915e-07,0.0,0.0,0.0,1.21846967915e-07,0.0,0.0,0.0,1.21846967915e-07,0.55897905,0.2549729,9.8458766,9e-08,0.0,0.0,0.0,9e-08,0.0,0.0,0.0,9e-08
1531946767474323559,4191,1531946767468901786,base_link,-0.0554719749689,-0.0366612892924,-0.728194958816,-0.682137018359,1.0,0.0,0.0,0.0,1.0,0.0,0.0,0.0,1.0,0.065406486392,-0.0342659726739,-0.0562437735498,1.21846967915e-07,0.0,0.0,0.0,1.21846967915e-07,0.0,0.0,0.0,1.21846967915e-07,0.28439285,0.22555295,9.71839015,9e-08,0.0,0.0,0.0,9e-08,0.0,0.0,0.0,9e-08
1531946767938498807,4192,1531946767937661962,base_link,-0.0581794164201,-0.0556055686678,-0.722785924565,-0.686369931953,1.0,0.0,0.0,0.0,1.0,0.0,0.0,0.0,1.0,0.0875680074096,0.0646110549569,-0.0539002940059,1.21846967915e-07,0.0,0.0,0.0,1.21846967915e-07,0.0,0.0,0.0,1.21846967915e-07,0.3530394,0.08825985,7.9237732,9e-08,0.0,0.0,0.0,9e-08,0.0,0.0,0.0,9e-08
1531946768405650284,4193,1531946768405268599,base_link,-0.048899265776,-0.0644822891485,-0.713288803617,-0.696182432145,1.0,0.0,0.0,0.0,1.0,0.0,0.0,0.0,1.0,-0.00244578998536,0.0367546342313,-0.0833978429437,1.21846967915e-07,0.0,0.0,0.0,1.21846967915e-07,0.0,0.0,0.0,1.21846967915e-07,0.42168595,0.3138128,8.87501825,9e-08,0.0,0.0,0.0,9e-08,0.0,0.0,0.0,9e-08
1531946768756948711,4194,1531946768755557555,base_link,-0.046304204289,-0.0605696484909,-0.707502829988,-0.702585926351,1.0,0.0,0.0,0.0,1.0,0.0,0.0,0.0,1.0,-0.0478832684457,0.00681134266779,-0.00839912705123,1.21846967915e-07,0.0,0.0,0.0,1.21846967915e-07,0.0,0.0,0.0,1.21846967915e-07,0.61781895,0.12748645,9.4928372,9e-08,0.0,0.0,0.0,9e-08,0.0,0.0,0.0,9e-08
1531946769204138332,4195,1531946769203912081,base_link,-0.0462914673505,-0.0584394137071,-0.700856497761,-0.709395590994,1.0,0.0,0.0,0.0,1.0,0.0,0.0,0.0,1.0,0.0926620364189,-0.0866589322686,-0.0736057832837,1.21846967915e-07,0.0,0.0,0.0,1.21846967915e-07,0.0,0.0,0.0,1.21846967915e-07,0.4903325,0.28439285,10.787315,9e-08,0.0,0.0,0.0,9e-08,0.0,0.0,0.0,9e-08
1531946769568336928,4196,1531946769567302710,base_link,-0.0646055314864,-0.0781744645614,-0.690337166607,-0.716344522414,1.0,0.0,0.0,0.0,1.0,0.0,0.0,0.0,1.0,0.179533049464,-0.0665469095111,-0.0907565057278,1.21846967915e-07,0.0,0.0,0.0,1.21846967915e-07,0.0,0.0,0.0,1.21846967915e-07,0.24516625,0.392266,8.9828914,9e-08,0.0,0.0,0.0,9e-08,0.0,0.0,0.0,9e-08
1531946769923527378,4197,1531946769923124147,base_link,-0.0926980936759,-0.0804272282897,-0.670148443406,-0.732010647586,1.0,0.0,0.0,0.0,1.0,0.0,0.0,0.0,1.0,0.0587765350938,-0.179658889771,-0.121004320681,1.21846967915e-07,0.0,0.0,0.0,1.21846967915e-07,0.0,0.0,0.0,1.21846967915e-07,0.5491724,0.28439285,11.34629405,9e-08,0.0,0.0,0.0,9e-08,0.0,0.0,0.0,9e-08
1531946770287090537,4198,1531946770281434029,base_link,-0.141324496912,-0.0899022833952,-0.646011404898,-0.744724264916,1.0,0.0,0.0,0.0,1.0,0.0,0.0,0.0,1.0,0.245928198099,-0.11531739682,-0.154967620969,1.21846967915e-07,0.0,0.0,0.0,1.21846967915e-07,0.0,0.0,0.0,1.21846967915e-07,0.55897905,0.6472389,11.5914603,9e-08,0.0,0.0,0.0,9e-08,0.0,0.0,0.0,9e-08
1531946770684029819,4199,1531946770683698654,base_link,-0.165686627524,-0.109974815559,-0.610222700149,-0.766864875728,1.0,0.0,0.0,0.0,1.0,0.0,0.0,0.0,1.0,0.0133298672736,-0.0127767501399,-0.225365102291,1.21846967915e-07,0.0,0.0,0.0,1.21846967915e-07,0.0,0.0,0.0,1.21846967915e-07,0.42168595,0.42168595,9.1986377,9e-08,0.0,0.0,0.0,9e-08,0.0,0.0,0.0,9e-08
1531946770927237120,4200,1531946770926804723,base_link,-0.161819607034,-0.107878377428,-0.586687720143,-0.786113343925,1.0,0.0,0.0,0.0,1.0,0.0,0.0,0.0,1.0,-0.0710616335273,-0.107110157609,-0.243451148272,1.21846967915e-07,0.0,0.0,0.0,1.21846967915e-07,0.0,0.0,0.0,1.21846967915e-07,0.5295591,0.46091255,10.13026945,9e-08,0.0,0.0,0.0,9e-08,0.0,0.0,0.0,9e-08
1531946771362828630,4201,1531946771362528776,base_link,-0.174344449043,-0.111208311913,-0.546568130794,-0.811480130902,1.0,0.0,0.0,0.0,1.0,0.0,0.0,0.0,1.0,0.124961659312,0.0204605907202,-0.189092710614,1.21846967915e-07,0.0,0.0,0.0,1.21846967915e-07,0.0,0.0,0.0,1.21846967915e-07,0.73549875,0.1372931,10.18910935,9e-08,0.0,0.0,0.0,9e-08,0.0,0.0,0.0,9e-08
1531946771732277717,4202,1531946771731973285,base_link,-0.193509188926,-0.107118231076,-0.512451224857,-0.829743105132,1.0,0.0,0.0,0.0,1.0,0.0,0.0,0.0,1.0,0.0208177734166,-0.178205311298,-0.182305395603,1.21846967915e-07,0.0,0.0,0.0,1.21846967915e-07,0.0,0.0,0.0,1.21846967915e-07,0.65704555,0.3530394,11.3364874,9e-08,0.0,0.0,0.0,9e-08,0.0,0.0,0.0,9e-08
1531946772206858639,4203,1531946772206185264,base_link,-0.205771758529,-0.0924757760807,-0.464988281839,-0.856091182049,1.0,0.0,0.0,0.0,1.0,0.0,0.0,0.0,1.0,0.0615312159061,-0.0450272895396,-0.288076639175,1.21846967915e-07,0.0,0.0,0.0,1.21846967915e-07,0.0,0.0,0.0,1.21846967915e-07,0.57859235,0.7060788,11.0226746,9e-08,0.0,0.0,0.0,9e-08,0.0,0.0,0.0,9e-08
1531946772656004741,4204,1531946772655197670,base_link,-0.245985185362,-0.0977437047171,-0.399085757761,-0.877876992934,1.0,0.0,0.0,0.0,1.0,0.0,0.0,0.0,1.0,0.140842884779,-0.0489686541259,-0.198346659541,1.21846967915e-07,0.0,0.0,0.0,1.21846967915e-07,0.0,0.0,0.0,1.21846967915e-07,0.46091255,0.2353596,10.73828175,9e-08,0.0,0.0,0.0,9e-08,0.0,0.0,0.0,9e-08
1531946772957428592,4205,1531946772956560340,base_link,-0.252425654785,-0.0895336313151,-0.370357555285,-0.889438192857,1.0,0.0,0.0,0.0,1.0,0.0,0.0,0.0,1.0,-0.0190911963582,-0.121910586953,-0.193204045296,1.21846967915e-07,0.0,0.0,0.0,1.21846967915e-07,0.0,0.0,0.0,1.21846967915e-07,0.4903325,0.3726527,10.13026945,9e-08,0.0,0.0,0.0,9e-08,0.0,0.0,0.0,9e-08
1531946773378840894,4206,1531946773378480851,base_link,-0.253541582576,-0.0882110787593,-0.31427644845,-0.910585408097,1.0,0.0,0.0,0.0,1.0,0.0,0.0,0.0,1.0,0.00243094237521,-0.0134247187525,-0.351899057627,1.21846967915e-07,0.0,0.0,0.0,1.21846967915e-07,0.0,0.0,0.0,1.21846967915e-07,0.50013915,0.6472389,10.14988275,9e-08,0.0,0.0,0.0,9e-08,0.0,0.0,0.0,9e-08
1531946773725940977,4207,1531946773725577605,base_link,-0.264963654584,-0.0809788167501,-0.246680309975,-0.928647143784,1.0,0.0,0.0,0.0,1.0,0.0,0.0,0.0,1.0,0.021956667304,-0.102223478258,-0.309096097946,1.21846967915e-07,0.0,0.0,0.0,1.21846967915e-07,0.0,0.0,0.0,1.21846967915e-07,0.5491724,0.4314926,10.9246081,9e-08,0.0,0.0,0.0,9e-08,0.0,0.0,0.0,9e-08
1531946774174836912,4208,1531946774172348147,base_link,-0.257381892316,-0.0485617848198,-0.178111788025,-0.948510677604,1.0,0.0,0.0,0.0,1.0,0.0,0.0,0.0,1.0,-0.105789683759,-0.320798635483,-0.259078890085,1.21846967915e-07,0.0,0.0,0.0,1.21846967915e-07,0.0,0.0,0.0,1.21846967915e-07,0.5687857,0.4118793,11.30706745,9e-08,0.0,0.0,0.0,9e-08,0.0,0.0,0.0,9e-08
1531946774591674916,4209,1531946774588531953,base_link,-0.233193920599,-0.00627463420793,-0.114018264182,-0.96570236605,1.0,0.0,0.0,0.0,1.0,0.0,0.0,0.0,1.0,-0.253686189651,-0.171699926257,-0.22601339221,1.21846967915e-07,0.0,0.0,0.0,1.21846967915e-07,0.0,0.0,0.0,1.21846967915e-07,0.65704555,0.4903325,13.34685065,9e-08,0.0,0.0,0.0,9e-08,0.0,0.0,0.0,9e-08
1531946775024582593,4210,1531946775021661944,base_link,-0.174567195722,0.0240158909739,-0.0667626727434,-0.982085676856,1.0,0.0,0.0,0.0,1.0,0.0,0.0,0.0,1.0,-0.310502082109,-0.0382649153471,-0.146837726235,1.21846967915e-07,0.0,0.0,0.0,1.21846967915e-07,0.0,0.0,0.0,1.21846967915e-07,0.3530394,0.38245935,11.34629405,9e-08,0.0,0.0,0.0,9e-08,0.0,0.0,0.0,9e-08
1531946775362932157,4211,1531946775360815824,base_link,-0.120566246798,0.0334137274569,-0.0363813361268,-0.991475517263,1.0,0.0,0.0,0.0,1.0,0.0,0.0,0.0,1.0,-0.342478007078,-0.0861380547285,-0.165393039584,1.21846967915e-07,0.0,0.0,0.0,1.21846967915e-07,0.0,0.0,0.0,1.21846967915e-07,0.2941995,0.42168595,10.60098865,9e-08,0.0,0.0,0.0,9e-08,0.0,0.0,0.0,9e-08
1531946775754911262,4212,1531946775754027482,base_link,-0.0561386243605,0.0376103251545,-0.00930639990502,-0.997670942354,1.0,0.0,0.0,0.0,1.0,0.0,0.0,0.0,1.0,-0.297108143568,-0.0258835405111,-0.0812009051442,1.21846967915e-07,0.0,0.0,0.0,1.21846967915e-07,0.0,0.0,0.0,1.21846967915e-07,0.4314926,1.16373823743e-15,9.50264385,9e-08,0.0,0.0,0.0,9e-08,0.0,0.0,0.0,9e-08
1531946776168384021,4213,1531946776168054681,base_link,-0.00320947423444,0.0503433493244,0.00110121289208,-0.998726205616,1.0,0.0,0.0,0.0,1.0,0.0,0.0,0.0,1.0,-0.246534585953,-0.056125510484,0.00872153509408,1.21846967915e-07,0.0,0.0,0.0,1.21846967915e-07,0.0,0.0,0.0,1.21846967915e-07,0.69627215,-0.08825985,10.2969825,9e-08,0.0,0.0,0.0,9e-08,0.0,0.0,0.0,9e-08
1531946776623243362,4214,1531946776622643781,base_link,0.0402259007563,0.0385875703713,-0.00592531679797,-0.998427647325,1.0,0.0,0.0,0.0,1.0,0.0,0.0,0.0,1.0,-0.0752882882953,0.081958130002,0.0473758876324,1.21846967915e-07,0.0,0.0,0.0,1.21846967915e-07,0.0,0.0,0.0,1.21846967915e-07,0.75511205,0.0784532,9.3947707,9e-08,0.0,0.0,0.0,9e-08,0.0,0.0,0.0,9e-08
1531946777064213008,4215,1531946777063796330,base_link,0.0586158569006,0.0340154575307,-0.0233896208991,-0.997426716909,1.0,0.0,0.0,0.0,1.0,0.0,0.0,0.0,1.0,-0.0259328223765,-0.0306005887687,0.131730914116,1.21846967915e-07,0.0,0.0,0.0,1.21846967915e-07,0.0,0.0,0.0,1.21846967915e-07,0.65704555,0.10787315,9.022118,9e-08,0.0,0.0,0.0,9e-08,0.0,0.0,0.0,9e-08
1531946777325062567,4216,1531946777323624060,base_link,0.0600408936645,0.0393768635198,-0.041860522478,-0.996540139867,1.0,0.0,0.0,0.0,1.0,0.0,0.0,0.0,1.0,0.04236972332,-0.0401215814054,0.146315976977,1.21846967915e-07,0.0,0.0,0.0,1.21846967915e-07,0.0,0.0,0.0,1.21846967915e-07,0.9610517,0.00980665,10.1596894,9e-08,0.0,0.0,0.0,9e-08,0.0,0.0,0.0,9e-08
1531946777664076445,4217,1531946777663616579,base_link,0.0608335172162,0.0354221763992,-0.0549957200128,-0.996002019768,1.0,0.0,0.0,0.0,1.0,0.0,0.0,0.0,1.0,0.0185070224106,0.0331191122532,0.00641937647015,1.21846967915e-07,0.0,0.0,0.0,1.21846967915e-07,0.0,0.0,0.0,1.21846967915e-07,0.77472535,0.26477955,9.79684335,9e-08,0.0,0.0,0.0,9e-08,0.0,0.0,0.0,9e-08
1531946777930200411,4218,1531946777928318686,base_link,0.0473782365358,0.0259659255228,-0.0519192807035,-0.997188779372,1.0,0.0,0.0,0.0,1.0,0.0,0.0,0.0,1.0,0.144548907876,0.120314024389,-0.0434275791049,1.21846967915e-07,0.0,0.0,0.0,1.21846967915e-07,0.0,0.0,0.0,1.21846967915e-07,0.588399,0.06864655,6.99214145,9e-08,0.0,0.0,0.0,9e-08,0.0,0.0,0.0,9e-08
1531946778489644671,4219,1531946778489301596,base_link,0.0200767123484,0.0070603036718,-0.0413767045064,-0.998916936516,1.0,0.0,0.0,0.0,1.0,0.0,0.0,0.0,1.0,0.0262808445841,0.0708601474762,0.0102833230048,1.21846967915e-07,0.0,0.0,0.0,1.21846967915e-07,0.0,0.0,0.0,1.21846967915e-07,0.97085835,0.0392266,7.48247395,9e-08,0.0,0.0,0.0,9e-08,0.0,0.0,0.0,9e-08
1531946778870500354,4220,1531946778865316711,base_link,0.0111112559968,-0.000665549793957,-0.0515407523659,-0.998608856299,1.0,0.0,0.0,0.0,1.0,0.0,0.0,0.0,1.0,0.12150143832,-0.00717102410272,0.0685916915536,1.21846967915e-07,0.0,0.0,0.0,1.21846967915e-07,0.0,0.0,0.0,1.21846967915e-07,1.1964113,0.4511059,9.1986377,9e-08,0.0,0.0,0.0,9e-08,0.0,0.0,0.0,9e-08
1531946779180594943,4221,1531946779180167828,base_link,0.000243727863487,0.00373480068955,-0.0433498171884,-0.999052944148,1.0,0.0,0.0,0.0,1.0,0.0,0.0,0.0,1.0,-0.287658989429,0.0386798866093,-0.144305065274,1.21846967915e-07,0.0,0.0,0.0,1.21846967915e-07,0.0,0.0,0.0,1.21846967915e-07,1.34351105,0.6080123,9.7674234,9e-08,0.0,0.0,0.0,9e-08,0.0,0.0,0.0,9e-08
1531946779643218671,4222,1531946779642957588,base_link,-0.00522719682006,0.0176533139814,-0.0294018408573,-0.999398103197,1.0,0.0,0.0,0.0,1.0,0.0,0.0,0.0,1.0,0.329511165619,-0.197080254555,0.0464886836708,1.21846967915e-07,0.0,0.0,0.0,1.21846967915e-07,0.0,0.0,0.0,1.21846967915e-07,1.9221034,0.53936575,16.3182656,9e-08,0.0,0.0,0.0,9e-08,0.0,0.0,0.0,9e-08
1531946779963292843,4223,1531946779962868482,base_link,-0.0115489188356,0.0459137946526,-0.0403637133978,-0.998062781881,1.0,0.0,0.0,0.0,1.0,0.0,0.0,0.0,1.0,-0.071724973619,-0.122778601944,0.048475176096,1.21846967915e-07,0.0,0.0,0.0,1.21846967915e-07,0.0,0.0,0.0,1.21846967915e-07,0.8629852,0.4314926,13.1605243,9e-08,0.0,0.0,0.0,9e-08,0.0,0.0,0.0,9e-08
1531946780428437704,4224,1531946780428173163,base_link,-0.0359480955919,0.0625273660092,-0.0443127955494,-0.996410778281,1.0,0.0,0.0,0.0,1.0,0.0,0.0,0.0,1.0,-0.00416848575696,-0.0553065054119,0.0572627857327,1.21846967915e-07,0.0,0.0,0.0,1.21846967915e-07,0.0,0.0,0.0,1.21846967915e-07,0.784532,0.24516625,11.8072066,9e-08,0.0,0.0,0.0,9e-08,0.0,0.0,0.0,9e-08
1531946780721229555,4225,1531946780720986240,base_link,-0.0418991129405,0.0680575440836,-0.0452846109555,-0.995772031661,1.0,0.0,0.0,0.0,1.0,0.0,0.0,0.0,1.0,0.143368154764,-0.0131686097011,-0.0429342612624,1.21846967915e-07,0.0,0.0,0.0,1.21846967915e-07,0.0,0.0,0.0,1.21846967915e-07,0.59820565,0.28439285,9.71839015,9e-08,0.0,0.0,0.0,9e-08,0.0,0.0,0.0,9e-08
1531946781180763274,4226,1531946781180402334,base_link,-0.0560436995122,0.0461225012104,-0.0349123703717,-0.996751195145,1.0,0.0,0.0,0.0,1.0,0.0,0.0,0.0,1.0,-0.16321054101,0.1849796772,-0.0339107178152,1.21846967915e-07,0.0,0.0,0.0,1.21846967915e-07,0.0,0.0,0.0,1.21846967915e-07,0.7060788,0.392266,7.9826131,9e-08,0.0,0.0,0.0,9e-08,0.0,0.0,0.0,9e-08
1531946781678920118,4227,1531946781678573585,base_link,-0.0380358904305,0.00627817661396,-0.00861531372767,-0.999219511372,1.0,0.0,0.0,0.0,1.0,0.0,0.0,0.0,1.0,-0.0141839422286,0.10820709914,-0.0536118634045,1.21846967915e-07,0.0,0.0,0.0,1.21846967915e-07,0.0,0.0,0.0,1.21846967915e-07,1.0395049,0.1569064,7.8257067,9e-08,0.0,0.0,0.0,9e-08,0.0,0.0,0.0,9e-08
1531946782100298004,4228,1531946782100025939,base_link,-0.0264413465647,-0.00766433178298,-0.00194220402439,-0.999619097984,1.0,0.0,0.0,0.0,1.0,0.0,0.0,0.0,1.0,-0.0853892117739,0.078916169703,-0.114490516484,1.21846967915e-07,0.0,0.0,0.0,1.21846967915e-07,0.0,0.0,0.0,1.21846967915e-07,0.63743225,0.46091255,7.3353742,9e-08,0.0,0.0,0.0,9e-08,0.0,0.0,0.0,9e-08
1531946782573342421,4229,1531946782572765795,base_link,-0.0135970387462,-0.0129857770735,0.00466958913205,-0.999812324923,1.0,0.0,0.0,0.0,1.0,0.0,0.0,0.0,1.0,-0.0564225576818,-0.0294156894088,0.0356553792953,1.21846967915e-07,0.0,0.0,0.0,1.21846967915e-07,0.0,0.0,0.0,1.21846967915e-07,0.50013915,0.2549729,9.40457735,9e-08,0.0,0.0,0.0,9e-08,0.0,0.0,0.0,9e-08
1531946782932868816,4230,1531946782932517737,base_link,-0.00567568636287,-0.0190430944109,0.00203472016736,-0.999800483623,1.0,0.0,0.0,0.0,1.0,0.0,0.0,0.0,1.0,-0.0715635791421,0.0351648181677,-0.0807389318943,1.21846967915e-07,0.0,0.0,0.0,1.21846967915e-07,0.0,0.0,0.0,1.21846967915e-07,0.2157463,0.6276256,9.1986377,9e-08,0.0,0.0,0.0,9e-08,0.0,0.0,0.0,9e-08
1531946783303985286,4231,1531946783303572995,base_link,0.0045702452387,-0.0143637670837,0.0145249103736,-0.999780887011,1.0,0.0,0.0,0.0,1.0,0.0,0.0,0.0,1.0,-0.0267842449248,-0.00207336619496,0.0571132153273,1.21846967915e-07,0.0,0.0,0.0,1.21846967915e-07,0.0,0.0,0.0,1.21846967915e-07,0.30400615,-0.4314926,10.56176205,9e-08,0.0,0.0,0.0,9e-08,0.0,0.0,0.0,9e-08
1531946783726886871,4232,1531946783726510565,base_link,0.0257605893032,0.00590742974305,-0.0136126309944,-0.999557997612,1.0,0.0,0.0,0.0,1.0,0.0,0.0,0.0,1.0,-0.0971847996116,-0.11094583571,0.116940632463,1.21846967915e-07,0.0,0.0,0.0,1.21846967915e-07,0.0,0.0,0.0,1.21846967915e-07,-0.14709975,-0.00980665,8.8652116,9e-08,0.0,0.0,0.0,9e-08,0.0,0.0,0.0,9e-08
1531946784114385291,4233,1531946784113950428,base_link,0.00803802165241,0.00277688000184,-0.0205998528567,-0.99975163176,1.0,0.0,0.0,0.0,1.0,0.0,0.0,0.0,1.0,0.076587587595,0.039408929646,-0.00984004884958,1.21846967915e-07,0.0,0.0,0.0,1.21846967915e-07,0.0,0.0,0.0,1.21846967915e-07,0.06864655,0.1569064,10.09104285,9e-08,0.0,0.0,0.0,9e-08,0.0,0.0,0.0,9e-08
1531946784578149784,4234,1531946784576752225,base_link,0.0099171576309,-0.00353522072506,-0.0138493335751,-0.999848662628,1.0,0.0,0.0,0.0,1.0,0.0,0.0,0.0,1.0,0.0256922766566,-0.0190548077226,-0.0282430648804,1.21846967915e-07,0.0,0.0,0.0,1.21846967915e-07,0.0,0.0,0.0,1.21846967915e-07,0.0980665,-0.0392266,9.5712904,9e-08,0.0,0.0,0.0,9e-08,0.0,0.0,0.0,9e-08
1531946784957332930,4235,1531946784956820335,base_link,0.00734678500922,-0.0102078763938,-0.0228665908593,-0.999659413516,1.0,0.0,0.0,0.0,1.0,0.0,0.0,0.0,1.0,-0.074096351862,0.0891793593764,0.0941223800182,1.21846967915e-07,0.0,0.0,0.0,1.21846967915e-07,0.0,0.0,0.0,1.21846967915e-07,0.04903325,0.22555295,8.91424485,9e-08,0.0,0.0,0.0,9e-08,0.0,0.0,0.0,9e-08
1531946785512936135,4236,1531946785511568927,base_link,-0.0268306779285,-0.0242722542845,-0.0265395114391,-0.998992806143,1.0,0.0,0.0,0.0,1.0,0.0,0.0,0.0,1.0,0.2539498806,0.0453816354275,-0.0783017426729,1.21846967915e-07,0.0,0.0,0.0,1.21846967915e-07,0.0,0.0,0.0,1.21846967915e-07,0.1765197,0.1765197,8.67888525,9e-08,0.0,0.0,0.0,9e-08,0.0,0.0,0.0,9e-08
1531946785964307933,4237,1531946785963991463,base_link,-0.0389081711478,-0.0362330231933,-0.00659110638984,-0.998563908603,1.0,0.0,0.0,0.0,1.0,0.0,0.0,0.0,1.0,-0.0875832885504,0.0168780442327,-0.100099258125,1.21846967915e-07,0.0,0.0,0.0,1.21846967915e-07,0.0,0.0,0.0,1.21846967915e-07,0.16671305,0.04903325,8.40429905,9e-08,0.0,0.0,0.0,9e-08,0.0,0.0,0.0,9e-08
1531946786309993649,4238,1531946786308915217,base_link,-0.0146302425079,-0.0393952285204,-0.00320037386301,-0.999111470048,1.0,0.0,0.0,0.0,1.0,0.0,0.0,0.0,1.0,-0.109656468034,0.0619821734726,0.0755656808615,1.21846967915e-07,0.0,0.0,0.0,1.21846967915e-07,0.0,0.0,0.0,1.21846967915e-07,0.04903325,-0.32361945,6.3743225,9e-08,0.0,0.0,0.0,9e-08,0.0,0.0,0.0,9e-08
1531946786678564496,4239,1531946786674753695,base_link,0.0367392838623,-0.0298314644301,-0.0298517920769,-0.998433362454,1.0,0.0,0.0,0.0,1.0,0.0,0.0,0.0,1.0,-0.19952775538,-0.0391265228391,0.0946276187897,1.21846967915e-07,0.0,0.0,0.0,1.21846967915e-07,0.0,0.0,0.0,1.21846967915e-07,0.44129925,0.14709975,9.6497436,9e-08,0.0,0.0,0.0,9e-08,0.0,0.0,0.0,9e-08
1531946787061672095,4240,1531946787061352808,base_link,0.0361586741408,-0.0286932305803,-0.0318594545322,-0.998425873042,1.0,0.0,0.0,0.0,1.0,0.0,0.0,0.0,1.0,0.00240214564838,-0.129107058048,0.034409660846,1.21846967915e-07,0.0,0.0,0.0,1.21846967915e-07,0.0,0.0,0.0,1.21846967915e-07,0.38245935,-0.16671305,9.8654899,9e-08,0.0,0.0,0.0,9e-08,0.0,0.0,0.0,9e-08
1531946787530294126,4241,1531946787529939782,base_link,0.00840878792748,-0.0180100325777,-0.0586703870815,-0.998079514213,1.0,0.0,0.0,0.0,1.0,0.0,0.0,0.0,1.0,0.0650257542729,-0.0713627934456,0.145832195878,1.21846967915e-07,0.0,0.0,0.0,1.21846967915e-07,0.0,0.0,0.0,1.21846967915e-07,0.34323275,0.24516625,9.67916355,9e-08,0.0,0.0,0.0,9e-08,0.0,0.0,0.0,9e-08
1531946787930420297,4242,1531946787929703092,base_link,0.022386783361,-0.00617123457695,-0.0699169744403,-0.997282489809,1.0,0.0,0.0,0.0,1.0,0.0,0.0,0.0,1.0,0.0092884041369,0.0354014411569,-0.066707842052,1.21846967915e-07,0.0,0.0,0.0,1.21846967915e-07,0.0,0.0,0.0,1.21846967915e-07,0.6276256,0.51975245,10.4538889,9e-08,0.0,0.0,0.0,9e-08,0.0,0.0,0.0,9e-08
1531946788385400943,4243,1531946788384666738,base_link,0.00947821038019,0.00694035987849,-0.0544114880762,-0.998449490409,1.0,0.0,0.0,0.0,1.0,0.0,0.0,0.0,1.0,-0.031065447256,0.00424392009154,-0.0484414212406,1.21846967915e-07,0.0,0.0,0.0,1.21846967915e-07,0.0,0.0,0.0,1.21846967915e-07,0.97085835,0.20593965,12.40541225,9e-08,0.0,0.0,0.0,9e-08,0.0,0.0,0.0,9e-08
1531946788775304759,4244,1531946788774789667,base_link,0.0274577426386,0.0155042637688,-0.0457599214126,-0.998454665854,1.0,0.0,0.0,0.0,1.0,0.0,0.0,0.0,1.0,-0.145583465695,-0.0870759263635,-0.00824450235814,1.21846967915e-07,0.0,0.0,0.0,1.21846967915e-07,0.0,0.0,0.0,1.21846967915e-07,0.57859235,0.1372931,9.4339973,9e-08,0.0,0.0,0.0,9e-08,0.0,0.0,0.0,9e-08
1531946789225495773,4245,1531946789224987724,base_link,-0.001521850142,0.023417003821,-0.0570666228962,-0.998094548856,1.0,0.0,0.0,0.0,1.0,0.0,0.0,0.0,1.0,0.288526386023,-0.00737000769004,0.082626581192,1.21846967915e-07,0.0,0.0,0.0,1.21846967915e-07,0.0,0.0,0.0,1.21846967915e-07,1.4317709,0.18632635,12.05237285,9e-08,0.0,0.0,0.0,9e-08,0.0,0.0,0.0,9e-08
1531946789708202726,4246,1531946789707983614,base_link,-0.0456170801138,0.0226582506564,-0.0570185771166,-0.997073000107,1.0,0.0,0.0,0.0,1.0,0.0,0.0,0.0,1.0,0.19815056026,0.00964552629739,-0.0687444284558,1.21846967915e-07,0.0,0.0,0.0,1.21846967915e-07,0.0,0.0,0.0,1.21846967915e-07,1.0198916,0.1569064,8.3944924,9e-08,0.0,0.0,0.0,9e-08,0.0,0.0,0.0,9e-08
1531946790104261207,4247,1531946790095736202,base_link,-0.0893602773205,0.0299197000213,-0.0558615139253,-0.993981410113,1.0,0.0,0.0,0.0,1.0,0.0,0.0,0.0,1.0,0.20312461257,-0.0789086595178,0.049356110394,1.21846967915e-07,0.0,0.0,0.0,1.21846967915e-07,0.0,0.0,0.0,1.21846967915e-07,0.9610517,0.1765197,10.1400761,9e-08,0.0,0.0,0.0,9e-08,0.0,0.0,0.0,9e-08
1531946790444236630,4248,1531946790443856929,base_link,-0.0983102834816,0.0346248778438,-0.0560131835996,-0.992974687119,1.0,0.0,0.0,0.0,1.0,0.0,0.0,0.0,1.0,0.00810039322823,0.0134261408821,-0.0345904678106,1.21846967915e-07,0.0,0.0,0.0,1.21846967915e-07,0.0,0.0,0.0,1.21846967915e-07,0.8237586,0.3530394,8.79656505,9e-08,0.0,0.0,0.0,9e-08,0.0,0.0,0.0,9e-08
1531946790896601410,4249,1531946790895533320,base_link,-0.0993303073273,0.0407869697908,-0.0181734566729,-0.994052130733,1.0,0.0,0.0,0.0,1.0,0.0,0.0,0.0,1.0,0.0172373857349,0.0005843937397,-0.180354103446,1.21846967915e-07,0.0,0.0,0.0,1.21846967915e-07,0.0,0.0,0.0,1.21846967915e-07,0.75511205,0.1765197,9.32612415,9e-08,0.0,0.0,0.0,9e-08,0.0,0.0,0.0,9e-08
1531946791389469857,4250,1531946791389159694,base_link,-0.0884534051207,0.0430995569186,-0.0190681414121,-0.994964737716,1.0,0.0,0.0,0.0,1.0,0.0,0.0,0.0,1.0,-0.17644816637,0.0265100002289,0.0359857194126,1.21846967915e-07,0.0,0.0,0.0,1.21846967915e-07,0.0,0.0,0.0,1.21846967915e-07,0.4314926,0.44129925,9.91452315,9e-08,0.0,0.0,0.0,9e-08,0.0,0.0,0.0,9e-08
1531946791883957825,4251,1531946791883479070,base_link,-0.0669403774068,0.0281379244634,-0.00335795530737,-0.997354484231,1.0,0.0,0.0,0.0,1.0,0.0,0.0,0.0,1.0,0.00177757185884,0.0428564436734,-0.11722702533,1.21846967915e-07,0.0,0.0,0.0,1.21846967915e-07,0.0,0.0,0.0,1.21846967915e-07,0.46091255,0.32361945,8.8455983,9e-08,0.0,0.0,0.0,9e-08,0.0,0.0,0.0,9e-08
1531946792276636462,4252,1531946792275605285,base_link,-0.0974132839066,0.025011797231,0.0222425274894,-0.994681020272,1.0,0.0,0.0,0.0,1.0,0.0,0.0,0.0,1.0,0.256636857986,0.0063343020156,-0.161092013121,1.21846967915e-07,0.0,0.0,0.0,1.21846967915e-07,0.0,0.0,0.0,1.21846967915e-07,0.40207265,0.32361945,9.7870367,9e-08,0.0,0.0,0.0,9e-08,0.0,0.0,0.0,9e-08
1531946792660126995,4253,1531946792659854258,base_link,-0.153734226231,0.0401092830478,0.0483223526869,-0.98611458935,1.0,0.0,0.0,0.0,1.0,0.0,0.0,0.0,1.0,0.260541170835,-0.146676450968,-0.108959458768,1.21846967915e-07,0.0,0.0,0.0,1.21846967915e-07,0.0,0.0,0.0,1.21846967915e-07,0.95124505,0.00980665,10.787315,9e-08,0.0,0.0,0.0,9e-08,0.0,0.0,0.0,9e-08
1531946793003009077,4254,1531946792999731842,base_link,-0.188957606735,0.0510783389279,0.065851150949,-0.978442462319,1.0,0.0,0.0,0.0,1.0,0.0,0.0,0.0,1.0,0.202539712191,0.00301020219922,-0.144425570965,1.21846967915e-07,0.0,0.0,0.0,1.21846967915e-07,0.0,0.0,0.0,1.21846967915e-07,1.06892485,0.44129925,10.7480884,9e-08,0.0,0.0,0.0,9e-08,0.0,0.0,0.0,9e-08
1531946793303346364,4255,1531946793303016000,base_link,-0.217913935965,0.0618051852155,0.0960515604956,-0.969261437033,1.0,0.0,0.0,0.0,1.0,0.0,0.0,0.0,1.0,0.181636378169,-0.159768819809,-0.241962194443,1.21846967915e-07,0.0,0.0,0.0,1.21846967915e-07,0.0,0.0,0.0,1.21846967915e-07,0.8041453,0.48052585,10.75789505,9e-08,0.0,0.0,0.0,9e-08,0.0,0.0,0.0,9e-08
1531946793778339002,4256,1531946793776514072,base_link,-0.272752543584,0.0713351460248,0.159759105557,-0.946041423566,1.0,0.0,0.0,0.0,1.0,0.0,0.0,0.0,1.0,0.205346733332,-0.0851490348577,-0.310937821865,1.21846967915e-07,0.0,0.0,0.0,1.21846967915e-07,0.0,0.0,0.0,1.21846967915e-07,0.83356525,0.3334261,8.97308475,9e-08,0.0,0.0,0.0,9e-08,0.0,0.0,0.0,9e-08
1531946794127540434,4257,1531946794127287290,base_link,-0.294823148715,0.082980965327,0.218569087338,-0.926510131858,1.0,0.0,0.0,0.0,1.0,0.0,0.0,0.0,1.0,0.0537665337324,-0.256178468466,-0.288165539503,1.21846967915e-07,0.0,0.0,0.0,1.21846967915e-07,0.0,0.0,0.0,1.21846967915e-07,1.04931155,0.2941995,9.93413645,9e-08,0.0,0.0,0.0,9e-08,0.0,0.0,0.0,9e-08
1531946794536749026,4258,1531946794534882188,base_link,-0.321351547731,0.113783033869,0.275312960983,-0.898882293456,1.0,0.0,0.0,0.0,1.0,0.0,0.0,0.0,1.0,0.216010704637,-0.148333340883,-0.327588677406,1.21846967915e-07,0.0,0.0,0.0,1.21846967915e-07,0.0,0.0,0.0,1.21846967915e-07,0.93163175,0.59820565,12.0817928,9e-08,0.0,0.0,0.0,9e-08,0.0,0.0,0.0,9e-08
1531946794923002983,4259,1531946794922753616,base_link,-0.345462246469,0.141692957035,0.353560897161,-0.857655894978,1.0,0.0,0.0,0.0,1.0,0.0,0.0,0.0,1.0,0.236942797899,-0.308121263981,-0.426073044538,1.21846967915e-07,0.0,0.0,0.0,1.21846967915e-07,0.0,0.0,0.0,1.21846967915e-07,1.08853815,0.4903325,12.3759923,9e-08,0.0,0.0,0.0,9e-08,0.0,0.0,0.0,9e-08
1531946795312804959,4260,1531946795307948062,base_link,-0.358645566544,0.183315654851,0.429875373057,-0.808069237085,1.0,0.0,0.0,0.0,1.0,0.0,0.0,0.0,1.0,0.0564929805696,-0.435543775558,-0.365947932005,1.21846967915e-07,0.0,0.0,0.0,1.21846967915e-07,0.0,0.0,0.0,1.21846967915e-07,0.81395195,0.67665885,12.6309652,9e-08,0.0,0.0,0.0,9e-08,0.0,0.0,0.0,9e-08
1531946795705379643,4261,1531946795705015566,base_link,-0.332078891578,0.231762931325,0.513631753058,-0.756433721936,1.0,0.0,0.0,0.0,1.0,0.0,0.0,0.0,1.0,-0.0794144198298,-0.375002771616,-0.374039888382,1.21846967915e-07,0.0,0.0,0.0,1.21846967915e-07,0.0,0.0,0.0,1.21846967915e-07,0.8237586,0.95124505,14.81784815,9e-08,0.0,0.0,0.0,9e-08,0.0,0.0,0.0,9e-08
1531946796111442422,4262,1531946796104503962,base_link,-0.280207590875,0.250213406102,0.601507603393,-0.705028765714,1.0,0.0,0.0,0.0,1.0,0.0,0.0,0.0,1.0,-0.32970431447,-0.468645721674,-0.405895829201,1.21846967915e-07,0.0,0.0,0.0,1.21846967915e-07,0.0,0.0,0.0,1.21846967915e-07,0.65704555,1.04931155,13.89602305,9e-08,0.0,0.0,0.0,9e-08,0.0,0.0,0.0,9e-08
1531946796484036042,4263,1531946796483838764,base_link,0.230347394205,-0.254958656307,-0.675746727205,0.652152223203,1.0,0.0,0.0,0.0,1.0,0.0,0.0,0.0,1.0,-0.195670887828,-0.357770860195,-0.341010272503,1.21846967915e-07,0.0,0.0,0.0,1.21846967915e-07,0.0,0.0,0.0,1.21846967915e-07,0.1176798,0.392266,13.8666031,9e-08,0.0,0.0,0.0,9e-08,0.0,0.0,0.0,9e-08
1531946796980721275,4264,1531946796977893982,base_link,0.113938934743,-0.223256124176,-0.761031274238,0.598336044209,1.0,0.0,0.0,0.0,1.0,0.0,0.0,0.0,1.0,-0.696346342564,-0.285199671984,-0.258120000362,1.21846967915e-07,0.0,0.0,0.0,1.21846967915e-07,0.0,0.0,0.0,1.21846967915e-07,0.196133,0.0784532,14.24906245,9e-08,0.0,0.0,0.0,9e-08,0.0,0.0,0.0,9e-08
1531946797340876769,4265,1531946797340613252,base_link,0.0306393541223,-0.151388360066,-0.807520983474,0.569256230239,1.0,0.0,0.0,0.0,1.0,0.0,0.0,0.0,1.0,-0.659581959248,-0.191220700741,-0.183793887496,1.21846967915e-07,0.0,0.0,0.0,1.21846967915e-07,0.0,0.0,0.0,1.21846967915e-07,-0.16671305,-0.0784532,10.54214875,9e-08,0.0,0.0,0.0,9e-08,0.0,0.0,0.0,9e-08
1531946797692950412,4266,1531946797690775844,base_link,-0.0566640433172,-0.0658027447829,-0.833175367929,0.546148323489,1.0,0.0,0.0,0.0,1.0,0.0,0.0,0.0,1.0,-0.427570313215,-0.0137931890786,-0.0388408191502,1.21846967915e-07,0.0,0.0,0.0,1.21846967915e-07,0.0,0.0,0.0,1.21846967915e-07,0.14709975,-0.0588399,11.4737805,9e-08,0.0,0.0,0.0,9e-08,0.0,0.0,0.0,9e-08
1531946798013158343,4267,1531946798012859129,base_link,-0.09760142461,-0.0180293376762,-0.828788825994,0.550688647789,1.0,0.0,0.0,0.0,1.0,0.0,0.0,0.0,1.0,-0.317573159933,-0.0788881853223,0.167265996337,1.21846967915e-07,0.0,0.0,0.0,1.21846967915e-07,0.0,0.0,0.0,1.21846967915e-07,0.2157463,-0.00980665,10.18910935,9e-08,0.0,0.0,0.0,9e-08,0.0,0.0,0.0,9e-08
1531946798428670310,4268,1531946798428376187,base_link,-0.109534438882,0.0159616335381,-0.810709407131,0.574889285118,1.0,0.0,0.0,0.0,1.0,0.0,0.0,0.0,1.0,0.261617094278,0.120605967939,0.124297812581,1.21846967915e-07,0.0,0.0,0.0,1.21846967915e-07,0.0,0.0,0.0,1.21846967915e-07,-0.34323275,0.8237586,8.16893945,9e-08,0.0,0.0,0.0,9e-08,0.0,0.0,0.0,9e-08
1531946798898051613,4269,1531946798891203436,base_link,-0.0720097521066,0.0416197525916,-0.804932646594,0.587508149937,1.0,0.0,0.0,0.0,1.0,0.0,0.0,0.0,1.0,-0.167603433132,0.236977040768,0.0515597835183,1.21846967915e-07,0.0,0.0,0.0,1.21846967915e-07,0.0,0.0,0.0,1.21846967915e-07,-0.5491724,0.3138128,5.95263655,9e-08,0.0,0.0,0.0,9e-08,0.0,0.0,0.0,9e-08
1531946799294360325,4270,1531946799293904140,base_link,-0.0616033259376,0.113601426988,-0.797222481444,0.589691496547,1.0,0.0,0.0,0.0,1.0,0.0,0.0,0.0,1.0,-0.35739248991,0.268556058407,0.103165999055,1.21846967915e-07,0.0,0.0,0.0,1.21846967915e-07,0.0,0.0,0.0,1.21846967915e-07,-0.6472389,0.12748645,5.36423755,9e-08,0.0,0.0,0.0,9e-08,0.0,0.0,0.0,9e-08
1531946799783146387,4271,1531946799782631102,base_link,-0.0671778692738,0.217689217231,-0.762791506479,0.605183985433,1.0,0.0,0.0,0.0,1.0,0.0,0.0,0.0,1.0,-0.344177186489,0.229035228491,0.225764155388,1.21846967915e-07,0.0,0.0,0.0,1.21846967915e-07,0.0,0.0,0.0,1.21846967915e-07,-0.67665885,-0.2941995,6.2174161,9e-08,0.0,0.0,0.0,9e-08,0.0,0.0,0.0,9e-08
1531946800267932311,4272,1531946800267280673,base_link,-0.0660963728574,0.303790987955,-0.697635710303,0.645481774214,1.0,0.0,0.0,0.0,1.0,0.0,0.0,0.0,1.0,-0.329007893801,0.09616907686,0.428246259689,1.21846967915e-07,0.0,0.0,0.0,1.21846967915e-07,0.0,0.0,0.0,1.21846967915e-07,-0.77472535,-0.3726527,6.54103555,9e-08,0.0,0.0,0.0,9e-08,0.0,0.0,0.0,9e-08
1531946800733962647,4273,1531946800733449508,base_link,0.10221883936,-0.335289954599,0.608587905707,-0.711865658851,1.0,0.0,0.0,0.0,1.0,0.0,0.0,0.0,1.0,-0.266828089952,-0.256522923708,0.339954316616,1.21846967915e-07,0.0,0.0,0.0,1.21846967915e-07,0.0,0.0,0.0,1.21846967915e-07,-0.7649187,-0.08825985,9.9439431,9e-08,0.0,0.0,0.0,9e-08,0.0,0.0,0.0,9e-08
1531946801078732377,4274,1531946801078406494,base_link,0.134065754171,-0.327342798179,0.557917621725,-0.75073363679,1.0,0.0,0.0,0.0,1.0,0.0,0.0,0.0,1.0,-0.118622511625,-0.334538727999,0.271156430244,1.21846967915e-07,0.0,0.0,0.0,1.21846967915e-07,0.0,0.0,0.0,1.21846967915e-07,-0.85317855,-0.2157463,11.3168741,9e-08,0.0,0.0,0.0,9e-08,0.0,0.0,0.0,9e-08
1531946801530929526,4275,1531946801525127445,base_link,0.169820592755,-0.280648339014,0.492729437759,-0.805987082558,1.0,0.0,0.0,0.0,1.0,0.0,0.0,0.0,1.0,-0.101109534502,-0.40159586072,0.280693650246,1.21846967915e-07,0.0,0.0,0.0,1.21846967915e-07,0.0,0.0,0.0,1.21846967915e-07,-0.8825985,-0.28439285,12.64077185,9e-08,0.0,0.0,0.0,9e-08,0.0,0.0,0.0,9e-08
1531946801911184060,4276,1531946801909738126,base_link,0.188129731316,-0.222237282062,0.434190182953,-0.852465060682,1.0,0.0,0.0,0.0,1.0,0.0,0.0,0.0,1.0,0.12968160212,-0.431306451559,0.300674915314,1.21846967915e-07,0.0,0.0,0.0,1.21846967915e-07,0.0,0.0,0.0,1.21846967915e-07,-0.63743225,-0.5295591,16.36729885,9e-08,0.0,0.0,0.0,9e-08,0.0,0.0,0.0,9e-08
1531946802199353398,4277,1531946802193033856,base_link,0.185596151221,-0.176292990958,0.388871703236,-0.885016185396,1.0,0.0,0.0,0.0,1.0,0.0,0.0,0.0,1.0,0.105975456536,-0.339172154665,0.267472982407,1.21846967915e-07,0.0,0.0,0.0,1.21846967915e-07,0.0,0.0,0.0,1.21846967915e-07,-0.81395195,-0.1569064,14.75900825,9e-08,0.0,0.0,0.0,9e-08,0.0,0.0,0.0,9e-08
1531946802746642867,4278,1531946802746356010,base_link,0.0961748465707,-0.0778677541058,0.337042334525,-0.933321743289,1.0,0.0,0.0,0.0,1.0,0.0,0.0,0.0,1.0,0.587707042694,-0.246609792113,0.188591480255,1.21846967915e-07,0.0,0.0,0.0,1.21846967915e-07,0.0,0.0,0.0,1.21846967915e-07,-1.0591182,0.1372931,12.4544455,9e-08,0.0,0.0,0.0,9e-08,0.0,0.0,0.0,9e-08
1531946803142668692,4279,1531946803142313771,base_link,-0.0724283039781,0.0080228310207,0.322844433881,-0.943642541685,1.0,0.0,0.0,0.0,1.0,0.0,0.0,0.0,1.0,1.00488638878,-0.0661256611347,-0.0596505738795,1.21846967915e-07,0.0,0.0,0.0,1.21846967915e-07,0.0,0.0,0.0,1.21846967915e-07,-1.0395049,0.10787315,12.97419795,9e-08,0.0,0.0,0.0,9e-08,0.0,0.0,0.0,9e-08
1531946803514471472,4280,1531946803514202480,base_link,-0.221293840397,0.0534408781078,0.338026257841,-0.913187471311,1.0,0.0,0.0,0.0,1.0,0.0,0.0,0.0,1.0,0.623500287533,0.0377255529165,-0.195472210646,1.21846967915e-07,0.0,0.0,0.0,1.21846967915e-07,0.0,0.0,0.0,1.21846967915e-07,-1.26505785,0.2353596,8.14932615,9e-08,0.0,0.0,0.0,9e-08,0.0,0.0,0.0,9e-08
1531946803846052191,4281,1531946803844567903,base_link,-0.304455776715,0.0849396392511,0.371170153817,-0.873112051586,1.0,0.0,0.0,0.0,1.0,0.0,0.0,0.0,1.0,0.350817471743,-0.100829586387,-0.336923807859,1.21846967915e-07,0.0,0.0,0.0,1.21846967915e-07,0.0,0.0,0.0,1.21846967915e-07,-1.18660465,0.3138128,8.60043205,9e-08,0.0,0.0,0.0,9e-08,0.0,0.0,0.0,9e-08
1531946804258988472,4282,1531946804258596862,base_link,-0.343876426215,0.0928517007222,0.428165447613,-0.830543144356,1.0,0.0,0.0,0.0,1.0,0.0,0.0,0.0,1.0,0.0965017527342,-0.027635704726,-0.308338284492,1.21846967915e-07,0.0,0.0,0.0,1.21846967915e-07,0.0,0.0,0.0,1.21846967915e-07,-1.1179581,0.34323275,7.0019481,9e-08,0.0,0.0,0.0,9e-08,0.0,0.0,0.0,9e-08
1531946804532662612,4283,1531946804532304811,base_link,-0.361247147883,0.0915995731376,0.459798343006,-0.806036909897,1.0,0.0,0.0,0.0,1.0,0.0,0.0,0.0,1.0,0.121860228479,-0.0718294605613,-0.277093648911,1.21846967915e-07,0.0,0.0,0.0,1.21846967915e-07,0.0,0.0,0.0,1.21846967915e-07,-1.1375714,0.4118793,8.11009955,9e-08,0.0,0.0,0.0,9e-08,0.0,0.0,0.0,9e-08
1531946804874028327,4284,1531946804873638222,base_link,-0.371799559728,0.0980237162558,0.505760029654,-0.772245576771,1.0,0.0,0.0,0.0,1.0,0.0,0.0,0.0,1.0,-0.0705973878503,-0.135318815708,-0.322835057974,1.21846967915e-07,0.0,0.0,0.0,1.21846967915e-07,0.0,0.0,0.0,1.21846967915e-07,-1.16699135,0.4707192,7.32556755,9e-08,0.0,0.0,0.0,9e-08,0.0,0.0,0.0,9e-08
1531946805307332960,4285,1531946805306743944,base_link,-0.35954144463,0.109859254442,0.588806821169,-0.715518987275,1.0,0.0,0.0,0.0,1.0,0.0,0.0,0.0,1.0,0.0667564496398,-0.325754314661,-0.463297486305,1.21846967915e-07,0.0,0.0,0.0,1.21846967915e-07,0.0,0.0,0.0,1.21846967915e-07,-1.2356379,0.1176798,11.3561007,9e-08,0.0,0.0,0.0,9e-08,0.0,0.0,0.0,9e-08
1531946805706415019,4286,1531946805704778115,base_link,-0.342226093571,0.150170055717,0.657622851672,-0.654111947761,1.0,0.0,0.0,0.0,1.0,0.0,0.0,0.0,1.0,0.0862372890115,-0.406702458858,-0.281720757484,1.21846967915e-07,0.0,0.0,0.0,1.21846967915e-07,0.0,0.0,0.0,1.21846967915e-07,-1.2356379,-0.2353596,12.356379,9e-08,0.0,0.0,0.0,9e-08,0.0,0.0,0.0,9e-08
1531946806209195817,4287,1531946806208914436,base_link,0.279533459048,-0.186474236445,-0.733573105294,0.590727435967,1.0,0.0,0.0,0.0,1.0,0.0,0.0,0.0,1.0,-0.139226138592,-0.430102258921,-0.322451174259,1.21846967915e-07,0.0,0.0,0.0,1.21846967915e-07,0.0,0.0,0.0,1.21846967915e-07,-0.91201845,0.46091255,15.64160675,9e-08,0.0,0.0,0.0,9e-08,0.0,0.0,0.0,9e-08
1531946806581080876,4288,1531946806579174916,base_link,0.23222135533,-0.222702924042,-0.787504033078,0.525655826218,1.0,0.0,0.0,0.0,1.0,0.0,0.0,0.0,1.0,0.274502635002,-0.38200122118,-0.331868588924,1.21846967915e-07,0.0,0.0,0.0,1.21846967915e-07,0.0,0.0,0.0,1.21846967915e-07,-0.784532,0.30400615,15.73967325,9e-08,0.0,0.0,0.0,9e-08,0.0,0.0,0.0,9e-08
1531946807096052387,4289,1531946807093189364,base_link,0.187656292024,-0.282940629744,-0.831437114974,0.439820463312,1.0,0.0,0.0,0.0,1.0,0.0,0.0,0.0,1.0,-0.0904264003038,-0.395463496447,-0.274464517832,1.21846967915e-07,0.0,0.0,0.0,1.21846967915e-07,0.0,0.0,0.0,1.21846967915e-07,-0.69627215,0.48052585,16.05348605,9e-08,0.0,0.0,0.0,9e-08,0.0,0.0,0.0,9e-08
1531946807490381055,4290,1531946807487086115,base_link,0.14132689697,-0.302681404002,-0.871755087694,0.358404440464,1.0,0.0,0.0,0.0,1.0,0.0,0.0,0.0,1.0,0.341884881258,-0.288119167089,-0.42062792182,1.21846967915e-07,0.0,0.0,0.0,1.21846967915e-07,0.0,0.0,0.0,1.21846967915e-07,-0.77472535,-0.0588399,15.4356671,9e-08,0.0,0.0,0.0,9e-08,0.0,0.0,0.0,9e-08
1531946807811446897,4291,1531946807811173520,base_link,0.119746127668,-0.33210770405,-0.891778793666,0.283012227628,1.0,0.0,0.0,0.0,1.0,0.0,0.0,0.0,1.0,0.104640379548,-0.327913671732,-0.399211734533,1.21846967915e-07,0.0,0.0,0.0,1.21846967915e-07,0.0,0.0,0.0,1.21846967915e-07,-1.20621795,0.2353596,13.95486295,9e-08,0.0,0.0,0.0,9e-08,0.0,0.0,0.0,9e-08
1531946808246667063,4292,1531946808245807584,base_link,0.0818931613091,-0.373355309238,-0.905870383397,0.182477866269,1.0,0.0,0.0,0.0,1.0,0.0,0.0,0.0,1.0,0.329239994287,-0.422653019428,-0.316543400288,1.21846967915e-07,0.0,0.0,0.0,1.21846967915e-07,0.0,0.0,0.0,1.21846967915e-07,-1.06892485,0.3530394,12.62115855,9e-08,0.0,0.0,0.0,9e-08,0.0,0.0,0.0,9e-08
1531946808569795580,4293,1531946808569197089,base_link,0.0421547617082,-0.395205781913,-0.911269008887,0.107815395234,1.0,0.0,0.0,0.0,1.0,0.0,0.0,0.0,1.0,-0.118303284049,-0.314571231604,-0.321618556976,1.21846967915e-07,0.0,0.0,0.0,1.21846967915e-07,0.0,0.0,0.0,1.21846967915e-07,-0.7453054,0.6080123,13.5135637,9e-08,0.0,0.0,0.0,9e-08,0.0,0.0,0.0,9e-08
1531946809039689959,4294,1531946809039230541,base_link,-0.00312041110389,-0.393099018479,-0.919378227682,-0.0143909405384,1.0,0.0,0.0,0.0,1.0,0.0,0.0,0.0,1.0,-0.176447898149,-0.321060240269,-0.429365307093,1.21846967915e-07,0.0,0.0,0.0,1.21846967915e-07,0.0,0.0,0.0,1.21846967915e-07,-0.67665885,0.588399,12.77806495,9e-08,0.0,0.0,0.0,9e-08,0.0,0.0,0.0,9e-08
1531946809500086614,4295,1531946809497664985,base_link,-0.0331317553294,-0.394733667808,-0.906868762566,-0.143793830777,1.0,0.0,0.0,0.0,1.0,0.0,0.0,0.0,1.0,0.105479232967,-0.311234474182,-0.441605210304,1.21846967915e-07,0.0,0.0,0.0,1.21846967915e-07,0.0,0.0,0.0,1.21846967915e-07,-0.79433865,-0.0588399,11.8072066,9e-08,0.0,0.0,0.0,9e-08,0.0,0.0,0.0,9e-08
1531946809951621978,4296,1531946809951090878,base_link,-0.0615817137665,-0.343996700654,-0.899782337859,-0.261277069306,1.0,0.0,0.0,0.0,1.0,0.0,0.0,0.0,1.0,-0.253639340401,-0.310708135366,-0.414138972759,1.21846967915e-07,0.0,0.0,0.0,1.21846967915e-07,0.0,0.0,0.0,1.21846967915e-07,-0.588399,0.20593965,11.99353295,9e-08,0.0,0.0,0.0,9e-08,0.0,0.0,0.0,9e-08
1531946810294381922,4297,1531946810291281539,base_link,-0.0695585873126,-0.28417689985,-0.892831646604,-0.342427719885,1.0,0.0,0.0,0.0,1.0,0.0,0.0,0.0,1.0,-0.554329633713,-0.251764208078,-0.356137305498,1.21846967915e-07,0.0,0.0,0.0,1.21846967915e-07,0.0,0.0,0.0,1.21846967915e-07,-0.42168595,0.32361945,12.1014061,9e-08,0.0,0.0,0.0,9e-08,0.0,0.0,0.0,9e-08
1531946810732008830,4298,1531946810731777552,base_link,-0.0596837884359,-0.180869145131,-0.87925903238,-0.436609381158,1.0,0.0,0.0,0.0,1.0,0.0,0.0,0.0,1.0,-0.244364500046,-0.285362392664,-0.366099148989,1.21846967915e-07,0.0,0.0,0.0,1.21846967915e-07,0.0,0.0,0.0,1.21846967915e-07,-0.3138128,-0.0784532,13.91563635,9e-08,0.0,0.0,0.0,9e-08,0.0,0.0,0.0,9e-08
1531946811167814938,4299,1531946811163587236,base_link,-0.0538262012575,-0.119719032432,-0.863545370159,-0.486887550682,1.0,0.0,0.0,0.0,1.0,0.0,0.0,0.0,1.0,-0.56068789959,-0.0379760041833,-0.0473787747324,1.21846967915e-07,0.0,0.0,0.0,1.21846967915e-07,0.0,0.0,0.0,1.21846967915e-07,-0.57859235,-0.392266,11.2580342,9e-08,0.0,0.0,0.0,9e-08,0.0,0.0,0.0,9e-08
1531946811703908822,4300,1531946811701615222,base_link,-0.00463133045931,0.00728775175837,-0.871272686852,-0.490723287197,1.0,0.0,0.0,0.0,1.0,0.0,0.0,0.0,1.0,-0.418955087662,-0.0695235133171,0.0151021610945,1.21846967915e-07,0.0,0.0,0.0,1.21846967915e-07,0.0,0.0,0.0,1.21846967915e-07,-0.63743225,-0.24516625,10.9442214,9e-08,0.0,0.0,0.0,9e-08,0.0,0.0,0.0,9e-08
1531946812110688902,4301,1531946812107294684,base_link,0.011317936654,0.0469167457951,-0.874791168373,-0.482090380542,1.0,0.0,0.0,0.0,1.0,0.0,0.0,0.0,1.0,-0.186384186149,0.00692002428696,0.0863961353898,1.21846967915e-07,0.0,0.0,0.0,1.21846967915e-07,0.0,0.0,0.0,1.21846967915e-07,-0.5491724,-0.24516625,9.2967042,9e-08,0.0,0.0,0.0,9e-08,0.0,0.0,0.0,9e-08
1531946812486290509,4302,1531946812485795874,base_link,0.0361205008172,0.0792040381566,-0.880663751151,-0.465675194925,1.0,0.0,0.0,0.0,1.0,0.0,0.0,0.0,1.0,-0.131575584412,0.0438176169991,0.0738139599562,1.21846967915e-07,0.0,0.0,0.0,1.21846967915e-07,0.0,0.0,0.0,1.21846967915e-07,-0.4707192,0.08825985,8.5317855,9e-08,0.0,0.0,0.0,9e-08,0.0,0.0,0.0,9e-08
1531946812980102539,4303,1531946812979839086,base_link,0.0710744054667,0.0851692266805,-0.886972489181,-0.448301723341,1.0,0.0,0.0,0.0,1.0,0.0,0.0,0.0,1.0,0.0112915877253,0.136537343264,0.13463062048,1.21846967915e-07,0.0,0.0,0.0,1.21846967915e-07,0.0,0.0,0.0,1.21846967915e-07,-0.4903325,-0.02941995,7.36479415,9e-08,0.0,0.0,0.0,9e-08,0.0,0.0,0.0,9e-08
1531946813527960725,4304,1531946813527668171,base_link,0.0941794808016,0.0558596285649,-0.90370289213,-0.413921502278,1.0,0.0,0.0,0.0,1.0,0.0,0.0,0.0,1.0,-0.0308834519237,0.131168007851,0.14112560451,1.21846967915e-07,0.0,0.0,0.0,1.21846967915e-07,0.0,0.0,0.0,1.21846967915e-07,-0.38245935,-0.1372931,8.07087295,9e-08,0.0,0.0,0.0,9e-08,0.0,0.0,0.0,9e-08
1531946813892374752,4305,1531946813892054696,base_link,0.110935395925,0.0536005556597,-0.910607474401,-0.394479842235,1.0,0.0,0.0,0.0,1.0,0.0,0.0,0.0,1.0,-0.0688588991761,0.101519152522,0.112851947546,1.21846967915e-07,0.0,0.0,0.0,1.21846967915e-07,0.0,0.0,0.0,1.21846967915e-07,-0.46091255,0.02941995,8.14932615,9e-08,0.0,0.0,0.0,9e-08,0.0,0.0,0.0,9e-08
