%time,field.header.seq,field.header.stamp,field.header.frame_id,field.orientation.x,field.orientation.y,field.orientation.z,field.orientation.w,field.orientation_covariance0,field.orientation_covariance1,field.orientation_covariance2,field.orientation_covariance3,field.orientation_covariance4,field.orientation_covariance5,field.orientation_covariance6,field.orientation_covariance7,field.orientation_covariance8,field.angular_velocity.x,field.angular_velocity.y,field.angular_velocity.z,field.angular_velocity_covariance0,field.angular_velocity_covariance1,field.angular_velocity_covariance2,field.angular_velocity_covariance3,field.angular_velocity_covariance4,field.angular_velocity_covariance5,field.angular_velocity_covariance6,field.angular_velocity_covariance7,field.angular_velocity_covariance8,field.linear_acceleration.x,field.linear_acceleration.y,field.linear_acceleration.z,field.linear_acceleration_covariance0,field.linear_acceleration_covariance1,field.linear_acceleration_covariance2,field.linear_acceleration_covariance3,field.linear_acceleration_covariance4,field.linear_acceleration_covariance5,field.linear_acceleration_covariance6,field.linear_acceleration_covariance7,field.linear_acceleration_covariance8
1536689966875094346,3764,1536689966874829652,base_link,0.00160540898642,-0.119825575701,-0.991155827542,-0.0570033297265,1.0,0.0,0.0,0.0,1.0,0.0,0.0,0.0,1.0,0.917328000069,-0.0341166444123,-0.0157110709697,1.21846967915e-07,0.0,0.0,0.0,1.21846967915e-07,0.0,0.0,0.0,1.21846967915e-07,-0.588399,0.2941995,10.0812362,9e-08,0.0,0.0,0.0,9e-08,0.0,0.0,0.0,9e-08
1536689967181152320,3765,1536689967180918088,base_link,-0.00439918348289,-0.242963694515,-0.967987471058,-0.0628454151655,1.0,0.0,0.0,0.0,1.0,0.0,0.0,0.0,1.0,0.886799514294,-0.0201157294214,-0.0925932079554,1.21846967915e-07,0.0,0.0,0.0,1.21846967915e-07,0.0,0.0,0.0,1.21846967915e-07,-0.51975245,0.6276256,9.9831697,9e-08,0.0,0.0,0.0,9e-08,0.0,0.0,0.0,9e-08
1536689967543567897,3766,1536689967543299107,base_link,-0.0107792058166,-0.316173030003,-0.944051053007,-0.0931988902182,1.0,0.0,0.0,0.0,1.0,0.0,0.0,0.0,1.0,0.150465905666,-0.00739883864298,-0.198464855552,1.21846967915e-07,0.0,0.0,0.0,1.21846967915e-07,0.0,0.0,0.0,1.21846967915e-07,-0.2941995,0.59820565,8.6102387,9e-08,0.0,0.0,0.0,9e-08,0.0,0.0,0.0,9e-08
1536689967808239108,3767,1536689967807422594,base_link,-0.00381400537796,-0.341298397769,-0.931473751746,-0.125926593111,1.0,0.0,0.0,0.0,1.0,0.0,0.0,0.0,1.0,0.246778905392,-0.108773194253,-0.296873927116,1.21846967915e-07,0.0,0.0,0.0,1.21846967915e-07,0.0,0.0,0.0,1.21846967915e-07,-0.14709975,0.63743225,7.71783355,9e-08,0.0,0.0,0.0,9e-08,0.0,0.0,0.0,9e-08
1536689968206682350,3768,1536689968206450999,base_link,-0.004501585667,-0.373408100325,-0.907902480585,-0.190418518231,1.0,0.0,0.0,0.0,1.0,0.0,0.0,0.0,1.0,0.214517712593,-0.153315156698,-0.303748190403,1.21846967915e-07,0.0,0.0,0.0,1.21846967915e-07,0.0,0.0,0.0,1.21846967915e-07,-0.0196133,0.4511059,8.7867584,9e-08,0.0,0.0,0.0,9e-08,0.0,0.0,0.0,9e-08
1536689968575763026,3769,1536689968575488092,base_link,-0.0412686446499,-0.382755947452,-0.885290955682,-0.260872971859,1.0,0.0,0.0,0.0,1.0,0.0,0.0,0.0,1.0,0.0219126045704,-0.360439658165,-0.247207060456,1.21846967915e-07,0.0,0.0,0.0,1.21846967915e-07,0.0,0.0,0.0,1.21846967915e-07,0.3334261,0.46091255,13.13110435,9e-08,0.0,0.0,0.0,9e-08,0.0,0.0,0.0,9e-08
1536689968889033662,3770,1536689968888392054,base_link,-0.0805582144429,-0.376798659819,-0.865915719713,-0.318940606378,1.0,0.0,0.0,0.0,1.0,0.0,0.0,0.0,1.0,0.133736923337,-0.271079748869,-0.231864765286,1.21846967915e-07,0.0,0.0,0.0,1.21846967915e-07,0.0,0.0,0.0,1.21846967915e-07,0.5295591,1.01008495,15.6318001,9e-08,0.0,0.0,0.0,9e-08,0.0,0.0,0.0,9e-08
1536689969199315000,3771,1536689969199077121,base_link,-0.107023604314,-0.368864064472,-0.843402169865,-0.375710034372,1.0,0.0,0.0,0.0,1.0,0.0,0.0,0.0,1.0,0.044065207243,-0.367402642965,-0.342873841524,1.21846967915e-07,0.0,0.0,0.0,1.21846967915e-07,0.0,0.0,0.0,1.21846967915e-07,0.77472535,1.18660465,14.1411893,9e-08,0.0,0.0,0.0,9e-08,0.0,0.0,0.0,9e-08
1536689969599924115,3772,1536689969599650973,base_link,-0.155473950874,-0.358253771736,-0.796691978341,-0.461263457563,1.0,0.0,0.0,0.0,1.0,0.0,0.0,0.0,1.0,0.0012613106519,-0.383981227875,-0.326291978359,1.21846967915e-07,0.0,0.0,0.0,1.21846967915e-07,0.0,0.0,0.0,1.21846967915e-07,1.18660465,1.0787315,14.9257213,9e-08,0.0,0.0,0.0,9e-08,0.0,0.0,0.0,9e-08
1536689970012529332,3773,1536689970012324316,base_link,-0.207914533901,-0.337077332095,-0.744491495285,-0.537478215585,1.0,0.0,0.0,0.0,1.0,0.0,0.0,0.0,1.0,0.0724061876535,-0.375162571669,-0.238881260157,1.21846967915e-07,0.0,0.0,0.0,1.21846967915e-07,0.0,0.0,0.0,1.21846967915e-07,1.32389775,0.588399,17.5931301,9e-08,0.0,0.0,0.0,9e-08,0.0,0.0,0.0,9e-08
1536689970400882258,3774,1536689970400286856,base_link,-0.274348185101,-0.29324555137,-0.685073167723,-0.607795092774,1.0,0.0,0.0,0.0,1.0,0.0,0.0,0.0,1.0,0.0975337699056,-0.373429059982,-0.25199174881,1.21846967915e-07,0.0,0.0,0.0,1.21846967915e-07,0.0,0.0,0.0,1.21846967915e-07,1.5886773,0.9414384,20.7312581,9e-08,0.0,0.0,0.0,9e-08,0.0,0.0,0.0,9e-08
1536689970850250793,3775,1536689970850040625,base_link,-0.306732337604,-0.232476577642,-0.626966408404,-0.677335246868,1.0,0.0,0.0,0.0,1.0,0.0,0.0,0.0,1.0,-0.164530277252,-0.386830717325,-0.25598180294,1.21846967915e-07,0.0,0.0,0.0,1.21846967915e-07,0.0,0.0,0.0,1.21846967915e-07,0.79433865,1.2748645,16.5732385,9e-08,0.0,0.0,0.0,9e-08,0.0,0.0,0.0,9e-08
1536689971258726370,3776,1536689971258443884,base_link,-0.311526934936,-0.19279694725,-0.564259606118,-0.73985904255,1.0,0.0,0.0,0.0,1.0,0.0,0.0,0.0,1.0,-0.131347939372,-0.235657945275,-0.375682383776,1.21846967915e-07,0.0,0.0,0.0,1.21846967915e-07,0.0,0.0,0.0,1.21846967915e-07,0.2353596,0.9022118,15.40624715,9e-08,0.0,0.0,0.0,9e-08,0.0,0.0,0.0,9e-08
1536689971707692615,3777,1536689971707207193,base_link,-0.34821883599,-0.178592045193,-0.477532421326,-0.786645606508,1.0,0.0,0.0,0.0,1.0,0.0,0.0,0.0,1.0,0.0614884868264,-0.342304706573,-0.272226661444,1.21846967915e-07,0.0,0.0,0.0,1.21846967915e-07,0.0,0.0,0.0,1.21846967915e-07,-0.10787315,0.5295591,12.77806495,9e-08,0.0,0.0,0.0,9e-08,0.0,0.0,0.0,9e-08
1536689972101285508,3778,1536689972101008719,base_link,-0.358634487371,-0.174012771514,-0.423877891173,-0.813282480564,1.0,0.0,0.0,0.0,1.0,0.0,0.0,0.0,1.0,0.0579175800085,-0.230260506272,-0.336175262928,1.21846967915e-07,0.0,0.0,0.0,1.21846967915e-07,0.0,0.0,0.0,1.21846967915e-07,-0.2353596,1.01008495,8.93385815,9e-08,0.0,0.0,0.0,9e-08,0.0,0.0,0.0,9e-08
1536689972444798774,3779,1536689972444236843,base_link,-0.36529757167,-0.150657777448,-0.354239746809,-0.847569536974,1.0,0.0,0.0,0.0,1.0,0.0,0.0,0.0,1.0,-0.0487153455615,-0.26811593771,-0.328016787767,1.21846967915e-07,0.0,0.0,0.0,1.21846967915e-07,0.0,0.0,0.0,1.21846967915e-07,-0.48052585,0.3726527,12.5132854,9e-08,0.0,0.0,0.0,9e-08,0.0,0.0,0.0,9e-08
1536689972760980663,3780,1536689972760030074,base_link,-0.370605920914,-0.136048312728,-0.306774544629,-0.86604358248,1.0,0.0,0.0,0.0,1.0,0.0,0.0,0.0,1.0,-0.0754097551107,-0.287172883749,-0.247615337372,1.21846967915e-07,0.0,0.0,0.0,1.21846967915e-07,0.0,0.0,0.0,1.21846967915e-07,-0.4707192,0.8629852,12.83690485,9e-08,0.0,0.0,0.0,9e-08,0.0,0.0,0.0,9e-08
1536689973174883080,3781,1536689973174596851,base_link,-0.383290350962,-0.122545871582,-0.231720930626,-0.885650284552,1.0,0.0,0.0,0.0,1.0,0.0,0.0,0.0,1.0,-0.00610572658479,-0.306749254465,-0.367841005325,1.21846967915e-07,0.0,0.0,0.0,1.21846967915e-07,0.0,0.0,0.0,1.21846967915e-07,-0.89240515,1.08853815,10.2577559,9e-08,0.0,0.0,0.0,9e-08,0.0,0.0,0.0,9e-08
1536689973508578660,3782,1536689973508215441,base_link,-0.386119567327,-0.114296311306,-0.157685845355,-0.901655814113,1.0,0.0,0.0,0.0,1.0,0.0,0.0,0.0,1.0,0.138543754816,-0.209013611078,-0.407930165529,1.21846967915e-07,0.0,0.0,0.0,1.21846967915e-07,0.0,0.0,0.0,1.21846967915e-07,-0.87279185,0.6472389,10.87557485,9e-08,0.0,0.0,0.0,9e-08,0.0,0.0,0.0,9e-08
1536689973979156173,3783,1536689973977810303,base_link,-0.39613684695,-0.106844753304,-0.0584175016542,-0.910080871505,1.0,0.0,0.0,0.0,1.0,0.0,0.0,0.0,1.0,0.0684413909912,-0.255943089724,-0.30439978838,1.21846967915e-07,0.0,0.0,0.0,1.21846967915e-07,0.0,0.0,0.0,1.21846967915e-07,-0.7649187,0.30400615,11.1991943,9e-08,0.0,0.0,0.0,9e-08,0.0,0.0,0.0,9e-08
1536689974413000928,3784,1536689974412756201,base_link,-0.391821895166,-0.0686921119978,0.0256606768512,-0.917114238185,1.0,0.0,0.0,0.0,1.0,0.0,0.0,0.0,1.0,-0.0967427268624,-0.271486490965,-0.34152585268,1.21846967915e-07,0.0,0.0,0.0,1.21846967915e-07,0.0,0.0,0.0,1.21846967915e-07,-0.4511059,1.22583125,12.6898051,9e-08,0.0,0.0,0.0,9e-08,0.0,0.0,0.0,9e-08
1536689974782623440,3785,1536689974781808366,base_link,-0.38033878082,-0.0278640855231,0.114381399482,-0.917323770539,1.0,0.0,0.0,0.0,1.0,0.0,0.0,0.0,1.0,0.00770064722747,-0.505103349686,-0.365791738033,1.21846967915e-07,0.0,0.0,0.0,1.21846967915e-07,0.0,0.0,0.0,1.21846967915e-07,-0.61781895,0.588399,15.73967325,9e-08,0.0,0.0,0.0,9e-08,0.0,0.0,0.0,9e-08
1536689975148807615,3786,1536689975148469195,base_link,-0.366372285589,0.0240301994591,0.185336054127,-0.911506689447,1.0,0.0,0.0,0.0,1.0,0.0,0.0,0.0,1.0,-0.115614816546,-0.318475306034,-0.220071777701,1.21846967915e-07,0.0,0.0,0.0,1.21846967915e-07,0.0,0.0,0.0,1.21846967915e-07,-0.12748645,0.57859235,19.0837409,9e-08,0.0,0.0,0.0,9e-08,0.0,0.0,0.0,9e-08
1536689975474527040,3787,1536689975474154638,base_link,-0.346691820994,0.046254236005,0.23457780687,-0.906994255457,1.0,0.0,0.0,0.0,1.0,0.0,0.0,0.0,1.0,0.0676354542375,-0.30637255311,-0.340271651745,1.21846967915e-07,0.0,0.0,0.0,1.21846967915e-07,0.0,0.0,0.0,1.21846967915e-07,-0.2549729,0.73549875,12.944778,9e-08,0.0,0.0,0.0,9e-08,0.0,0.0,0.0,9e-08
1536689975954537070,3788,1536689975954054080,base_link,-0.347364437064,0.0951280558504,0.329426508714,-0.872792516129,1.0,0.0,0.0,0.0,1.0,0.0,0.0,0.0,1.0,0.162517786026,-0.325951814651,-0.32016980648,1.21846967915e-07,0.0,0.0,0.0,1.21846967915e-07,0.0,0.0,0.0,1.21846967915e-07,-0.24516625,0.3530394,15.26895405,9e-08,0.0,0.0,0.0,9e-08,0.0,0.0,0.0,9e-08
1536689976332118617,3789,1536689976331827524,base_link,-0.336187868077,0.129707854452,0.381866778983,-0.851076584662,1.0,0.0,0.0,0.0,1.0,0.0,0.0,0.0,1.0,-0.0128215765581,-0.232454404235,-0.23958234489,1.21846967915e-07,0.0,0.0,0.0,1.21846967915e-07,0.0,0.0,0.0,1.21846967915e-07,-0.0392266,1.26505785,14.09215605,9e-08,0.0,0.0,0.0,9e-08,0.0,0.0,0.0,9e-08
1536689976783115412,3790,1536689976781797252,base_link,-0.285165760363,0.130505525408,0.460886351256,-0.830200318104,1.0,0.0,0.0,0.0,1.0,0.0,0.0,0.0,1.0,-0.324329823256,-0.245848238468,-0.343666225672,1.21846967915e-07,0.0,0.0,0.0,1.21846967915e-07,0.0,0.0,0.0,1.21846967915e-07,-0.16671305,0.63743225,15.8279331,9e-08,0.0,0.0,0.0,9e-08,0.0,0.0,0.0,9e-08
1536689977122729749,3791,1536689977122488798,base_link,-0.21613577509,0.130102613062,0.513813226728,-0.819972319557,1.0,0.0,0.0,0.0,1.0,0.0,0.0,0.0,1.0,-0.363528102636,-0.287414371967,-0.135095819831,1.21846967915e-07,0.0,0.0,0.0,1.21846967915e-07,0.0,0.0,0.0,1.21846967915e-07,-0.59820565,1.57567034831e-15,12.8663248,9e-08,0.0,0.0,0.0,9e-08,0.0,0.0,0.0,9e-08
1536689977621269113,3792,1536689977620946501,base_link,-0.0941572850493,0.124172405422,0.551292008848,-0.819629636107,1.0,0.0,0.0,0.0,1.0,0.0,0.0,0.0,1.0,-0.471167385578,-0.170049071312,-0.116559095681,1.21846967915e-07,0.0,0.0,0.0,1.21846967915e-07,0.0,0.0,0.0,1.21846967915e-07,-0.67665885,0.65704555,14.0431228,9e-08,0.0,0.0,0.0,9e-08,0.0,0.0,0.0,9e-08
1536689978053326541,3793,1536689978052236245,base_link,-0.0310373867655,0.105577756624,0.582768265065,-0.805152884341,1.0,0.0,0.0,0.0,1.0,0.0,0.0,0.0,1.0,-0.11100025475,-0.0864522233605,-0.146898314357,1.21846967915e-07,0.0,0.0,0.0,1.21846967915e-07,0.0,0.0,0.0,1.21846967915e-07,-0.784532,0.40207265,12.05237285,9e-08,0.0,0.0,0.0,9e-08,0.0,0.0,0.0,9e-08
1536689978477067764,3794,1536689978475938877,base_link,-0.0230900686684,0.102816110787,0.60128934994,-0.792052279677,1.0,0.0,0.0,0.0,1.0,0.0,0.0,0.0,1.0,0.0726326406002,-0.0178186669946,-0.067276969552,1.21846967915e-07,0.0,0.0,0.0,1.21846967915e-07,0.0,0.0,0.0,1.21846967915e-07,-0.89240515,0.00980665,8.9828914,9e-08,0.0,0.0,0.0,9e-08,0.0,0.0,0.0,9e-08
1536689978909800495,3795,1536689978909354111,base_link,-0.0641885305039,0.111093896103,0.605032638511,-0.785794811091,1.0,0.0,0.0,0.0,1.0,0.0,0.0,0.0,1.0,0.255170881748,0.103612080216,-0.059626635164,1.21846967915e-07,0.0,0.0,0.0,1.21846967915e-07,0.0,0.0,0.0,1.21846967915e-07,-0.97085835,0.28439285,6.7665885,9e-08,0.0,0.0,0.0,9e-08,0.0,0.0,0.0,9e-08
1536689979242923872,3796,1536689979242416882,base_link,-0.113677977401,0.114877053507,0.604564759814,-0.779988481468,1.0,0.0,0.0,0.0,1.0,0.0,0.0,0.0,1.0,0.272079944611,0.19545263052,-0.0829623267055,1.21846967915e-07,0.0,0.0,0.0,1.21846967915e-07,0.0,0.0,0.0,1.21846967915e-07,-1.04931155,0.46091255,6.4135491,9e-08,0.0,0.0,0.0,9e-08,0.0,0.0,0.0,9e-08
1536689979599048449,3797,1536689979598633360,base_link,-0.181948786058,0.131912302696,0.612091002675,-0.758180973181,1.0,0.0,0.0,0.0,1.0,0.0,0.0,0.0,1.0,0.381528705359,0.111043177545,-0.186495557427,1.21846967915e-07,0.0,0.0,0.0,1.21846967915e-07,0.0,0.0,0.0,1.21846967915e-07,-0.99047165,0.59820565,6.2370294,9e-08,0.0,0.0,0.0,9e-08,0.0,0.0,0.0,9e-08
1536689979950412210,3798,1536689979950138844,base_link,-0.242536907453,0.152369178457,0.631593760045,-0.720450417622,1.0,0.0,0.0,0.0,1.0,0.0,0.0,0.0,1.0,0.308155447245,0.0064602047205,-0.264424413443,1.21846967915e-07,0.0,0.0,0.0,1.21846967915e-07,0.0,0.0,0.0,1.21846967915e-07,-0.89240515,0.588399,6.95291485,9e-08,0.0,0.0,0.0,9e-08,0.0,0.0,0.0,9e-08
1536689980390579548,3799,1536689980387132219,base_link,-0.27673934701,0.17895394918,0.668362365522,-0.666845234101,1.0,0.0,0.0,0.0,1.0,0.0,0.0,0.0,1.0,0.174022257328,-0.170956283808,-0.273955374956,1.21846967915e-07,0.0,0.0,0.0,1.21846967915e-07,0.0,0.0,0.0,1.21846967915e-07,-0.63743225,0.67665885,9.56148375,9e-08,0.0,0.0,0.0,9e-08,0.0,0.0,0.0,9e-08
1536689980748151816,3800,1536689980747803284,base_link,0.279690805206,-0.194659944438,-0.70270327845,0.624570782193,1.0,0.0,0.0,0.0,1.0,0.0,0.0,0.0,1.0,0.0628750473261,-0.183923989534,-0.330975443125,1.21846967915e-07,0.0,0.0,0.0,1.21846967915e-07,0.0,0.0,0.0,1.21846967915e-07,-0.48052585,0.81395195,11.75817335,9e-08,0.0,0.0,0.0,9e-08,0.0,0.0,0.0,9e-08
1536689981129796733,3801,1536689981129559014,base_link,0.283194703575,-0.224373859409,-0.747517183987,0.557382445656,1.0,0.0,0.0,0.0,1.0,0.0,0.0,0.0,1.0,-0.00635724887252,-0.221187070012,-0.343751937151,1.21846967915e-07,0.0,0.0,0.0,1.21846967915e-07,0.0,0.0,0.0,1.21846967915e-07,-0.1765197,0.63743225,11.8268199,9e-08,0.0,0.0,0.0,9e-08,0.0,0.0,0.0,9e-08
1536689981537359416,3802,1536689981536008297,base_link,0.276386929092,-0.256218478334,-0.783018138973,0.494818098726,1.0,0.0,0.0,0.0,1.0,0.0,0.0,0.0,1.0,0.141949310899,-0.382836669683,-0.185577943921,1.21846967915e-07,0.0,0.0,0.0,1.21846967915e-07,0.0,0.0,0.0,1.21846967915e-07,0.12748645,0.3138128,13.64105015,9e-08,0.0,0.0,0.0,9e-08,0.0,0.0,0.0,9e-08
1536689981980085635,3803,1536689981979520152,base_link,0.224577252319,-0.291991016845,-0.819576655549,0.438862631699,1.0,0.0,0.0,0.0,1.0,0.0,0.0,0.0,1.0,-0.0241329539567,-0.361588090658,-0.267149537802,1.21846967915e-07,0.0,0.0,0.0,1.21846967915e-07,0.0,0.0,0.0,1.21846967915e-07,0.6668522,1.42196425,15.5925735,9e-08,0.0,0.0,0.0,9e-08,0.0,0.0,0.0,9e-08
1536689982343224130,3804,1536689982342831312,base_link,0.188309770595,-0.312001470694,-0.853585107339,0.372272718733,1.0,0.0,0.0,0.0,1.0,0.0,0.0,0.0,1.0,-0.0776202380657,-0.440877079964,-0.358067631721,1.21846967915e-07,0.0,0.0,0.0,1.21846967915e-07,0.0,0.0,0.0,1.21846967915e-07,0.91201845,1.42196425,15.5141203,9e-08,0.0,0.0,0.0,9e-08,0.0,0.0,0.0,9e-08
1536689982716111738,3805,1536689982715780230,base_link,0.143052584219,-0.339268207221,-0.882370059953,0.293012148238,1.0,0.0,0.0,0.0,1.0,0.0,0.0,0.0,1.0,0.0550525970757,-0.43768838048,-0.254485607147,1.21846967915e-07,0.0,0.0,0.0,1.21846967915e-07,0.0,0.0,0.0,1.21846967915e-07,1.0983448,0.53936575,16.05348605,9e-08,0.0,0.0,0.0,9e-08,0.0,0.0,0.0,9e-08
1536689982983085199,3806,1536689982979971650,base_link,0.105263601499,-0.364312885252,-0.891712255371,0.247072761469,1.0,0.0,0.0,0.0,1.0,0.0,0.0,0.0,1.0,0.0315027497709,-0.523112356663,-0.169191747904,1.21846967915e-07,0.0,0.0,0.0,1.21846967915e-07,0.0,0.0,0.0,1.21846967915e-07,1.5102241,1.04931155,19.25045395,9e-08,0.0,0.0,0.0,9e-08,0.0,0.0,0.0,9e-08
1536689983406812470,3807,1536689983406494850,base_link,0.0249813785186,-0.382152493953,-0.910480388052,0.156079675378,1.0,0.0,0.0,0.0,1.0,0.0,0.0,0.0,1.0,-0.0432373210788,-0.522998392582,-0.333832621574,1.21846967915e-07,0.0,0.0,0.0,1.21846967915e-07,0.0,0.0,0.0,1.21846967915e-07,1.7063571,1.01008495,18.54437515,9e-08,0.0,0.0,0.0,9e-08,0.0,0.0,0.0,9e-08
1536689983856272618,3808,1536689983856038386,base_link,-0.0210755724867,-0.404572153733,-0.911621730413,0.0694479179509,1.0,0.0,0.0,0.0,1.0,0.0,0.0,0.0,1.0,0.0424419976771,-0.34283298254,-0.167520314455,1.21846967915e-07,0.0,0.0,0.0,1.21846967915e-07,0.0,0.0,0.0,1.21846967915e-07,0.8433719,0.6864655,13.18994425,9e-08,0.0,0.0,0.0,9e-08,0.0,0.0,0.0,9e-08
1536689984247254439,3809,1536689984247025264,base_link,-0.0572257703054,-0.408721418152,-0.910860852082,0.00212642902349,1.0,0.0,0.0,0.0,1.0,0.0,0.0,0.0,1.0,-0.0904938951135,-0.220556512475,-0.261717349291,1.21846967915e-07,0.0,0.0,0.0,1.21846967915e-07,0.0,0.0,0.0,1.21846967915e-07,0.7649187,1.06892485,13.2389775,9e-08,0.0,0.0,0.0,9e-08,0.0,0.0,0.0,9e-08
1536689984699852039,3810,1536689984699197343,base_link,-0.0977046900763,-0.399054442648,-0.907870256244,-0.0835520386769,1.0,0.0,0.0,0.0,1.0,0.0,0.0,0.0,1.0,-0.0947980210185,-0.346802532673,-0.234780937433,1.21846967915e-07,0.0,0.0,0.0,1.21846967915e-07,0.0,0.0,0.0,1.21846967915e-07,0.9610517,0.8041453,17.30873725,9e-08,0.0,0.0,0.0,9e-08,0.0,0.0,0.0,9e-08
1536689985104697253,3811,1536689985104447151,base_link,-0.11507210826,-0.393983926566,-0.89697442819,-0.164231393716,1.0,0.0,0.0,0.0,1.0,0.0,0.0,0.0,1.0,-0.0365055128932,-0.0700522735715,-0.438030213118,1.21846967915e-07,0.0,0.0,0.0,1.21846967915e-07,0.0,0.0,0.0,1.21846967915e-07,0.18632635,1.24544455,10.9638347,9e-08,0.0,0.0,0.0,9e-08,0.0,0.0,0.0,9e-08
1536689985563136974,3812,1536689985562823129,base_link,-0.14018566847,-0.404594999233,-0.86238603274,-0.270076277164,1.0,0.0,0.0,0.0,1.0,0.0,0.0,0.0,1.0,0.154717773199,-0.379406541586,-0.247827604413,1.21846967915e-07,0.0,0.0,0.0,1.21846967915e-07,0.0,0.0,0.0,1.21846967915e-07,-0.20593965,0.2745862,12.58193195,9e-08,0.0,0.0,0.0,9e-08,0.0,0.0,0.0,9e-08
1536689985920444164,3813,1536689985919979445,base_link,-0.169215372945,-0.376535400152,-0.847166471492,-0.334508923006,1.0,0.0,0.0,0.0,1.0,0.0,0.0,0.0,1.0,-0.0571600273252,-0.274442523718,-0.267937839031,1.21846967915e-07,0.0,0.0,0.0,1.21846967915e-07,0.0,0.0,0.0,1.21846967915e-07,0.0,1.0787315,13.2193642,9e-08,0.0,0.0,0.0,9e-08,0.0,0.0,0.0,9e-08
1536689986342551751,3814,1536689986342280145,base_link,-0.1745261112,-0.368460548905,-0.815894956844,-0.409991316745,1.0,0.0,0.0,0.0,1.0,0.0,0.0,0.0,1.0,-0.0664874985814,-0.178980603814,-0.374790936708,1.21846967915e-07,0.0,0.0,0.0,1.21846967915e-07,0.0,0.0,0.0,1.21846967915e-07,-0.40207265,0.79433865,10.52253545,9e-08,0.0,0.0,0.0,9e-08,0.0,0.0,0.0,9e-08
1536689986720125906,3815,1536689986719779647,base_link,-0.198984614864,-0.35739413117,-0.77551477111,-0.480886054948,1.0,0.0,0.0,0.0,1.0,0.0,0.0,0.0,1.0,-0.0248589329422,-0.304956912994,-0.28167372942,1.21846967915e-07,0.0,0.0,0.0,1.21846967915e-07,0.0,0.0,0.0,1.21846967915e-07,-0.38245935,0.36284605,14.66094175,9e-08,0.0,0.0,0.0,9e-08,0.0,0.0,0.0,9e-08
1536689987005787127,3816,1536689987005482754,base_link,-0.207478134951,-0.339676249121,-0.752293743329,-0.525001898138,1.0,0.0,0.0,0.0,1.0,0.0,0.0,0.0,1.0,-0.0191793162376,-0.230309456587,-0.270350188017,1.21846967915e-07,0.0,0.0,0.0,1.21846967915e-07,0.0,0.0,0.0,1.21846967915e-07,-0.50013915,0.5099458,10.48330885,9e-08,0.0,0.0,0.0,9e-08,0.0,0.0,0.0,9e-08
1536689987492188857,3817,1536689987490493112,base_link,-0.25592158866,-0.330212056467,-0.6908952145,-0.590023678171,1.0,0.0,0.0,0.0,1.0,0.0,0.0,0.0,1.0,-0.157815381885,-0.205540329218,-0.261196941137,1.21846967915e-07,0.0,0.0,0.0,1.21846967915e-07,0.0,0.0,0.0,1.21846967915e-07,-0.196133,0.9218251,12.17005265,9e-08,0.0,0.0,0.0,9e-08,0.0,0.0,0.0,9e-08
1536689987854659217,3818,1536689987854273631,base_link,-0.238348708384,-0.299575823566,-0.654857584898,-0.651617804121,1.0,0.0,0.0,0.0,1.0,0.0,0.0,0.0,1.0,-0.141357839108,-0.13315577805,-0.331085383892,1.21846967915e-07,0.0,0.0,0.0,1.21846967915e-07,0.0,0.0,0.0,1.21846967915e-07,-0.44129925,0.9218251,11.8464332,9e-08,0.0,0.0,0.0,9e-08,0.0,0.0,0.0,9e-08
1536689988313402094,3819,1536689988313027036,base_link,-0.233483077054,-0.277555319168,-0.597166566763,-0.715430492131,1.0,0.0,0.0,0.0,1.0,0.0,0.0,0.0,1.0,-0.0522843562067,-0.185908198357,-0.35208761692,1.21846967915e-07,0.0,0.0,0.0,1.21846967915e-07,0.0,0.0,0.0,1.21846967915e-07,-0.6472389,0.9218251,12.03275955,9e-08,0.0,0.0,0.0,9e-08,0.0,0.0,0.0,9e-08
1536689988748714731,3820,1536689988748188254,base_link,-0.250393374779,-0.233297751653,-0.527773361793,-0.777387030714,1.0,0.0,0.0,0.0,1.0,0.0,0.0,0.0,1.0,-0.10891725868,-0.452048838139,-0.295309662819,1.21846967915e-07,0.0,0.0,0.0,1.21846967915e-07,0.0,0.0,0.0,1.21846967915e-07,-0.55897905,0.57859235,15.99464615,9e-08,0.0,0.0,0.0,9e-08,0.0,0.0,0.0,9e-08
1536689989044198310,3821,1536689989043515455,base_link,-0.264611935591,-0.200251101718,-0.481803278155,-0.811015179243,1.0,0.0,0.0,0.0,1.0,0.0,0.0,0.0,1.0,0.00600671861321,-0.413644522429,-0.307854920626,1.21846967915e-07,0.0,0.0,0.0,1.21846967915e-07,0.0,0.0,0.0,1.21846967915e-07,-0.4118793,0.57859235,16.3182656,9e-08,0.0,0.0,0.0,9e-08,0.0,0.0,0.0,9e-08
1536689989548065605,3822,1536689989547647668,base_link,-0.288193392536,-0.139296184971,-0.399273606418,-0.859140109976,1.0,0.0,0.0,0.0,1.0,0.0,0.0,0.0,1.0,-0.0553373284638,-0.199999973178,-0.280265212059,1.21846967915e-07,0.0,0.0,0.0,1.21846967915e-07,0.0,0.0,0.0,1.21846967915e-07,-0.50013915,0.79433865,14.7492016,9e-08,0.0,0.0,0.0,9e-08,0.0,0.0,0.0,9e-08
1536689989840565166,3823,1536689989839844649,base_link,-0.289259384876,-0.122656595483,-0.355078023446,-0.880456679861,1.0,0.0,0.0,0.0,1.0,0.0,0.0,0.0,1.0,-0.0514875650406,-0.163941442966,-0.267318606377,1.21846967915e-07,0.0,0.0,0.0,1.21846967915e-07,0.0,0.0,0.0,1.21846967915e-07,-0.59820565,0.4707192,12.8859381,9e-08,0.0,0.0,0.0,9e-08,0.0,0.0,0.0,9e-08
1536689990244260727,3824,1536689990243762922,base_link,-0.288083203468,-0.123614569291,-0.308637769703,-0.898036877445,1.0,0.0,0.0,0.0,1.0,0.0,0.0,0.0,1.0,-0.082171112299,-0.115447111428,-0.266739189625,1.21846967915e-07,0.0,0.0,0.0,1.21846967915e-07,0.0,0.0,0.0,1.21846967915e-07,-0.65704555,0.79433865,9.09076455,9e-08,0.0,0.0,0.0,9e-08,0.0,0.0,0.0,9e-08
1536689990543882618,3825,1536689990543405612,base_link,-0.292000497923,-0.103446814399,-0.258629111344,-0.91495652824,1.0,0.0,0.0,0.0,1.0,0.0,0.0,0.0,1.0,-0.0159073248506,-0.295457541943,-0.246580034494,1.21846967915e-07,0.0,0.0,0.0,1.21846967915e-07,0.0,0.0,0.0,1.21846967915e-07,-0.79433865,0.5295591,12.4152189,9e-08,0.0,0.0,0.0,9e-08,0.0,0.0,0.0,9e-08
1536689990899136476,3826,1536689990898895908,base_link,-0.299262206978,-0.0713798355688,-0.20583334482,-0.928966998719,1.0,0.0,0.0,0.0,1.0,0.0,0.0,0.0,1.0,0.0177372582257,-0.218618646264,-0.278581261635,1.21846967915e-07,0.0,0.0,0.0,1.21846967915e-07,0.0,0.0,0.0,1.21846967915e-07,-0.61781895,1.14737805,12.1210194,9e-08,0.0,0.0,0.0,9e-08,0.0,0.0,0.0,9e-08
1536689991174837072,3827,1536689991174354849,base_link,-0.29832935274,-0.0686633911187,-0.159533267314,-0.938527608882,1.0,0.0,0.0,0.0,1.0,0.0,0.0,0.0,1.0,0.0590914785862,-0.168918401003,-0.38852456212,1.21846967915e-07,0.0,0.0,0.0,1.21846967915e-07,0.0,0.0,0.0,1.21846967915e-07,-0.4903325,0.95124505,11.9052731,9e-08,0.0,0.0,0.0,9e-08,0.0,0.0,0.0,9e-08
1536689991606425653,3828,1536689991606064546,base_link,-0.31743309989,-0.0628863862978,-0.0740141644091,-0.94329392714,1.0,0.0,0.0,0.0,1.0,0.0,0.0,0.0,1.0,-0.00930858962238,-0.27236661315,-0.28048017621,1.21846967915e-07,0.0,0.0,0.0,1.21846967915e-07,0.0,0.0,0.0,1.21846967915e-07,-0.65704555,0.6668522,10.99325465,9e-08,0.0,0.0,0.0,9e-08,0.0,0.0,0.0,9e-08
1536689991941475967,3829,1536689991941161770,base_link,-0.320895243061,-0.0461984970271,-0.0299965377441,-0.945511580879,1.0,0.0,0.0,0.0,1.0,0.0,0.0,0.0,1.0,0.023840656504,-0.110880233347,-0.239425450563,1.21846967915e-07,0.0,0.0,0.0,1.21846967915e-07,0.0,0.0,0.0,1.21846967915e-07,-0.48052585,1.01008495,9.5320638,9e-08,0.0,0.0,0.0,9e-08,0.0,0.0,0.0,9e-08
1536689992348862400,3830,1536689992348499469,base_link,-0.313757806904,-0.0373284413159,0.0300895759177,-0.9482917502,1.0,0.0,0.0,0.0,1.0,0.0,0.0,0.0,1.0,-0.0505295135081,-0.240050271153,-0.264781057835,1.21846967915e-07,0.0,0.0,0.0,1.21846967915e-07,0.0,0.0,0.0,1.21846967915e-07,-0.5295591,0.63743225,9.1986377,9e-08,0.0,0.0,0.0,9e-08,0.0,0.0,0.0,9e-08
1536689992752167415,3831,1536689992751840739,base_link,-0.323058293963,-0.00512672441548,0.0968947681009,-0.941391767179,1.0,0.0,0.0,0.0,1.0,0.0,0.0,0.0,1.0,0.278402835131,-0.23980717361,-0.218392029405,1.21846967915e-07,0.0,0.0,0.0,1.21846967915e-07,0.0,0.0,0.0,1.21846967915e-07,-0.12748645,0.4903325,15.1414676,9e-08,0.0,0.0,0.0,9e-08,0.0,0.0,0.0,9e-08
1536689993035395638,3832,1536689993034847786,base_link,-0.337205345472,0.0202715002768,0.131057329018,-0.932043774601,1.0,0.0,0.0,0.0,1.0,0.0,0.0,0.0,1.0,0.00170317105949,-0.211005687714,-0.192419171333,1.21846967915e-07,0.0,0.0,0.0,1.21846967915e-07,0.0,0.0,0.0,1.21846967915e-07,-0.0392266,1.372931,15.0434011,9e-08,0.0,0.0,0.0,9e-08,0.0,0.0,0.0,9e-08
1536689993380213048,3833,1536689993379859237,base_link,-0.339606816126,0.027716110917,0.193535692474,-0.920023349364,1.0,0.0,0.0,0.0,1.0,0.0,0.0,0.0,1.0,0.066227555275,-0.190507888794,-0.382445991039,1.21846967915e-07,0.0,0.0,0.0,1.21846967915e-07,0.0,0.0,0.0,1.21846967915e-07,-0.30400615,0.6864655,10.26756255,9e-08,0.0,0.0,0.0,9e-08,0.0,0.0,0.0,9e-08
1536689993845072340,3834,1536689993844574342,base_link,-0.335042298075,0.0660020043987,0.288565163548,-0.894494572539,1.0,0.0,0.0,0.0,1.0,0.0,0.0,0.0,1.0,0.0379389300942,-0.390985280275,-0.276448428631,1.21846967915e-07,0.0,0.0,0.0,1.21846967915e-07,0.0,0.0,0.0,1.21846967915e-07,0.0,0.48052585,14.6119085,9e-08,0.0,0.0,0.0,9e-08,0.0,0.0,0.0,9e-08
1536689994248649217,3835,1536689994248414282,base_link,-0.347598214682,0.11750792177,0.35211349995,-0.86103626673,1.0,0.0,0.0,0.0,1.0,0.0,0.0,0.0,1.0,0.0631746053696,-0.343884021044,-0.247401550412,1.21846967915e-07,0.0,0.0,0.0,1.21846967915e-07,0.0,0.0,0.0,1.21846967915e-07,-0.0196133,0.6668522,12.75845165,9e-08,0.0,0.0,0.0,9e-08,0.0,0.0,0.0,9e-08
1536689994710719684,3836,1536689994709301304,base_link,-0.329023261107,0.145761427689,0.413497373764,-0.836371461576,1.0,0.0,0.0,0.0,1.0,0.0,0.0,0.0,1.0,-0.128215461969,-0.293697923422,-0.25249427557,1.21846967915e-07,0.0,0.0,0.0,1.21846967915e-07,0.0,0.0,0.0,1.21846967915e-07,0.18632635,1.01008495,11.52281375,9e-08,0.0,0.0,0.0,9e-08,0.0,0.0,0.0,9e-08
1536689995041997785,3837,1536689995041335985,base_link,-0.31979543597,0.156690987729,0.463600123715,-0.811328379135,1.0,0.0,0.0,0.0,1.0,0.0,0.0,0.0,1.0,0.0479469522834,-0.237764075398,-0.362478554249,1.21846967915e-07,0.0,0.0,0.0,1.21846967915e-07,0.0,0.0,0.0,1.21846967915e-07,0.2745862,1.0983448,12.48386545,9e-08,0.0,0.0,0.0,9e-08,0.0,0.0,0.0,9e-08
1536689995480135213,3838,1536689995479808025,base_link,-0.314773436806,0.19802169057,0.533508249519,-0.759653895692,1.0,0.0,0.0,0.0,1.0,0.0,0.0,0.0,1.0,0.0958698391914,-0.252306580544,-0.239797756076,1.21846967915e-07,0.0,0.0,0.0,1.21846967915e-07,0.0,0.0,0.0,1.21846967915e-07,0.55897905,0.51975245,12.6505785,9e-08,0.0,0.0,0.0,9e-08,0.0,0.0,0.0,9e-08
1536689995866069349,3839,1536689995865841261,base_link,-0.285130728676,0.224734614832,0.587063805395,-0.723568178444,1.0,0.0,0.0,0.0,1.0,0.0,0.0,0.0,1.0,-0.00523161888123,-0.219194442034,-0.313540309668,1.21846967915e-07,0.0,0.0,0.0,1.21846967915e-07,0.0,0.0,0.0,1.21846967915e-07,0.8629852,1.26505785,13.8273765,9e-08,0.0,0.0,0.0,9e-08,0.0,0.0,0.0,9e-08
1536689996155294182,3840,1536689996154990962,base_link,-0.279583881589,0.239439581691,0.626161340171,-0.687330718032,1.0,0.0,0.0,0.0,1.0,0.0,0.0,0.0,1.0,0.0801749005914,-0.268373459578,-0.311780333519,1.21846967915e-07,0.0,0.0,0.0,1.21846967915e-07,0.0,0.0,0.0,1.21846967915e-07,0.4511059,0.9022118,12.6505785,9e-08,0.0,0.0,0.0,9e-08,0.0,0.0,0.0,9e-08
1536689996475642446,3841,1536689996475370904,base_link,0.275710683811,-0.278670986484,-0.66434937552,0.636369395375,1.0,0.0,0.0,0.0,1.0,0.0,0.0,0.0,1.0,0.132770553231,-0.3388428092,-0.259457200766,1.21846967915e-07,0.0,0.0,0.0,1.21846967915e-07,0.0,0.0,0.0,1.21846967915e-07,0.784532,0.59820565,14.17060925,9e-08,0.0,0.0,0.0,9e-08,0.0,0.0,0.0,9e-08
1536689996776384967,3842,1536689996776124401,base_link,0.256654225198,-0.309988446302,-0.697996354057,0.592314833151,1.0,0.0,0.0,0.0,1.0,0.0,0.0,0.0,1.0,0.109955206513,-0.366913318634,-0.269130170345,1.21846967915e-07,0.0,0.0,0.0,1.21846967915e-07,0.0,0.0,0.0,1.21846967915e-07,1.08853815,1.26505785,13.2389775,9e-08,0.0,0.0,0.0,9e-08,0.0,0.0,0.0,9e-08
1536689997180025042,3843,1536689997179768028,base_link,0.221659871268,-0.350489743148,-0.749074145914,0.516635040759,1.0,0.0,0.0,0.0,1.0,0.0,0.0,0.0,1.0,0.0335748940706,-0.555647671223,-0.304446458817,1.21846967915e-07,0.0,0.0,0.0,1.21846967915e-07,0.0,0.0,0.0,1.21846967915e-07,1.12776475,0.79433865,16.7693715,9e-08,0.0,0.0,0.0,9e-08,0.0,0.0,0.0,9e-08
1536689997539101127,3844,1536689997538747988,base_link,0.165191777375,-0.396480541886,-0.785422473241,0.445675212594,1.0,0.0,0.0,0.0,1.0,0.0,0.0,0.0,1.0,-0.103890947998,-0.477716863155,-0.224800258875,1.21846967915e-07,0.0,0.0,0.0,1.21846967915e-07,0.0,0.0,0.0,1.21846967915e-07,1.30428445,1.57887065,19.7898197,9e-08,0.0,0.0,0.0,9e-08,0.0,0.0,0.0,9e-08
1536689997880936183,3845,1536689997880706879,base_link,0.133317263758,-0.39570696035,-0.822188160447,0.386845107938,1.0,0.0,0.0,0.0,1.0,0.0,0.0,0.0,1.0,0.0253074988723,-0.383033543825,-0.362932145596,1.21846967915e-07,0.0,0.0,0.0,1.21846967915e-07,0.0,0.0,0.0,1.21846967915e-07,0.9610517,0.89240515,14.28828905,9e-08,0.0,0.0,0.0,9e-08,0.0,0.0,0.0,9e-08
1536689998197015195,3846,1536689998196553356,base_link,0.100073513125,-0.389209228568,-0.856226839821,0.324618340731,1.0,0.0,0.0,0.0,1.0,0.0,0.0,0.0,1.0,0.111485928297,-0.3495695889,-0.303378373384,1.21846967915e-07,0.0,0.0,0.0,1.21846967915e-07,0.0,0.0,0.0,1.21846967915e-07,0.6276256,0.4903325,15.28856735,9e-08,0.0,0.0,0.0,9e-08,0.0,0.0,0.0,9e-08
1536689998582404167,3847,1536689998581699745,base_link,0.0697051819817,-0.41392027684,-0.871618216244,0.253165710823,1.0,0.0,0.0,0.0,1.0,0.0,0.0,0.0,1.0,-0.0993004441261,-0.430207490921,-0.228210493922,1.21846967915e-07,0.0,0.0,0.0,1.21846967915e-07,0.0,0.0,0.0,1.21846967915e-07,0.2549729,0.67665885,14.9845612,9e-08,0.0,0.0,0.0,9e-08,0.0,0.0,0.0,9e-08
1536689998869810668,3848,1536689998868787089,base_link,0.038646444213,-0.418347938274,-0.884533533872,0.202711327625,1.0,0.0,0.0,0.0,1.0,0.0,0.0,0.0,1.0,-0.0368565991521,-0.287087738514,-0.262195557356,1.21846967915e-07,0.0,0.0,0.0,1.21846967915e-07,0.0,0.0,0.0,1.21846967915e-07,0.4118793,0.59820565,13.34685065,9e-08,0.0,0.0,0.0,9e-08,0.0,0.0,0.0,9e-08
1536689999292542359,3849,1536689999292306272,base_link,0.0104711097566,-0.418244718844,-0.898115500367,0.1354631279,1.0,0.0,0.0,0.0,1.0,0.0,0.0,0.0,1.0,-0.12488861382,-0.249168425798,-0.26832947135,1.21846967915e-07,0.0,0.0,0.0,1.21846967915e-07,0.0,0.0,0.0,1.21846967915e-07,0.0,1.0198916,11.8464332,9e-08,0.0,0.0,0.0,9e-08,0.0,0.0,0.0,9e-08
1536689999612182425,3850,1536689999610877097,base_link,-0.00191360957014,-0.409625263342,-0.908837313479,0.0788556869164,1.0,0.0,0.0,0.0,1.0,0.0,0.0,0.0,1.0,-0.0877937301993,-0.1070439592,-0.351962059736,1.21846967915e-07,0.0,0.0,0.0,1.21846967915e-07,0.0,0.0,0.0,1.21846967915e-07,-0.0784532,1.4709975,13.40569055,9e-08,0.0,0.0,0.0,9e-08,0.0,0.0,0.0,9e-08
1536689999876735880,3851,1536689999876361333,base_link,0.00214702666271,-0.408243102648,-0.912677691061,0.0187720978117,1.0,0.0,0.0,0.0,1.0,0.0,0.0,0.0,1.0,0.0644030496478,-0.132825598121,-0.385762363672,1.21846967915e-07,0.0,0.0,0.0,1.21846967915e-07,0.0,0.0,0.0,1.21846967915e-07,-0.28439285,0.36284605,11.40513395,9e-08,0.0,0.0,0.0,9e-08,0.0,0.0,0.0,9e-08
