%time,field.header.seq,field.header.stamp,field.header.frame_id,field.orientation.x,field.orientation.y,field.orientation.z,field.orientation.w,field.orientation_covariance0,field.orientation_covariance1,field.orientation_covariance2,field.orientation_covariance3,field.orientation_covariance4,field.orientation_covariance5,field.orientation_covariance6,field.orientation_covariance7,field.orientation_covariance8,field.angular_velocity.x,field.angular_velocity.y,field.angular_velocity.z,field.angular_velocity_covariance0,field.angular_velocity_covariance1,field.angular_velocity_covariance2,field.angular_velocity_covariance3,field.angular_velocity_covariance4,field.angular_velocity_covariance5,field.angular_velocity_covariance6,field.angular_velocity_covariance7,field.angular_velocity_covariance8,field.linear_acceleration.x,field.linear_acceleration.y,field.linear_acceleration.z,field.linear_acceleration_covariance0,field.linear_acceleration_covariance1,field.linear_acceleration_covariance2,field.linear_acceleration_covariance3,field.linear_acceleration_covariance4,field.linear_acceleration_covariance5,field.linear_acceleration_covariance6,field.linear_acceleration_covariance7,field.linear_acceleration_covariance8
1538768543780097959,9681,1538768543779603687,base_link,0.0,0.0,0.0,0.0,-1.0,0.0,0.0,0.0,0.0,0.0,0.0,0.0,0.0,-0.328,0.078,0.051,1.21846967915e-07,0.0,0.0,0.0,1.21846967915e-07,0.0,0.0,0.0,1.21846967915e-07,0.196133,0.63743225,8.1787461,9e-08,0.0,0.0,0.0,9e-08,0.0,0.0,0.0,9e-08
1538768543883121383,9682,1538768543882756359,base_link,0.0,0.0,0.0,0.0,-1.0,0.0,0.0,0.0,0.0,0.0,0.0,0.0,0.0,-0.28,0.023,0.025,1.21846967915e-07,0.0,0.0,0.0,1.21846967915e-07,0.0,0.0,0.0,1.21846967915e-07,0.2549729,0.6276256,10.69905515,9e-08,0.0,0.0,0.0,9e-08,0.0,0.0,0.0,9e-08
1538768543987104967,9683,1538768543986037831,base_link,0.0,0.0,0.0,0.0,-1.0,0.0,0.0,0.0,0.0,0.0,0.0,0.0,0.0,-0.145,0.025,0.002,1.21846967915e-07,0.0,0.0,0.0,1.21846967915e-07,0.0,0.0,0.0,1.21846967915e-07,0.16671305,0.5099458,9.8458766,9e-08,0.0,0.0,0.0,9e-08,0.0,0.0,0.0,9e-08
1538768544082274375,9684,1538768544081848007,base_link,0.0,0.0,0.0,0.0,-1.0,0.0,0.0,0.0,0.0,0.0,0.0,0.0,0.0,-0.178,0.037,0.005,1.21846967915e-07,0.0,0.0,0.0,1.21846967915e-07,0.0,0.0,0.0,1.21846967915e-07,0.06864655,0.18632635,8.85540495,9e-08,0.0,0.0,0.0,9e-08,0.0,0.0,0.0,9e-08
1538768544190361223,9685,1538768544188742567,base_link,0.0,0.0,0.0,0.0,-1.0,0.0,0.0,0.0,0.0,0.0,0.0,0.0,0.0,-0.187,0.008,0.075,1.21846967915e-07,0.0,0.0,0.0,1.21846967915e-07,0.0,0.0,0.0,1.21846967915e-07,0.0,0.00980665,8.48275225,9e-08,0.0,0.0,0.0,9e-08,0.0,0.0,0.0,9e-08
1538768544279157607,9686,1538768544278684615,base_link,0.0,0.0,0.0,0.0,-1.0,0.0,0.0,0.0,0.0,0.0,0.0,0.0,0.0,-0.162,-0.019,0.14,1.21846967915e-07,0.0,0.0,0.0,1.21846967915e-07,0.0,0.0,0.0,1.21846967915e-07,0.0392266,0.0392266,8.75733845,9e-08,0.0,0.0,0.0,9e-08,0.0,0.0,0.0,9e-08
1538768544382141831,9687,1538768544381700487,base_link,0.0,0.0,0.0,0.0,-1.0,0.0,0.0,0.0,0.0,0.0,0.0,0.0,0.0,-0.044,-0.022,0.174,1.21846967915e-07,0.0,0.0,0.0,1.21846967915e-07,0.0,0.0,0.0,1.21846967915e-07,-0.0196133,-0.22555295,7.97280645,9e-08,0.0,0.0,0.0,9e-08,0.0,0.0,0.0,9e-08
1538768544482419079,9688,1538768544476566503,base_link,0.0,0.0,0.0,0.0,-1.0,0.0,0.0,0.0,0.0,0.0,0.0,0.0,0.0,0.041,-0.032,0.232,1.21846967915e-07,0.0,0.0,0.0,1.21846967915e-07,0.0,0.0,0.0,1.21846967915e-07,0.06864655,-0.20593965,7.9433865,9e-08,0.0,0.0,0.0,9e-08,0.0,0.0,0.0,9e-08
1538768544581004039,9689,1538768544580419271,base_link,0.0,0.0,0.0,0.0,-1.0,0.0,0.0,0.0,0.0,0.0,0.0,0.0,0.0,-0.02,-0.047,0.301,1.21846967915e-07,0.0,0.0,0.0,1.21846967915e-07,0.0,0.0,0.0,1.21846967915e-07,0.02941995,0.04903325,8.34545915,9e-08,0.0,0.0,0.0,9e-08,0.0,0.0,0.0,9e-08
1538768544673772103,9690,1538768544673109863,base_link,0.0,0.0,0.0,0.0,-1.0,0.0,0.0,0.0,0.0,0.0,0.0,0.0,0.0,-0.172,-0.09,0.304,1.21846967915e-07,0.0,0.0,0.0,1.21846967915e-07,0.0,0.0,0.0,1.21846967915e-07,0.0980665,0.24516625,9.2770909,9e-08,0.0,0.0,0.0,9e-08,0.0,0.0,0.0,9e-08
1538768544790951623,9691,1538768544790382823,base_link,0.0,0.0,0.0,0.0,-1.0,0.0,0.0,0.0,0.0,0.0,0.0,0.0,0.0,-0.318,-0.101,0.311,1.21846967915e-07,0.0,0.0,0.0,1.21846967915e-07,0.0,0.0,0.0,1.21846967915e-07,0.06864655,0.44129925,10.13026945,9e-08,0.0,0.0,0.0,9e-08,0.0,0.0,0.0,9e-08
1538768544885860871,9692,1538768544885341095,base_link,0.0,0.0,0.0,0.0,-1.0,0.0,0.0,0.0,0.0,0.0,0.0,0.0,0.0,-0.448,-0.1,0.29,1.21846967915e-07,0.0,0.0,0.0,1.21846967915e-07,0.0,0.0,0.0,1.21846967915e-07,0.20593965,0.588399,10.60098865,9e-08,0.0,0.0,0.0,9e-08,0.0,0.0,0.0,9e-08
1538768544999750599,9693,1538768544998408711,base_link,0.0,0.0,0.0,0.0,-1.0,0.0,0.0,0.0,0.0,0.0,0.0,0.0,0.0,-0.484,-0.123,0.247,1.21846967915e-07,0.0,0.0,0.0,1.21846967915e-07,0.0,0.0,0.0,1.21846967915e-07,0.16671305,0.6668522,11.3953273,9e-08,0.0,0.0,0.0,9e-08,0.0,0.0,0.0,9e-08
1538768545098111047,9694,1538768545097093607,base_link,0.0,0.0,0.0,0.0,-1.0,0.0,0.0,0.0,0.0,0.0,0.0,0.0,0.0,-0.415,-0.111,0.189,1.21846967915e-07,0.0,0.0,0.0,1.21846967915e-07,0.0,0.0,0.0,1.21846967915e-07,0.196133,0.4903325,10.58137535,9e-08,0.0,0.0,0.0,9e-08,0.0,0.0,0.0,9e-08
1538768545217719079,9695,1538768545217208999,base_link,0.0,0.0,0.0,0.0,-1.0,0.0,0.0,0.0,0.0,0.0,0.0,0.0,0.0,-0.297,-0.156,0.164,1.21846967915e-07,0.0,0.0,0.0,1.21846967915e-07,0.0,0.0,0.0,1.21846967915e-07,0.0980665,0.2941995,10.6892485,9e-08,0.0,0.0,0.0,9e-08,0.0,0.0,0.0,9e-08
1538768545289071207,9696,1538768545288428231,base_link,0.0,0.0,0.0,0.0,-1.0,0.0,0.0,0.0,0.0,0.0,0.0,0.0,0.0,-0.23,-0.162,0.156,1.21846967915e-07,0.0,0.0,0.0,1.21846967915e-07,0.0,0.0,0.0,1.21846967915e-07,0.0980665,0.1569064,10.42446895,9e-08,0.0,0.0,0.0,9e-08,0.0,0.0,0.0,9e-08
1538768545410421639,9697,1538768545409407335,base_link,0.0,0.0,0.0,0.0,-1.0,0.0,0.0,0.0,0.0,0.0,0.0,0.0,0.0,-0.194,-0.191,0.191,1.21846967915e-07,0.0,0.0,0.0,1.21846967915e-07,0.0,0.0,0.0,1.21846967915e-07,0.1765197,0.10787315,10.24794925,9e-08,0.0,0.0,0.0,9e-08,0.0,0.0,0.0,9e-08
1538768545514844423,9698,1538768545513794087,base_link,0.0,0.0,0.0,0.0,-1.0,0.0,0.0,0.0,0.0,0.0,0.0,0.0,0.0,-0.182,-0.215,0.216,1.21846967915e-07,0.0,0.0,0.0,1.21846967915e-07,0.0,0.0,0.0,1.21846967915e-07,0.20593965,0.14709975,11.09132115,9e-08,0.0,0.0,0.0,9e-08,0.0,0.0,0.0,9e-08
1538768545593159495,9699,1538768545589270727,base_link,0.0,0.0,0.0,0.0,-1.0,0.0,0.0,0.0,0.0,0.0,0.0,0.0,0.0,-0.241,-0.224,0.236,1.21846967915e-07,0.0,0.0,0.0,1.21846967915e-07,0.0,0.0,0.0,1.21846967915e-07,0.16671305,0.0588399,11.64049355,9e-08,0.0,0.0,0.0,9e-08,0.0,0.0,0.0,9e-08
1538768545714135431,9700,1538768545709827975,base_link,0.0,0.0,0.0,0.0,-1.0,0.0,0.0,0.0,0.0,0.0,0.0,0.0,0.0,-0.218,-0.266,0.309,1.21846967915e-07,0.0,0.0,0.0,1.21846967915e-07,0.0,0.0,0.0,1.21846967915e-07,0.26477955,-0.1372931,12.28773245,9e-08,0.0,0.0,0.0,9e-08,0.0,0.0,0.0,9e-08
1538768545823420327,9701,1538768545821877799,base_link,0.0,0.0,0.0,0.0,-1.0,0.0,0.0,0.0,0.0,0.0,0.0,0.0,0.0,-0.13,-0.29,0.358,1.21846967915e-07,0.0,0.0,0.0,1.21846967915e-07,0.0,0.0,0.0,1.21846967915e-07,0.30400615,-0.0784532,12.89574475,9e-08,0.0,0.0,0.0,9e-08,0.0,0.0,0.0,9e-08
1538768545896302247,9702,1538768545893834151,base_link,0.0,0.0,0.0,0.0,-1.0,0.0,0.0,0.0,0.0,0.0,0.0,0.0,0.0,-0.121,-0.308,0.389,1.21846967915e-07,0.0,0.0,0.0,1.21846967915e-07,0.0,0.0,0.0,1.21846967915e-07,0.3726527,-0.1765197,13.5724036,9e-08,0.0,0.0,0.0,9e-08,0.0,0.0,0.0,9e-08
1538768546015485159,9703,1538768546014981287,base_link,0.0,0.0,0.0,0.0,-1.0,0.0,0.0,0.0,0.0,0.0,0.0,0.0,0.0,-0.128,-0.314,0.437,1.21846967915e-07,0.0,0.0,0.0,1.21846967915e-07,0.0,0.0,0.0,1.21846967915e-07,0.3334261,1.53363645945e-15,12.52309205,9e-08,0.0,0.0,0.0,9e-08,0.0,0.0,0.0,9e-08
1538768546088433543,9704,1538768546087997799,base_link,0.0,0.0,0.0,0.0,-1.0,0.0,0.0,0.0,0.0,0.0,0.0,0.0,0.0,-0.082,-0.325,0.425,1.21846967915e-07,0.0,0.0,0.0,1.21846967915e-07,0.0,0.0,0.0,1.21846967915e-07,0.3138128,0.14709975,12.67999845,9e-08,0.0,0.0,0.0,9e-08,0.0,0.0,0.0,9e-08
1538768546184229671,9705,1538768546183537063,base_link,0.0,0.0,0.0,0.0,-1.0,0.0,0.0,0.0,0.0,0.0,0.0,0.0,0.0,-0.094,-0.356,0.409,1.21846967915e-07,0.0,0.0,0.0,1.21846967915e-07,0.0,0.0,0.0,1.21846967915e-07,0.42168595,0.4118793,13.3174307,9e-08,0.0,0.0,0.0,9e-08,0.0,0.0,0.0,9e-08
1538768546283479079,9706,1538768546282717703,base_link,0.0,0.0,0.0,0.0,-1.0,0.0,0.0,0.0,0.0,0.0,0.0,0.0,0.0,-0.1,-0.365,0.378,1.21846967915e-07,0.0,0.0,0.0,1.21846967915e-07,0.0,0.0,0.0,1.21846967915e-07,0.4903325,0.42168595,13.87640975,9e-08,0.0,0.0,0.0,9e-08,0.0,0.0,0.0,9e-08
1538768546380192263,9707,1538768546379317223,base_link,0.0,0.0,0.0,0.0,-1.0,0.0,0.0,0.0,0.0,0.0,0.0,0.0,0.0,-0.142,-0.346,0.342,1.21846967915e-07,0.0,0.0,0.0,1.21846967915e-07,0.0,0.0,0.0,1.21846967915e-07,0.4314926,0.3334261,13.1212977,9e-08,0.0,0.0,0.0,9e-08,0.0,0.0,0.0,9e-08
1538768546471486279,9708,1538768546470876327,base_link,0.0,0.0,0.0,0.0,-1.0,0.0,0.0,0.0,0.0,0.0,0.0,0.0,0.0,-0.108,-0.372,0.288,1.21846967915e-07,0.0,0.0,0.0,1.21846967915e-07,0.0,0.0,0.0,1.21846967915e-07,0.5295591,0.1372931,13.34685065,9e-08,0.0,0.0,0.0,9e-08,0.0,0.0,0.0,9e-08
1538768546618482695,9709,1538768546617897031,base_link,0.0,0.0,0.0,0.0,-1.0,0.0,0.0,0.0,0.0,0.0,0.0,0.0,0.0,-0.052,-0.378,0.337,1.21846967915e-07,0.0,0.0,0.0,1.21846967915e-07,0.0,0.0,0.0,1.21846967915e-07,0.588399,-0.2157463,13.925443,9e-08,0.0,0.0,0.0,9e-08,0.0,0.0,0.0,9e-08
1538768546680893767,9710,1538768546680122311,base_link,0.0,0.0,0.0,0.0,-1.0,0.0,0.0,0.0,0.0,0.0,0.0,0.0,0.0,0.046,-0.395,0.382,1.21846967915e-07,0.0,0.0,0.0,1.21846967915e-07,0.0,0.0,0.0,1.21846967915e-07,0.71588545,1.83868239578e-15,15.01398115,9e-08,0.0,0.0,0.0,9e-08,0.0,0.0,0.0,9e-08
1538768546803675015,9711,1538768546802915303,base_link,0.0,0.0,0.0,0.0,-1.0,0.0,0.0,0.0,0.0,0.0,0.0,0.0,0.0,0.233,-0.378,0.425,1.21846967915e-07,0.0,0.0,0.0,1.21846967915e-07,0.0,0.0,0.0,1.21846967915e-07,0.7256921,0.44129925,15.28856735,9e-08,0.0,0.0,0.0,9e-08,0.0,0.0,0.0,9e-08
1538768546880448455,9712,1538768546879549287,base_link,0.0,0.0,0.0,0.0,-1.0,0.0,0.0,0.0,0.0,0.0,0.0,0.0,0.0,0.075,-0.384,0.409,1.21846967915e-07,0.0,0.0,0.0,1.21846967915e-07,0.0,0.0,0.0,1.21846967915e-07,0.99047165,0.588399,16.26923235,9e-08,0.0,0.0,0.0,9e-08,0.0,0.0,0.0,9e-08
1538768546988549383,9713,1538768546987478343,base_link,0.0,0.0,0.0,0.0,-1.0,0.0,0.0,0.0,0.0,0.0,0.0,0.0,0.0,-0.242,-0.377,0.383,1.21846967915e-07,0.0,0.0,0.0,1.21846967915e-07,0.0,0.0,0.0,1.21846967915e-07,0.85317855,0.32361945,15.3376006,9e-08,0.0,0.0,0.0,9e-08,0.0,0.0,0.0,9e-08
1538768547079017031,9714,1538768547078141479,base_link,0.0,0.0,0.0,0.0,-1.0,0.0,0.0,0.0,0.0,0.0,0.0,0.0,0.0,-0.253,-0.386,0.351,1.21846967915e-07,0.0,0.0,0.0,1.21846967915e-07,0.0,0.0,0.0,1.21846967915e-07,0.69627215,0.4118793,14.71978165,9e-08,0.0,0.0,0.0,9e-08,0.0,0.0,0.0,9e-08
1538768547186786215,9715,1538768547183589703,base_link,0.0,0.0,0.0,0.0,-1.0,0.0,0.0,0.0,0.0,0.0,0.0,0.0,0.0,-0.28,-0.383,0.34,1.21846967915e-07,0.0,0.0,0.0,1.21846967915e-07,0.0,0.0,0.0,1.21846967915e-07,0.6472389,0.3530394,14.24906245,9e-08,0.0,0.0,0.0,9e-08,0.0,0.0,0.0,9e-08
1538768547295232647,9716,1538768547294391879,base_link,0.0,0.0,0.0,0.0,-1.0,0.0,0.0,0.0,0.0,0.0,0.0,0.0,0.0,-0.135,-0.388,0.31,1.21846967915e-07,0.0,0.0,0.0,1.21846967915e-07,0.0,0.0,0.0,1.21846967915e-07,0.79433865,0.1176798,13.9646696,9e-08,0.0,0.0,0.0,9e-08,0.0,0.0,0.0,9e-08
1538768547387054567,9717,1538768547386443559,base_link,0.0,0.0,0.0,0.0,-1.0,0.0,0.0,0.0,0.0,0.0,0.0,0.0,0.0,-0.185,-0.381,0.329,1.21846967915e-07,0.0,0.0,0.0,1.21846967915e-07,0.0,0.0,0.0,1.21846967915e-07,0.784532,0.06864655,13.3958839,9e-08,0.0,0.0,0.0,9e-08,0.0,0.0,0.0,9e-08
1538768547589100231,9718,1538768547585603239,base_link,0.0,0.0,0.0,0.0,-1.0,0.0,0.0,0.0,0.0,0.0,0.0,0.0,0.0,0.038,-0.413,0.362,1.21846967915e-07,0.0,0.0,0.0,1.21846967915e-07,0.0,0.0,0.0,1.21846967915e-07,0.97085835,0.0392266,14.40596885,9e-08,0.0,0.0,0.0,9e-08,0.0,0.0,0.0,9e-08
1538768547599660039,9719,1538768547599035687,base_link,0.0,0.0,0.0,0.0,-1.0,0.0,0.0,0.0,0.0,0.0,0.0,0.0,0.0,0.042,-0.422,0.371,1.21846967915e-07,0.0,0.0,0.0,1.21846967915e-07,0.0,0.0,0.0,1.21846967915e-07,1.01008495,0.0588399,14.4550021,9e-08,0.0,0.0,0.0,9e-08,0.0,0.0,0.0,9e-08
1538768547681511399,9720,1538768547680128679,base_link,0.0,0.0,0.0,0.0,-1.0,0.0,0.0,0.0,0.0,0.0,0.0,0.0,0.0,-0.074,-0.443,0.421,1.21846967915e-07,0.0,0.0,0.0,1.21846967915e-07,0.0,0.0,0.0,1.21846967915e-07,1.1571847,0.40207265,15.24934075,9e-08,0.0,0.0,0.0,9e-08,0.0,0.0,0.0,9e-08
1538768547799137639,9721,1538768547798418439,base_link,0.0,0.0,0.0,0.0,-1.0,0.0,0.0,0.0,0.0,0.0,0.0,0.0,0.0,-0.104,-0.417,0.405,1.21846967915e-07,0.0,0.0,0.0,1.21846967915e-07,0.0,0.0,0.0,1.21846967915e-07,1.06892485,0.28439285,14.32751565,9e-08,0.0,0.0,0.0,9e-08,0.0,0.0,0.0,9e-08
1538768547901953671,9722,1538768547901142823,base_link,0.0,0.0,0.0,0.0,-1.0,0.0,0.0,0.0,0.0,0.0,0.0,0.0,0.0,-0.158,-0.437,0.378,1.21846967915e-07,0.0,0.0,0.0,1.21846967915e-07,0.0,0.0,0.0,1.21846967915e-07,1.1571847,0.14709975,14.3373223,9e-08,0.0,0.0,0.0,9e-08,0.0,0.0,0.0,9e-08
1538768547986688007,9723,1538768547985240551,base_link,0.0,0.0,0.0,0.0,-1.0,0.0,0.0,0.0,0.0,0.0,0.0,0.0,0.0,-0.113,-0.433,0.351,1.21846967915e-07,0.0,0.0,0.0,1.21846967915e-07,0.0,0.0,0.0,1.21846967915e-07,1.16699135,-0.00980665,14.317709,9e-08,0.0,0.0,0.0,9e-08,0.0,0.0,0.0,9e-08
1538768548097970695,9724,1538768548097176455,base_link,0.0,0.0,0.0,0.0,-1.0,0.0,0.0,0.0,0.0,0.0,0.0,0.0,0.0,0.094,-0.455,0.381,1.21846967915e-07,0.0,0.0,0.0,1.21846967915e-07,0.0,0.0,0.0,1.21846967915e-07,1.08853815,-0.0588399,14.513842,9e-08,0.0,0.0,0.0,9e-08,0.0,0.0,0.0,9e-08
1538768548190555015,9725,1538768548189886055,base_link,0.0,0.0,0.0,0.0,-1.0,0.0,0.0,0.0,0.0,0.0,0.0,0.0,0.0,0.225,-0.475,0.396,1.21846967915e-07,0.0,0.0,0.0,1.21846967915e-07,0.0,0.0,0.0,1.21846967915e-07,1.4317709,0.0588399,16.2594257,9e-08,0.0,0.0,0.0,9e-08,0.0,0.0,0.0,9e-08
1538768548300457863,9726,1538768548299252615,base_link,0.0,0.0,0.0,0.0,-1.0,0.0,0.0,0.0,0.0,0.0,0.0,0.0,0.0,0.182,-0.485,0.408,1.21846967915e-07,0.0,0.0,0.0,1.21846967915e-07,0.0,0.0,0.0,1.21846967915e-07,1.36312435,0.1176798,16.9851178,9e-08,0.0,0.0,0.0,9e-08,0.0,0.0,0.0,9e-08
1538768548378273191,9727,1538768548377337031,base_link,0.0,0.0,0.0,0.0,-1.0,0.0,0.0,0.0,0.0,0.0,0.0,0.0,0.0,0.205,-0.468,0.373,1.21846967915e-07,0.0,0.0,0.0,1.21846967915e-07,0.0,0.0,0.0,1.21846967915e-07,1.18660465,0.34323275,16.03387275,9e-08,0.0,0.0,0.0,9e-08,0.0,0.0,0.0,9e-08
1538768548463465479,9728,1538768548462747655,base_link,0.0,0.0,0.0,0.0,-1.0,0.0,0.0,0.0,0.0,0.0,0.0,0.0,0.0,0.321,-0.487,0.336,1.21846967915e-07,0.0,0.0,0.0,1.21846967915e-07,0.0,0.0,0.0,1.21846967915e-07,1.3140911,0.10787315,17.38719045,9e-08,0.0,0.0,0.0,9e-08,0.0,0.0,0.0,9e-08
1538768548602589127,9729,1538768548602001127,base_link,0.0,0.0,0.0,0.0,-1.0,0.0,0.0,0.0,0.0,0.0,0.0,0.0,0.0,0.353,-0.442,0.334,1.21846967915e-07,0.0,0.0,0.0,1.21846967915e-07,0.0,0.0,0.0,1.21846967915e-07,1.20621795,0.1569064,16.9655045,9e-08,0.0,0.0,0.0,9e-08,0.0,0.0,0.0,9e-08
1538768548712305479,9730,1538768548711751111,base_link,0.0,0.0,0.0,0.0,-1.0,0.0,0.0,0.0,0.0,0.0,0.0,0.0,0.0,0.45,-0.381,0.34,1.21846967915e-07,0.0,0.0,0.0,1.21846967915e-07,0.0,0.0,0.0,1.21846967915e-07,0.8629852,0.4314926,15.69064,9e-08,0.0,0.0,0.0,9e-08,0.0,0.0,0.0,9e-08
1538768548793052423,9731,1538768548790978151,base_link,0.0,0.0,0.0,0.0,-1.0,0.0,0.0,0.0,0.0,0.0,0.0,0.0,0.0,0.552,-0.339,0.291,1.21846967915e-07,0.0,0.0,0.0,1.21846967915e-07,0.0,0.0,0.0,1.21846967915e-07,0.784532,0.3530394,14.50403535,9e-08,0.0,0.0,0.0,9e-08,0.0,0.0,0.0,9e-08
1538768548921156967,9732,1538768548915248551,base_link,0.0,0.0,0.0,0.0,-1.0,0.0,0.0,0.0,0.0,0.0,0.0,0.0,0.0,0.72,-0.308,0.233,1.21846967915e-07,0.0,0.0,0.0,1.21846967915e-07,0.0,0.0,0.0,1.21846967915e-07,0.65704555,0.38245935,14.66094175,9e-08,0.0,0.0,0.0,9e-08,0.0,0.0,0.0,9e-08
1538768548991187655,9733,1538768548990615591,base_link,0.0,0.0,0.0,0.0,-1.0,0.0,0.0,0.0,0.0,0.0,0.0,0.0,0.0,0.702,-0.278,0.228,1.21846967915e-07,0.0,0.0,0.0,1.21846967915e-07,0.0,0.0,0.0,1.21846967915e-07,0.5491724,0.40207265,14.64132845,9e-08,0.0,0.0,0.0,9e-08,0.0,0.0,0.0,9e-08
1538768549079333927,9734,1538768549078774599,base_link,0.0,0.0,0.0,0.0,-1.0,0.0,0.0,0.0,0.0,0.0,0.0,0.0,0.0,0.658,-0.246,0.19,1.21846967915e-07,0.0,0.0,0.0,1.21846967915e-07,0.0,0.0,0.0,1.21846967915e-07,0.5099458,0.5491724,14.81784815,9e-08,0.0,0.0,0.0,9e-08,0.0,0.0,0.0,9e-08
1538768549186921255,9735,1538768549184176871,base_link,0.0,0.0,0.0,0.0,-1.0,0.0,0.0,0.0,0.0,0.0,0.0,0.0,0.0,0.594,-0.18,0.15,1.21846967915e-07,0.0,0.0,0.0,1.21846967915e-07,0.0,0.0,0.0,1.21846967915e-07,0.2745862,1.14737805,13.72931,9e-08,0.0,0.0,0.0,9e-08,0.0,0.0,0.0,9e-08
1538768549278794535,9736,1538768549278096071,base_link,0.0,0.0,0.0,0.0,-1.0,0.0,0.0,0.0,0.0,0.0,0.0,0.0,0.0,0.554,-0.134,0.048,1.21846967915e-07,0.0,0.0,0.0,1.21846967915e-07,0.0,0.0,0.0,1.21846967915e-07,0.1569064,0.42168595,12.1994726,9e-08,0.0,0.0,0.0,9e-08,0.0,0.0,0.0,9e-08
1538768549401582087,9737,1538768549400923431,base_link,0.0,0.0,0.0,0.0,-1.0,0.0,0.0,0.0,0.0,0.0,0.0,0.0,0.0,0.588,-0.111,0.012,1.21846967915e-07,0.0,0.0,0.0,1.21846967915e-07,0.0,0.0,0.0,1.21846967915e-07,0.2157463,0.4118793,12.97419795,9e-08,0.0,0.0,0.0,9e-08,0.0,0.0,0.0,9e-08
1538768549483075975,9738,1538768549482371591,base_link,0.0,0.0,0.0,0.0,-1.0,0.0,0.0,0.0,0.0,0.0,0.0,0.0,0.0,0.647,-0.055,0.023,1.21846967915e-07,0.0,0.0,0.0,1.21846967915e-07,0.0,0.0,0.0,1.21846967915e-07,0.1569064,0.2549729,12.20927925,9e-08,0.0,0.0,0.0,9e-08,0.0,0.0,0.0,9e-08
1538768549595223207,9739,1538768549590686983,base_link,0.0,0.0,0.0,0.0,-1.0,0.0,0.0,0.0,0.0,0.0,0.0,0.0,0.0,0.788,-0.024,0.006,1.21846967915e-07,0.0,0.0,0.0,1.21846967915e-07,0.0,0.0,0.0,1.21846967915e-07,0.0784532,0.0980665,10.6304086,9e-08,0.0,0.0,0.0,9e-08,0.0,0.0,0.0,9e-08
1538768549691391367,9740,1538768549689376871,base_link,0.0,0.0,0.0,0.0,-1.0,0.0,0.0,0.0,0.0,0.0,0.0,0.0,0.0,0.774,0.005,0.032,1.21846967915e-07,0.0,0.0,0.0,1.21846967915e-07,0.0,0.0,0.0,1.21846967915e-07,0.0588399,0.18632635,10.2773692,9e-08,0.0,0.0,0.0,9e-08,0.0,0.0,0.0,9e-08
1538768549795125159,9741,1538768549793740903,base_link,0.0,0.0,0.0,0.0,-1.0,0.0,0.0,0.0,0.0,0.0,0.0,0.0,0.0,0.62,0.024,0.042,1.21846967915e-07,0.0,0.0,0.0,1.21846967915e-07,0.0,0.0,0.0,1.21846967915e-07,0.0,0.2157463,9.0809579,9e-08,0.0,0.0,0.0,9e-08,0.0,0.0,0.0,9e-08
1538768549895167815,9742,1538768549894225351,base_link,0.0,0.0,0.0,0.0,-1.0,0.0,0.0,0.0,0.0,0.0,0.0,0.0,0.0,0.445,0.042,0.056,1.21846967915e-07,0.0,0.0,0.0,1.21846967915e-07,0.0,0.0,0.0,1.21846967915e-07,0.0,0.28439285,8.87501825,9e-08,0.0,0.0,0.0,9e-08,0.0,0.0,0.0,9e-08
1538768549982592807,9743,1538768549981953255,base_link,0.0,0.0,0.0,0.0,-1.0,0.0,0.0,0.0,0.0,0.0,0.0,0.0,0.0,0.487,0.066,0.041,1.21846967915e-07,0.0,0.0,0.0,1.21846967915e-07,0.0,0.0,0.0,1.21846967915e-07,-0.0196133,0.16671305,8.22777935,9e-08,0.0,0.0,0.0,9e-08,0.0,0.0,0.0,9e-08
1538768550106934151,9744,1538768550105735079,base_link,0.0,0.0,0.0,0.0,-1.0,0.0,0.0,0.0,0.0,0.0,0.0,0.0,0.0,0.345,0.073,0.062,1.21846967915e-07,0.0,0.0,0.0,1.21846967915e-07,0.0,0.0,0.0,1.21846967915e-07,-0.06864655,0.51975245,8.16893945,9e-08,0.0,0.0,0.0,9e-08,0.0,0.0,0.0,9e-08
1538768550184620071,9745,1538768550183993575,base_link,0.0,0.0,0.0,0.0,-1.0,0.0,0.0,0.0,0.0,0.0,0.0,0.0,0.0,0.235,0.074,0.009,1.21846967915e-07,0.0,0.0,0.0,1.21846967915e-07,0.0,0.0,0.0,1.21846967915e-07,-0.0392266,0.42168595,8.36507245,9e-08,0.0,0.0,0.0,9e-08,0.0,0.0,0.0,9e-08
1538768550307465607,9746,1538768550306933575,base_link,0.0,0.0,0.0,0.0,-1.0,0.0,0.0,0.0,0.0,0.0,0.0,0.0,0.0,0.156,0.063,-0.038,1.21846967915e-07,0.0,0.0,0.0,1.21846967915e-07,0.0,0.0,0.0,1.21846967915e-07,-0.0196133,0.3138128,8.6886919,9e-08,0.0,0.0,0.0,9e-08,0.0,0.0,0.0,9e-08
1538768550388693511,9747,1538768550388307751,base_link,0.0,0.0,0.0,0.0,-1.0,0.0,0.0,0.0,0.0,0.0,0.0,0.0,0.0,0.155,0.048,-0.013,1.21846967915e-07,0.0,0.0,0.0,1.21846967915e-07,0.0,0.0,0.0,1.21846967915e-07,0.02941995,0.38245935,9.3947707,9e-08,0.0,0.0,0.0,9e-08,0.0,0.0,0.0,9e-08
1538768550502069191,9748,1538768550496983687,base_link,0.0,0.0,0.0,0.0,-1.0,0.0,0.0,0.0,0.0,0.0,0.0,0.0,0.0,0.157,0.065,-0.014,1.21846967915e-07,0.0,0.0,0.0,1.21846967915e-07,0.0,0.0,0.0,1.21846967915e-07,-0.0784532,0.5687857,9.0809579,9e-08,0.0,0.0,0.0,9e-08,0.0,0.0,0.0,9e-08
1538768550582921767,9749,1538768550582226247,base_link,0.0,0.0,0.0,0.0,-1.0,0.0,0.0,0.0,0.0,0.0,0.0,0.0,0.0,-0.001,0.068,-0.03,1.21846967915e-07,0.0,0.0,0.0,1.21846967915e-07,0.0,0.0,0.0,1.21846967915e-07,-0.0392266,1.06892485,8.77695175,9e-08,0.0,0.0,0.0,9e-08,0.0,0.0,0.0,9e-08
1538768550687265351,9750,1538768550686426151,base_link,0.0,0.0,0.0,0.0,-1.0,0.0,0.0,0.0,0.0,0.0,0.0,0.0,0.0,0.048,0.12,-0.149,1.21846967915e-07,0.0,0.0,0.0,1.21846967915e-07,0.0,0.0,0.0,1.21846967915e-07,-0.1372931,1.06892485,8.0218397,9e-08,0.0,0.0,0.0,9e-08,0.0,0.0,0.0,9e-08
1538768550798343079,9751,1538768550797180071,base_link,0.0,0.0,0.0,0.0,-1.0,0.0,0.0,0.0,0.0,0.0,0.0,0.0,0.0,-0.009,0.115,-0.209,1.21846967915e-07,0.0,0.0,0.0,1.21846967915e-07,0.0,0.0,0.0,1.21846967915e-07,-0.2157463,0.89240515,8.433719,9e-08,0.0,0.0,0.0,9e-08,0.0,0.0,0.0,9e-08
1538768550882484967,9752,1538768550881924519,base_link,0.0,0.0,0.0,0.0,-1.0,0.0,0.0,0.0,0.0,0.0,0.0,0.0,0.0,-0.039,0.13,-0.277,1.21846967915e-07,0.0,0.0,0.0,1.21846967915e-07,0.0,0.0,0.0,1.21846967915e-07,-0.18632635,0.5491724,7.09020795,9e-08,0.0,0.0,0.0,9e-08,0.0,0.0,0.0,9e-08
1538768550976969831,9753,1538768550976414055,base_link,0.0,0.0,0.0,0.0,-1.0,0.0,0.0,0.0,0.0,0.0,0.0,0.0,0.0,0.003,0.113,-0.279,1.21846967915e-07,0.0,0.0,0.0,1.21846967915e-07,0.0,0.0,0.0,1.21846967915e-07,-0.10787315,0.02941995,6.52142225,9e-08,0.0,0.0,0.0,9e-08,0.0,0.0,0.0,9e-08
1538768551127619335,9754,1538768551126441735,base_link,0.0,0.0,0.0,0.0,-1.0,0.0,0.0,0.0,0.0,0.0,0.0,0.0,0.0,0.117,0.04,-0.119,1.21846967915e-07,0.0,0.0,0.0,1.21846967915e-07,0.0,0.0,0.0,1.21846967915e-07,-0.02941995,0.2353596,8.24739265,9e-08,0.0,0.0,0.0,9e-08,0.0,0.0,0.0,9e-08
1538768551184628711,9755,1538768551183936743,base_link,0.0,0.0,0.0,0.0,-1.0,0.0,0.0,0.0,0.0,0.0,0.0,0.0,0.0,0.013,0.024,-0.075,1.21846967915e-07,0.0,0.0,0.0,1.21846967915e-07,0.0,0.0,0.0,1.21846967915e-07,0.0,0.24516625,8.9436648,9e-08,0.0,0.0,0.0,9e-08,0.0,0.0,0.0,9e-08
1538768551297949255,9756,1538768551297385735,base_link,0.0,0.0,0.0,0.0,-1.0,0.0,0.0,0.0,0.0,0.0,0.0,0.0,0.0,0.026,0.004,-0.048,1.21846967915e-07,0.0,0.0,0.0,1.21846967915e-07,0.0,0.0,0.0,1.21846967915e-07,0.0,0.46091255,9.3751574,9e-08,0.0,0.0,0.0,9e-08,0.0,0.0,0.0,9e-08
1538768551391963047,9757,1538768551391317415,base_link,0.0,0.0,0.0,0.0,-1.0,0.0,0.0,0.0,0.0,0.0,0.0,0.0,0.0,-0.177,0.036,-0.051,1.21846967915e-07,0.0,0.0,0.0,1.21846967915e-07,0.0,0.0,0.0,1.21846967915e-07,-0.12748645,0.55897905,7.8845466,9e-08,0.0,0.0,0.0,9e-08,0.0,0.0,0.0,9e-08
1538768551481543367,9758,1538768551481044007,base_link,0.0,0.0,0.0,0.0,-1.0,0.0,0.0,0.0,0.0,0.0,0.0,0.0,0.0,-0.152,0.029,-0.067,1.21846967915e-07,0.0,0.0,0.0,1.21846967915e-07,0.0,0.0,0.0,1.21846967915e-07,-0.04903325,0.6080123,8.5317855,9e-08,0.0,0.0,0.0,9e-08,0.0,0.0,0.0,9e-08
1538768551577511303,9759,1538768551576916103,base_link,0.0,0.0,0.0,0.0,-1.0,0.0,0.0,0.0,0.0,0.0,0.0,0.0,0.0,-0.169,0.024,-0.091,1.21846967915e-07,0.0,0.0,0.0,1.21846967915e-07,0.0,0.0,0.0,1.21846967915e-07,-0.08825985,0.4707192,8.8455983,9e-08,0.0,0.0,0.0,9e-08,0.0,0.0,0.0,9e-08
1538768551704192039,9760,1538768551703433767,base_link,0.0,0.0,0.0,0.0,-1.0,0.0,0.0,0.0,0.0,0.0,0.0,0.0,0.0,-0.167,0.002,-0.076,1.21846967915e-07,0.0,0.0,0.0,1.21846967915e-07,0.0,0.0,0.0,1.21846967915e-07,-0.1176798,0.5491724,8.93385815,9e-08,0.0,0.0,0.0,9e-08,0.0,0.0,0.0,9e-08
1538768551780001863,9761,1538768551779240039,base_link,0.0,0.0,0.0,0.0,-1.0,0.0,0.0,0.0,0.0,0.0,0.0,0.0,0.0,-0.211,0.002,-0.073,1.21846967915e-07,0.0,0.0,0.0,1.21846967915e-07,0.0,0.0,0.0,1.21846967915e-07,-0.1176798,0.6472389,8.54159215,9e-08,0.0,0.0,0.0,9e-08,0.0,0.0,0.0,9e-08
1538768551870981895,9762,1538768551870404967,base_link,0.0,0.0,0.0,0.0,-1.0,0.0,0.0,0.0,0.0,0.0,0.0,0.0,0.0,-0.284,-1.02870331128e-17,-0.084,1.21846967915e-07,0.0,0.0,0.0,1.21846967915e-07,0.0,0.0,0.0,1.21846967915e-07,-0.0980665,0.8041453,9.01231135,9e-08,0.0,0.0,0.0,9e-08,0.0,0.0,0.0,9e-08
1538768551978948167,9763,1538768551978483879,base_link,0.0,0.0,0.0,0.0,-1.0,0.0,0.0,0.0,0.0,0.0,0.0,0.0,0.0,-0.332,-1.56754790291e-17,-0.128,1.21846967915e-07,0.0,0.0,0.0,1.21846967915e-07,0.0,0.0,0.0,1.21846967915e-07,-0.02941995,0.69627215,9.54187045,9e-08,0.0,0.0,0.0,9e-08,0.0,0.0,0.0,9e-08
1538768552084804679,9764,1538768552082652135,base_link,0.0,0.0,0.0,0.0,-1.0,0.0,0.0,0.0,0.0,0.0,0.0,0.0,0.0,-0.333,0.003,-0.157,1.21846967915e-07,0.0,0.0,0.0,1.21846967915e-07,0.0,0.0,0.0,1.21846967915e-07,0.0,0.4903325,9.8262633,9e-08,0.0,0.0,0.0,9e-08,0.0,0.0,0.0,9e-08
1538768552207161991,9765,1538768552206265639,base_link,0.0,0.0,0.0,0.0,-1.0,0.0,0.0,0.0,0.0,0.0,0.0,0.0,0.0,-0.242,-0.009,-0.122,1.21846967915e-07,0.0,0.0,0.0,1.21846967915e-07,0.0,0.0,0.0,1.21846967915e-07,-0.0392266,0.30400615,10.0420096,9e-08,0.0,0.0,0.0,9e-08,0.0,0.0,0.0,9e-08
1538768552299611431,9766,1538768552298487559,base_link,0.0,0.0,0.0,0.0,-1.0,0.0,0.0,0.0,0.0,0.0,0.0,0.0,0.0,-0.3,-0.036,-0.066,1.21846967915e-07,0.0,0.0,0.0,1.21846967915e-07,0.0,0.0,0.0,1.21846967915e-07,-0.0196133,0.4511059,10.11065615,9e-08,0.0,0.0,0.0,9e-08,0.0,0.0,0.0,9e-08
1538768552381902215,9767,1538768552381182375,base_link,0.0,0.0,0.0,0.0,-1.0,0.0,0.0,0.0,0.0,0.0,0.0,0.0,0.0,-0.318,-0.05,-0.051,1.21846967915e-07,0.0,0.0,0.0,1.21846967915e-07,0.0,0.0,0.0,1.21846967915e-07,-0.02941995,0.3530394,10.2381426,9e-08,0.0,0.0,0.0,9e-08,0.0,0.0,0.0,9e-08
1538768552479814407,9768,1538768552477099751,base_link,0.0,0.0,0.0,0.0,-1.0,0.0,0.0,0.0,0.0,0.0,0.0,0.0,0.0,-0.306,-0.071,-0.029,1.21846967915e-07,0.0,0.0,0.0,1.21846967915e-07,0.0,0.0,0.0,1.21846967915e-07,0.04903325,0.3334261,10.8265416,9e-08,0.0,0.0,0.0,9e-08,0.0,0.0,0.0,9e-08
1538768552579240327,9769,1538768552578481255,base_link,0.0,0.0,0.0,0.0,-1.0,0.0,0.0,0.0,0.0,0.0,0.0,0.0,0.0,-0.414,-0.074,0.019,1.21846967915e-07,0.0,0.0,0.0,1.21846967915e-07,0.0,0.0,0.0,1.21846967915e-07,0.0784532,0.4314926,11.18938765,9e-08,0.0,0.0,0.0,9e-08,0.0,0.0,0.0,9e-08
1538768552694548423,9770,1538768552690646567,base_link,0.0,0.0,0.0,0.0,-1.0,0.0,0.0,0.0,0.0,0.0,0.0,0.0,0.0,-0.513,-0.071,0.029,1.21846967915e-07,0.0,0.0,0.0,1.21846967915e-07,0.0,0.0,0.0,1.21846967915e-07,0.14709975,0.4511059,11.1599677,9e-08,0.0,0.0,0.0,9e-08,0.0,0.0,0.0,9e-08
1538768552804721863,9771,1538768552803570535,base_link,0.0,0.0,0.0,0.0,-1.0,0.0,0.0,0.0,0.0,0.0,0.0,0.0,0.0,-0.492,-0.067,0.033,1.21846967915e-07,0.0,0.0,0.0,1.21846967915e-07,0.0,0.0,0.0,1.21846967915e-07,0.0784532,0.2157463,11.11093445,9e-08,0.0,0.0,0.0,9e-08,0.0,0.0,0.0,9e-08
1538768552903228967,9772,1538768552902550695,base_link,0.0,0.0,0.0,0.0,-1.0,0.0,0.0,0.0,0.0,0.0,0.0,0.0,0.0,-0.44,-0.079,0.084,1.21846967915e-07,0.0,0.0,0.0,1.21846967915e-07,0.0,0.0,0.0,1.21846967915e-07,0.1569064,0.2353596,11.07170785,9e-08,0.0,0.0,0.0,9e-08,0.0,0.0,0.0,9e-08
1538768552990116775,9773,1538768552989561031,base_link,0.0,0.0,0.0,0.0,-1.0,0.0,0.0,0.0,0.0,0.0,0.0,0.0,0.0,-0.527,-0.095,0.128,1.21846967915e-07,0.0,0.0,0.0,1.21846967915e-07,0.0,0.0,0.0,1.21846967915e-07,0.0980665,0.32361945,11.2972608,9e-08,0.0,0.0,0.0,9e-08,0.0,0.0,0.0,9e-08
1538768553083947431,9774,1538768553083484743,base_link,0.0,0.0,0.0,0.0,-1.0,0.0,0.0,0.0,0.0,0.0,0.0,0.0,0.0,-0.517,-0.098,0.14,1.21846967915e-07,0.0,0.0,0.0,1.21846967915e-07,0.0,0.0,0.0,1.21846967915e-07,0.08825985,0.1765197,11.22861425,9e-08,0.0,0.0,0.0,9e-08,0.0,0.0,0.0,9e-08
1538768553186590471,9775,1538768553185219815,base_link,0.0,0.0,0.0,0.0,-1.0,0.0,0.0,0.0,0.0,0.0,0.0,0.0,0.0,-0.459,-0.104,0.171,1.21846967915e-07,0.0,0.0,0.0,1.21846967915e-07,0.0,0.0,0.0,1.21846967915e-07,0.14709975,0.28439285,11.15016105,9e-08,0.0,0.0,0.0,9e-08,0.0,0.0,0.0,9e-08
1538768553279535943,9776,1538768553278912423,base_link,0.0,0.0,0.0,0.0,-1.0,0.0,0.0,0.0,0.0,0.0,0.0,0.0,0.0,-0.516,-0.114,0.188,1.21846967915e-07,0.0,0.0,0.0,1.21846967915e-07,0.0,0.0,0.0,1.21846967915e-07,0.20593965,0.196133,11.4737805,9e-08,0.0,0.0,0.0,9e-08,0.0,0.0,0.0,9e-08
1538768553406441639,9777,1538768553405592039,base_link,0.0,0.0,0.0,0.0,-1.0,0.0,0.0,0.0,0.0,0.0,0.0,0.0,0.0,-0.513,-0.12,0.21,1.21846967915e-07,0.0,0.0,0.0,1.21846967915e-07,0.0,0.0,0.0,1.21846967915e-07,0.24516625,0.26477955,11.0226746,9e-08,0.0,0.0,0.0,9e-08,0.0,0.0,0.0,9e-08
1538768553482528583,9778,1538768553481693671,base_link,0.0,0.0,0.0,0.0,-1.0,0.0,0.0,0.0,0.0,0.0,0.0,0.0,0.0,-0.473,-0.118,0.215,1.21846967915e-07,0.0,0.0,0.0,1.21846967915e-07,0.0,0.0,0.0,1.21846967915e-07,0.28439285,0.20593965,11.03248125,9e-08,0.0,0.0,0.0,9e-08,0.0,0.0,0.0,9e-08
1538768553602045735,9779,1538768553601534727,base_link,0.0,0.0,0.0,0.0,-1.0,0.0,0.0,0.0,0.0,0.0,0.0,0.0,0.0,-0.467,-0.133,0.227,1.21846967915e-07,0.0,0.0,0.0,1.21846967915e-07,0.0,0.0,0.0,1.21846967915e-07,0.38245935,0.38245935,11.40513395,9e-08,0.0,0.0,0.0,9e-08,0.0,0.0,0.0,9e-08
1538768553687267623,9780,1538768553686573863,base_link,0.0,0.0,0.0,0.0,-1.0,0.0,0.0,0.0,0.0,0.0,0.0,0.0,0.0,-0.424,-0.122,0.233,1.21846967915e-07,0.0,0.0,0.0,1.21846967915e-07,0.0,0.0,0.0,1.21846967915e-07,0.3530394,0.2745862,11.22861425,9e-08,0.0,0.0,0.0,9e-08,0.0,0.0,0.0,9e-08
1538768553783214279,9781,1538768553782651815,base_link,0.0,0.0,0.0,0.0,-1.0,0.0,0.0,0.0,0.0,0.0,0.0,0.0,0.0,-0.316,-0.122,0.241,1.21846967915e-07,0.0,0.0,0.0,1.21846967915e-07,0.0,0.0,0.0,1.21846967915e-07,0.4314926,0.20593965,10.8853815,9e-08,0.0,0.0,0.0,9e-08,0.0,0.0,0.0,9e-08
1538768553897754695,9782,1538768553897215687,base_link,0.0,0.0,0.0,0.0,-1.0,0.0,0.0,0.0,0.0,0.0,0.0,0.0,0.0,-0.21,-0.139,0.258,1.21846967915e-07,0.0,0.0,0.0,1.21846967915e-07,0.0,0.0,0.0,1.21846967915e-07,0.4118793,0.14709975,11.07170785,9e-08,0.0,0.0,0.0,9e-08,0.0,0.0,0.0,9e-08
1538768554001884263,9783,1538768554001306279,base_link,0.0,0.0,0.0,0.0,-1.0,0.0,0.0,0.0,0.0,0.0,0.0,0.0,0.0,-0.162,-0.182,0.283,1.21846967915e-07,0.0,0.0,0.0,1.21846967915e-07,0.0,0.0,0.0,1.21846967915e-07,0.55897905,0.16671305,11.4345539,9e-08,0.0,0.0,0.0,9e-08,0.0,0.0,0.0,9e-08
1538768554089400327,9784,1538768554088547623,base_link,0.0,0.0,0.0,0.0,-1.0,0.0,0.0,0.0,0.0,0.0,0.0,0.0,0.0,0.002,-0.207,0.292,1.21846967915e-07,0.0,0.0,0.0,1.21846967915e-07,0.0,0.0,0.0,1.21846967915e-07,0.71588545,-0.0784532,12.2386992,9e-08,0.0,0.0,0.0,9e-08,0.0,0.0,0.0,9e-08
1538768554224615879,9785,1538768554222820679,base_link,0.0,0.0,0.0,0.0,-1.0,0.0,0.0,0.0,0.0,0.0,0.0,0.0,0.0,-0.006,-0.225,0.343,1.21846967915e-07,0.0,0.0,0.0,1.21846967915e-07,0.0,0.0,0.0,1.21846967915e-07,0.7453054,-0.0196133,13.48414375,9e-08,0.0,0.0,0.0,9e-08,0.0,0.0,0.0,9e-08
1538768554304958631,9786,1538768554304084007,base_link,0.0,0.0,0.0,0.0,-1.0,0.0,0.0,0.0,0.0,0.0,0.0,0.0,0.0,-0.146,-0.246,0.389,1.21846967915e-07,0.0,0.0,0.0,1.21846967915e-07,0.0,0.0,0.0,1.21846967915e-07,0.85317855,-0.0784532,14.6119085,9e-08,0.0,0.0,0.0,9e-08,0.0,0.0,0.0,9e-08
1538768554379526887,9787,1538768554378839783,base_link,0.0,0.0,0.0,0.0,-1.0,0.0,0.0,0.0,0.0,0.0,0.0,0.0,0.0,-0.242,-0.259,0.417,1.21846967915e-07,0.0,0.0,0.0,1.21846967915e-07,0.0,0.0,0.0,1.21846967915e-07,0.75511205,-0.0588399,14.09215605,9e-08,0.0,0.0,0.0,9e-08,0.0,0.0,0.0,9e-08
1538768554483140551,9788,1538768554482642599,base_link,0.0,0.0,0.0,0.0,-1.0,0.0,0.0,0.0,0.0,0.0,0.0,0.0,0.0,-0.346,-0.27,0.439,1.21846967915e-07,0.0,0.0,0.0,1.21846967915e-07,0.0,0.0,0.0,1.21846967915e-07,0.75511205,0.1176798,13.8077632,9e-08,0.0,0.0,0.0,9e-08,0.0,0.0,0.0,9e-08
1538768554586613767,9789,1538768554585684871,base_link,0.0,0.0,0.0,0.0,-1.0,0.0,0.0,0.0,0.0,0.0,0.0,0.0,0.0,-0.363,-0.295,0.435,1.21846967915e-07,0.0,0.0,0.0,1.21846967915e-07,0.0,0.0,0.0,1.21846967915e-07,0.46091255,0.1372931,12.944778,9e-08,0.0,0.0,0.0,9e-08,0.0,0.0,0.0,9e-08
1538768554713887463,9790,1538768554710805799,base_link,0.0,0.0,0.0,0.0,-1.0,0.0,0.0,0.0,0.0,0.0,0.0,0.0,0.0,-0.294,-0.308,0.404,1.21846967915e-07,0.0,0.0,0.0,1.21846967915e-07,0.0,0.0,0.0,1.21846967915e-07,0.6080123,0.36284605,12.48386545,9e-08,0.0,0.0,0.0,9e-08,0.0,0.0,0.0,9e-08
1538768554783074311,9791,1538768554782618567,base_link,0.0,0.0,0.0,0.0,-1.0,0.0,0.0,0.0,0.0,0.0,0.0,0.0,0.0,-0.158,-0.319,0.366,1.21846967915e-07,0.0,0.0,0.0,1.21846967915e-07,0.0,0.0,0.0,1.21846967915e-07,0.67665885,0.18632635,12.50347875,9e-08,0.0,0.0,0.0,9e-08,0.0,0.0,0.0,9e-08
1538768554882484519,9792,1538768554881872007,base_link,0.0,0.0,0.0,0.0,-1.0,0.0,0.0,0.0,0.0,0.0,0.0,0.0,0.0,-0.141,-0.353,0.327,1.21846967915e-07,0.0,0.0,0.0,1.21846967915e-07,0.0,0.0,0.0,1.21846967915e-07,0.8041453,0.0980665,13.20955755,9e-08,0.0,0.0,0.0,9e-08,0.0,0.0,0.0,9e-08
1538768554995287975,9793,1538768554988405799,base_link,0.0,0.0,0.0,0.0,-1.0,0.0,0.0,0.0,0.0,0.0,0.0,0.0,0.0,-0.127,-0.364,0.334,1.21846967915e-07,0.0,0.0,0.0,1.21846967915e-07,0.0,0.0,0.0,1.21846967915e-07,0.784532,0.1176798,13.50375705,9e-08,0.0,0.0,0.0,9e-08,0.0,0.0,0.0,9e-08
1538768555078214215,9794,1538768555077544871,base_link,0.0,0.0,0.0,0.0,-1.0,0.0,0.0,0.0,0.0,0.0,0.0,0.0,0.0,-0.078,-0.381,0.323,1.21846967915e-07,0.0,0.0,0.0,1.21846967915e-07,0.0,0.0,0.0,1.21846967915e-07,0.91201845,0.0392266,14.60210185,9e-08,0.0,0.0,0.0,9e-08,0.0,0.0,0.0,9e-08
1538768555218209031,9795,1538768555217635783,base_link,0.0,0.0,0.0,0.0,-1.0,0.0,0.0,0.0,0.0,0.0,0.0,0.0,0.0,0.05,-0.385,0.374,1.21846967915e-07,0.0,0.0,0.0,1.21846967915e-07,0.0,0.0,0.0,1.21846967915e-07,1.0198916,-0.3530394,14.1804159,9e-08,0.0,0.0,0.0,9e-08,0.0,0.0,0.0,9e-08
1538768555313599527,9796,1538768555313213511,base_link,0.0,0.0,0.0,0.0,-1.0,0.0,0.0,0.0,0.0,0.0,0.0,0.0,0.0,0.141,-0.397,0.417,1.21846967915e-07,0.0,0.0,0.0,1.21846967915e-07,0.0,0.0,0.0,1.21846967915e-07,1.0787315,-0.28439285,14.0431228,9e-08,0.0,0.0,0.0,9e-08,0.0,0.0,0.0,9e-08
1538768555383156583,9797,1538768555382585447,base_link,0.0,0.0,0.0,0.0,-1.0,0.0,0.0,0.0,0.0,0.0,0.0,0.0,0.0,0.135,-0.408,0.443,1.21846967915e-07,0.0,0.0,0.0,1.21846967915e-07,0.0,0.0,0.0,1.21846967915e-07,1.12776475,0.08825985,14.7492016,9e-08,0.0,0.0,0.0,9e-08,0.0,0.0,0.0,9e-08
1538768555474299591,9798,1538768555471529511,base_link,0.0,0.0,0.0,0.0,-1.0,0.0,0.0,0.0,0.0,0.0,0.0,0.0,0.0,0.005,-0.414,0.465,1.21846967915e-07,0.0,0.0,0.0,1.21846967915e-07,0.0,0.0,0.0,1.21846967915e-07,1.0983448,0.392266,15.2199208,9e-08,0.0,0.0,0.0,9e-08,0.0,0.0,0.0,9e-08
1538768555590711079,9799,1538768555590163975,base_link,0.0,0.0,0.0,0.0,-1.0,0.0,0.0,0.0,0.0,0.0,0.0,0.0,0.0,-0.102,-0.417,0.416,1.21846967915e-07,0.0,0.0,0.0,1.21846967915e-07,0.0,0.0,0.0,1.21846967915e-07,1.1375714,0.3138128,15.11204765,9e-08,0.0,0.0,0.0,9e-08,0.0,0.0,0.0,9e-08
1538768555667825991,9800,1538768555667389799,base_link,0.0,0.0,0.0,0.0,-1.0,0.0,0.0,0.0,0.0,0.0,0.0,0.0,0.0,-0.121,-0.428,0.384,1.21846967915e-07,0.0,0.0,0.0,1.21846967915e-07,0.0,0.0,0.0,1.21846967915e-07,1.06892485,0.36284605,15.4748937,9e-08,0.0,0.0,0.0,9e-08,0.0,0.0,0.0,9e-08
1538768555788964423,9801,1538768555787734759,base_link,0.0,0.0,0.0,0.0,-1.0,0.0,0.0,0.0,0.0,0.0,0.0,0.0,0.0,-0.102,-0.451,0.349,1.21846967915e-07,0.0,0.0,0.0,1.21846967915e-07,0.0,0.0,0.0,1.21846967915e-07,1.22583125,0.30400615,15.2199208,9e-08,0.0,0.0,0.0,9e-08,0.0,0.0,0.0,9e-08
1538768555898272679,9802,1538768555897770727,base_link,0.0,0.0,0.0,0.0,-1.0,0.0,0.0,0.0,0.0,0.0,0.0,0.0,0.0,-0.041,-0.449,0.335,1.21846967915e-07,0.0,0.0,0.0,1.21846967915e-07,0.0,0.0,0.0,1.21846967915e-07,1.30428445,0.2941995,16.68111165,9e-08,0.0,0.0,0.0,9e-08,0.0,0.0,0.0,9e-08
1538768555982303591,9803,1538768555981238663,base_link,0.0,0.0,0.0,0.0,-1.0,0.0,0.0,0.0,0.0,0.0,0.0,0.0,0.0,-0.101,-0.484,0.337,1.21846967915e-07,0.0,0.0,0.0,1.21846967915e-07,0.0,0.0,0.0,1.21846967915e-07,1.3925443,0.28439285,17.4362237,9e-08,0.0,0.0,0.0,9e-08,0.0,0.0,0.0,9e-08
1538768556077278727,9804,1538768556076286983,base_link,0.0,0.0,0.0,0.0,-1.0,0.0,0.0,0.0,0.0,0.0,0.0,0.0,0.0,-0.065,-0.443,0.319,1.21846967915e-07,0.0,0.0,0.0,1.21846967915e-07,0.0,0.0,0.0,1.21846967915e-07,1.14737805,0.1765197,14.513842,9e-08,0.0,0.0,0.0,9e-08,0.0,0.0,0.0,9e-08
1538768556184756839,9805,1538768556183062343,base_link,0.0,0.0,0.0,0.0,-1.0,0.0,0.0,0.0,0.0,0.0,0.0,0.0,0.0,0.074,-0.481,0.27,1.21846967915e-07,0.0,0.0,0.0,1.21846967915e-07,0.0,0.0,0.0,1.21846967915e-07,1.30428445,0.1569064,16.1417459,9e-08,0.0,0.0,0.0,9e-08,0.0,0.0,0.0,9e-08
1538768556268001223,9806,1538768556267509543,base_link,0.0,0.0,0.0,0.0,-1.0,0.0,0.0,0.0,0.0,0.0,0.0,0.0,0.0,0.178,-0.473,0.294,1.21846967915e-07,0.0,0.0,0.0,1.21846967915e-07,0.0,0.0,0.0,1.21846967915e-07,1.32389775,-0.08825985,15.50431365,9e-08,0.0,0.0,0.0,9e-08,0.0,0.0,0.0,9e-08
1538768556384776199,9807,1538768556384235911,base_link,0.0,0.0,0.0,0.0,-1.0,0.0,0.0,0.0,0.0,0.0,0.0,0.0,0.0,0.167,-0.458,0.332,1.21846967915e-07,0.0,0.0,0.0,1.21846967915e-07,0.0,0.0,0.0,1.21846967915e-07,1.30428445,-0.00980665,15.54354025,9e-08,0.0,0.0,0.0,9e-08,0.0,0.0,0.0,9e-08
1538768556485654951,9808,1538768556484872583,base_link,0.0,0.0,0.0,0.0,-1.0,0.0,0.0,0.0,0.0,0.0,0.0,0.0,0.0,0.162,-0.462,0.339,1.21846967915e-07,0.0,0.0,0.0,1.21846967915e-07,0.0,0.0,0.0,1.21846967915e-07,1.2356379,-0.06864655,15.34740725,9e-08,0.0,0.0,0.0,9e-08,0.0,0.0,0.0,9e-08
1538768556568661095,9809,1538768556567077191,base_link,0.0,0.0,0.0,0.0,-1.0,0.0,0.0,0.0,0.0,0.0,0.0,0.0,0.0,0.296,-0.479,0.347,1.21846967915e-07,0.0,0.0,0.0,1.21846967915e-07,0.0,0.0,0.0,1.21846967915e-07,1.2552512,-0.0980665,16.7301449,9e-08,0.0,0.0,0.0,9e-08,0.0,0.0,0.0,9e-08
1538768556678844231,9810,1538768556675987015,base_link,0.0,0.0,0.0,0.0,-1.0,0.0,0.0,0.0,0.0,0.0,0.0,0.0,0.0,0.215,-0.448,0.379,1.21846967915e-07,0.0,0.0,0.0,1.21846967915e-07,0.0,0.0,0.0,1.21846967915e-07,1.1571847,0.1176798,17.01453775,9e-08,0.0,0.0,0.0,9e-08,0.0,0.0,0.0,9e-08
1538768556795256263,9811,1538768556794722407,base_link,0.0,0.0,0.0,0.0,-1.0,0.0,0.0,0.0,0.0,0.0,0.0,0.0,0.0,0.364,-0.428,0.357,1.21846967915e-07,0.0,0.0,0.0,1.21846967915e-07,0.0,0.0,0.0,1.21846967915e-07,1.12776475,0.22555295,17.5146769,9e-08,0.0,0.0,0.0,9e-08,0.0,0.0,0.0,9e-08
1538768556884834823,9812,1538768556884314279,base_link,0.0,0.0,0.0,0.0,-1.0,0.0,0.0,0.0,0.0,0.0,0.0,0.0,0.0,0.246,-0.394,0.389,1.21846967915e-07,0.0,0.0,0.0,1.21846967915e-07,0.0,0.0,0.0,1.21846967915e-07,1.18660465,-0.02941995,18.044236,9e-08,0.0,0.0,0.0,9e-08,0.0,0.0,0.0,9e-08
1538768556981949319,9813,1538768556980662503,base_link,0.0,0.0,0.0,0.0,-1.0,0.0,0.0,0.0,0.0,0.0,0.0,0.0,0.0,0.346,-0.362,0.387,1.21846967915e-07,0.0,0.0,0.0,1.21846967915e-07,0.0,0.0,0.0,1.21846967915e-07,0.85317855,0.10787315,16.5143986,9e-08,0.0,0.0,0.0,9e-08,0.0,0.0,0.0,9e-08
1538768557087085671,9814,1538768557086330727,base_link,0.0,0.0,0.0,0.0,-1.0,0.0,0.0,0.0,0.0,0.0,0.0,0.0,0.0,0.328,-0.314,0.351,1.21846967915e-07,0.0,0.0,0.0,1.21846967915e-07,0.0,0.0,0.0,1.21846967915e-07,0.63743225,0.5099458,14.48442205,9e-08,0.0,0.0,0.0,9e-08,0.0,0.0,0.0,9e-08
1538768557182768903,9815,1538768557182325863,base_link,0.0,0.0,0.0,0.0,-1.0,0.0,0.0,0.0,0.0,0.0,0.0,0.0,0.0,0.133,-0.338,0.233,1.21846967915e-07,0.0,0.0,0.0,1.21846967915e-07,0.0,0.0,0.0,1.21846967915e-07,0.588399,0.3530394,15.38663385,9e-08,0.0,0.0,0.0,9e-08,0.0,0.0,0.0,9e-08
1538768557288503271,9816,1538768557286884135,base_link,0.0,0.0,0.0,0.0,-1.0,0.0,0.0,0.0,0.0,0.0,0.0,0.0,0.0,0.329,-0.272,0.233,1.21846967915e-07,0.0,0.0,0.0,1.21846967915e-07,0.0,0.0,0.0,1.21846967915e-07,0.2941995,0.4511059,15.42586045,9e-08,0.0,0.0,0.0,9e-08,0.0,0.0,0.0,9e-08
1538768557378498375,9817,1538768557378101415,base_link,0.0,0.0,0.0,0.0,-1.0,0.0,0.0,0.0,0.0,0.0,0.0,0.0,0.0,0.314,-0.251,0.195,1.21846967915e-07,0.0,0.0,0.0,1.21846967915e-07,0.0,0.0,0.0,1.21846967915e-07,0.5099458,0.0588399,15.69064,9e-08,0.0,0.0,0.0,9e-08,0.0,0.0,0.0,9e-08
1538768557477869191,9818,1538768557476925319,base_link,0.0,0.0,0.0,0.0,-1.0,0.0,0.0,0.0,0.0,0.0,0.0,0.0,0.0,0.468,-0.21,0.181,1.21846967915e-07,0.0,0.0,0.0,1.21846967915e-07,0.0,0.0,0.0,1.21846967915e-07,0.30400615,-0.8237586,14.03331615,9e-08,0.0,0.0,0.0,9e-08,0.0,0.0,0.0,9e-08
1538768557578461287,9819,1538768557578147207,base_link,0.0,0.0,0.0,0.0,-1.0,0.0,0.0,0.0,0.0,0.0,0.0,0.0,0.0,0.626,-0.163,0.336,1.21846967915e-07,0.0,0.0,0.0,1.21846967915e-07,0.0,0.0,0.0,1.21846967915e-07,0.0196133,-0.5687857,14.20983585,9e-08,0.0,0.0,0.0,9e-08,0.0,0.0,0.0,9e-08
1538768557684969511,9820,1538768557684347879,base_link,0.0,0.0,0.0,0.0,-1.0,0.0,0.0,0.0,0.0,0.0,0.0,0.0,0.0,0.921,-0.085,0.413,1.21846967915e-07,0.0,0.0,0.0,1.21846967915e-07,0.0,0.0,0.0,1.21846967915e-07,-0.1372931,0.24516625,11.2384209,9e-08,0.0,0.0,0.0,9e-08,0.0,0.0,0.0,9e-08
1538768557807559463,9821,1538768557807006439,base_link,0.0,0.0,0.0,0.0,-1.0,0.0,0.0,0.0,0.0,0.0,0.0,0.0,0.0,0.759,-0.082,0.338,1.21846967915e-07,0.0,0.0,0.0,1.21846967915e-07,0.0,0.0,0.0,1.21846967915e-07,-0.2157463,0.9610517,11.2776475,9e-08,0.0,0.0,0.0,9e-08,0.0,0.0,0.0,9e-08
1538768557884971335,9822,1538768557884470023,base_link,0.0,0.0,0.0,0.0,-1.0,0.0,0.0,0.0,0.0,0.0,0.0,0.0,0.0,0.652,-0.041,0.13,1.21846967915e-07,0.0,0.0,0.0,1.21846967915e-07,0.0,0.0,0.0,1.21846967915e-07,-0.14709975,0.6276256,10.983448,9e-08,0.0,0.0,0.0,9e-08,0.0,0.0,0.0,9e-08
1538768557984507879,9823,1538768557983532743,base_link,0.0,0.0,0.0,0.0,-1.0,0.0,0.0,0.0,0.0,0.0,0.0,0.0,0.0,0.686,-0.01,0.089,1.21846967915e-07,0.0,0.0,0.0,1.21846967915e-07,0.0,0.0,0.0,1.21846967915e-07,-0.2157463,0.588399,10.6696352,9e-08,0.0,0.0,0.0,9e-08,0.0,0.0,0.0,9e-08
1538768558076662631,9824,1538768558072862567,base_link,0.0,0.0,0.0,0.0,-1.0,0.0,0.0,0.0,0.0,0.0,0.0,0.0,0.0,0.556,9.06238631369e-18,0.074,1.21846967915e-07,0.0,0.0,0.0,1.21846967915e-07,0.0,0.0,0.0,1.21846967915e-07,-0.2353596,0.38245935,10.89518815,9e-08,0.0,0.0,0.0,9e-08,0.0,0.0,0.0,9e-08
1538768558188741127,9825,1538768558188252487,base_link,0.0,0.0,0.0,0.0,-1.0,0.0,0.0,0.0,0.0,0.0,0.0,0.0,0.0,0.547,0.058,0.057,1.21846967915e-07,0.0,0.0,0.0,1.21846967915e-07,0.0,0.0,0.0,1.21846967915e-07,-0.24516625,0.71588545,9.99297635,9e-08,0.0,0.0,0.0,9e-08,0.0,0.0,0.0,9e-08
1538768558294673991,9826,1538768558294019719,base_link,0.0,0.0,0.0,0.0,-1.0,0.0,0.0,0.0,0.0,0.0,0.0,0.0,0.0,0.425,0.076,-0.018,1.21846967915e-07,0.0,0.0,0.0,1.21846967915e-07,0.0,0.0,0.0,1.21846967915e-07,-0.30400615,0.51975245,9.16921775,9e-08,0.0,0.0,0.0,9e-08,0.0,0.0,0.0,9e-08
1538768558443894247,9827,1538768558442689607,base_link,0.0,0.0,0.0,0.0,-1.0,0.0,0.0,0.0,0.0,0.0,0.0,0.0,0.0,0.255,0.065,-0.049,1.21846967915e-07,0.0,0.0,0.0,1.21846967915e-07,0.0,0.0,0.0,1.21846967915e-07,-0.3138128,0.3530394,10.0223963,9e-08,0.0,0.0,0.0,9e-08,0.0,0.0,0.0,9e-08
1538768558487323271,9828,1538768558486721607,base_link,0.0,0.0,0.0,0.0,-1.0,0.0,0.0,0.0,0.0,0.0,0.0,0.0,0.0,0.239,0.083,-0.05,1.21846967915e-07,0.0,0.0,0.0,1.21846967915e-07,0.0,0.0,0.0,1.21846967915e-07,-0.3334261,0.34323275,9.48303055,9e-08,0.0,0.0,0.0,9e-08,0.0,0.0,0.0,9e-08
1538768558594382439,9829,1538768558592313447,base_link,0.0,0.0,0.0,0.0,-1.0,0.0,0.0,0.0,0.0,0.0,0.0,0.0,0.0,0.177,0.131,-0.049,1.21846967915e-07,0.0,0.0,0.0,1.21846967915e-07,0.0,0.0,0.0,1.21846967915e-07,-0.4314926,0.0784532,7.5315072,9e-08,0.0,0.0,0.0,9e-08,0.0,0.0,0.0,9e-08
1538768558699117543,9830,1538768558696796423,base_link,0.0,0.0,0.0,0.0,-1.0,0.0,0.0,0.0,0.0,0.0,0.0,0.0,0.0,0.097,0.129,-0.02,1.21846967915e-07,0.0,0.0,0.0,1.21846967915e-07,0.0,0.0,0.0,1.21846967915e-07,-0.4903325,0.2745862,5.46230405,9e-08,0.0,0.0,0.0,9e-08,0.0,0.0,0.0,9e-08
1538768558829948775,9831,1538768558829430087,base_link,0.0,0.0,0.0,0.0,-1.0,0.0,0.0,0.0,0.0,0.0,0.0,0.0,0.0,0.154,0.128,-0.031,1.21846967915e-07,0.0,0.0,0.0,1.21846967915e-07,0.0,0.0,0.0,1.21846967915e-07,-0.50013915,0.2941995,5.4132708,9e-08,0.0,0.0,0.0,9e-08,0.0,0.0,0.0,9e-08
1538768558887750951,9832,1538768558885829159,base_link,0.0,0.0,0.0,0.0,-1.0,0.0,0.0,0.0,0.0,0.0,0.0,0.0,0.0,0.157,0.122,-0.048,1.21846967915e-07,0.0,0.0,0.0,1.21846967915e-07,0.0,0.0,0.0,1.21846967915e-07,-0.5099458,0.20593965,6.12915625,9e-08,0.0,0.0,0.0,9e-08,0.0,0.0,0.0,9e-08
1538768559018963879,9833,1538768559018276551,base_link,0.0,0.0,0.0,0.0,-1.0,0.0,0.0,0.0,0.0,0.0,0.0,0.0,0.0,0.145,0.141,-0.038,1.21846967915e-07,0.0,0.0,0.0,1.21846967915e-07,0.0,0.0,0.0,1.21846967915e-07,-0.6276256,0.0588399,6.0212831,9e-08,0.0,0.0,0.0,9e-08,0.0,0.0,0.0,9e-08
1538768559116554823,9834,1538768559115656967,base_link,0.0,0.0,0.0,0.0,-1.0,0.0,0.0,0.0,0.0,0.0,0.0,0.0,0.0,0.27,0.141,-0.008,1.21846967915e-07,0.0,0.0,0.0,1.21846967915e-07,0.0,0.0,0.0,1.21846967915e-07,-0.61781895,-0.10787315,5.57998385,9e-08,0.0,0.0,0.0,9e-08,0.0,0.0,0.0,9e-08
1538768559187366119,9835,1538768559186955463,base_link,0.0,0.0,0.0,0.0,-1.0,0.0,0.0,0.0,0.0,0.0,0.0,0.0,0.0,0.137,0.137,0.037,1.21846967915e-07,0.0,0.0,0.0,1.21846967915e-07,0.0,0.0,0.0,1.21846967915e-07,-0.6864655,0.40207265,5.59959715,9e-08,0.0,0.0,0.0,9e-08,0.0,0.0,0.0,9e-08
1538768559286947943,9836,1538768559286450855,base_link,0.0,0.0,0.0,0.0,-1.0,0.0,0.0,0.0,0.0,0.0,0.0,0.0,0.0,-0.103,0.106,-1.2981256071e-17,1.21846967915e-07,0.0,0.0,0.0,1.21846967915e-07,0.0,0.0,0.0,1.21846967915e-07,-0.4707192,0.2549729,7.12943455,9e-08,0.0,0.0,0.0,9e-08,0.0,0.0,0.0,9e-08
1538768559384049127,9837,1538768559380333959,base_link,0.0,0.0,0.0,0.0,-1.0,0.0,0.0,0.0,0.0,0.0,0.0,0.0,0.0,0.068,0.101,-1.23689326714e-17,1.21846967915e-07,0.0,0.0,0.0,1.21846967915e-07,0.0,0.0,0.0,1.21846967915e-07,-0.63743225,0.38245935,9.1986377,9e-08,0.0,0.0,0.0,9e-08,0.0,0.0,0.0,9e-08
1538768559496913255,9838,1538768559494244039,base_link,0.0,0.0,0.0,0.0,-1.0,0.0,0.0,0.0,0.0,0.0,0.0,0.0,0.0,0.076,0.142,0.009,1.21846967915e-07,0.0,0.0,0.0,1.21846967915e-07,0.0,0.0,0.0,1.21846967915e-07,-0.63743225,0.2549729,7.79628675,9e-08,0.0,0.0,0.0,9e-08,0.0,0.0,0.0,9e-08
1538768559586863367,9839,1538768559586114599,base_link,0.0,0.0,0.0,0.0,-1.0,0.0,0.0,0.0,0.0,0.0,0.0,0.0,0.0,0.189,0.152,-0.014,1.21846967915e-07,0.0,0.0,0.0,1.21846967915e-07,0.0,0.0,0.0,1.21846967915e-07,-0.6864655,0.588399,6.10954295,9e-08,0.0,0.0,0.0,9e-08,0.0,0.0,0.0,9e-08
1538768559673579655,9840,1538768559669158055,base_link,0.0,0.0,0.0,0.0,-1.0,0.0,0.0,0.0,0.0,0.0,0.0,0.0,0.0,-0.148,0.079,-0.031,1.21846967915e-07,0.0,0.0,0.0,1.21846967915e-07,0.0,0.0,0.0,1.21846967915e-07,-0.5295591,0.61781895,6.95291485,9e-08,0.0,0.0,0.0,9e-08,0.0,0.0,0.0,9e-08
1538768559790009991,9841,1538768559789127111,base_link,0.0,0.0,0.0,0.0,-1.0,0.0,0.0,0.0,0.0,0.0,0.0,0.0,0.0,-0.368,0.047,-0.054,1.21846967915e-07,0.0,0.0,0.0,1.21846967915e-07,0.0,0.0,0.0,1.21846967915e-07,-0.53936575,0.63743225,9.89490985,9e-08,0.0,0.0,0.0,9e-08,0.0,0.0,0.0,9e-08
1538768559886980935,9842,1538768559886111367,base_link,0.0,0.0,0.0,0.0,-1.0,0.0,0.0,0.0,0.0,0.0,0.0,0.0,0.0,-0.416,0.116,-0.086,1.21846967915e-07,0.0,0.0,0.0,1.21846967915e-07,0.0,0.0,0.0,1.21846967915e-07,-0.59820565,0.4118793,8.65927195,9e-08,0.0,0.0,0.0,9e-08,0.0,0.0,0.0,9e-08
1538768559996270311,9843,1538768559995641415,base_link,0.0,0.0,0.0,0.0,-1.0,0.0,0.0,0.0,0.0,0.0,0.0,0.0,0.0,-0.415,0.117,-0.057,1.21846967915e-07,0.0,0.0,0.0,1.21846967915e-07,0.0,0.0,0.0,1.21846967915e-07,-0.55897905,0.4118793,8.11009955,9e-08,0.0,0.0,0.0,9e-08,0.0,0.0,0.0,9e-08
1538768560080090023,9844,1538768560079205479,base_link,0.0,0.0,0.0,0.0,-1.0,0.0,0.0,0.0,0.0,0.0,0.0,0.0,0.0,-0.459,0.057,-0.082,1.21846967915e-07,0.0,0.0,0.0,1.21846967915e-07,0.0,0.0,0.0,1.21846967915e-07,-0.784532,0.4314926,9.1986377,9e-08,0.0,0.0,0.0,9e-08,0.0,0.0,0.0,9e-08
1538768560198672647,9845,1538768560198082631,base_link,0.0,0.0,0.0,0.0,-1.0,0.0,0.0,0.0,0.0,0.0,0.0,0.0,0.0,-0.104,0.032,-0.098,1.21846967915e-07,0.0,0.0,0.0,1.21846967915e-07,0.0,0.0,0.0,1.21846967915e-07,-0.7060788,-0.04903325,7.93357985,9e-08,0.0,0.0,0.0,9e-08,0.0,0.0,0.0,9e-08
1538768560300449799,9846,1538768560299964167,base_link,0.0,0.0,0.0,0.0,-1.0,0.0,0.0,0.0,0.0,0.0,0.0,0.0,0.0,0.11,0.041,-0.086,1.21846967915e-07,0.0,0.0,0.0,1.21846967915e-07,0.0,0.0,0.0,1.21846967915e-07,-0.784532,0.38245935,7.54131385,9e-08,0.0,0.0,0.0,9e-08,0.0,0.0,0.0,9e-08
1538768560398595111,9847,1538768560398241767,base_link,0.0,0.0,0.0,0.0,-1.0,0.0,0.0,0.0,0.0,0.0,0.0,0.0,0.0,-0.036,0.004,-0.046,1.21846967915e-07,0.0,0.0,0.0,1.21846967915e-07,0.0,0.0,0.0,1.21846967915e-07,-0.81395195,-0.0392266,8.3748791,9e-08,0.0,0.0,0.0,9e-08,0.0,0.0,0.0,9e-08
1538768560478337223,9848,1538768560476701223,base_link,0.0,0.0,0.0,0.0,-1.0,0.0,0.0,0.0,0.0,0.0,0.0,0.0,0.0,-0.08,0.008,-9.79717439318e-19,1.21846967915e-07,0.0,0.0,0.0,1.21846967915e-07,0.0,0.0,0.0,1.21846967915e-07,-0.8629852,0.00980665,8.09048625,9e-08,0.0,0.0,0.0,9e-08,0.0,0.0,0.0,9e-08
1538768560571377799,9849,1538768560570687815,base_link,0.0,0.0,0.0,0.0,-1.0,0.0,0.0,0.0,0.0,0.0,0.0,0.0,0.0,-0.098,-0.024,0.046,1.21846967915e-07,0.0,0.0,0.0,1.21846967915e-07,0.0,0.0,0.0,1.21846967915e-07,-0.9022118,0.18632635,9.0025047,9e-08,0.0,0.0,0.0,9e-08,0.0,0.0,0.0,9e-08
1538768560681373639,9850,1538768560680146631,base_link,0.0,0.0,0.0,0.0,-1.0,0.0,0.0,0.0,0.0,0.0,0.0,0.0,0.0,-0.099,-0.021,0.055,1.21846967915e-07,0.0,0.0,0.0,1.21846967915e-07,0.0,0.0,0.0,1.21846967915e-07,-0.784532,0.16671305,8.9436648,9e-08,0.0,0.0,0.0,9e-08,0.0,0.0,0.0,9e-08
1538768560794167143,9851,1538768560792278631,base_link,0.0,0.0,0.0,0.0,-1.0,0.0,0.0,0.0,0.0,0.0,0.0,0.0,0.0,-0.165,-0.018,0.049,1.21846967915e-07,0.0,0.0,0.0,1.21846967915e-07,0.0,0.0,0.0,1.21846967915e-07,-0.7256921,0.4511059,9.0809579,9e-08,0.0,0.0,0.0,9e-08,0.0,0.0,0.0,9e-08
1538768560921337895,9852,1538768560920563975,base_link,0.0,0.0,0.0,0.0,-1.0,0.0,0.0,0.0,0.0,0.0,0.0,0.0,0.0,-0.244,-0.021,0.032,1.21846967915e-07,0.0,0.0,0.0,1.21846967915e-07,0.0,0.0,0.0,1.21846967915e-07,-0.69627215,0.4511059,9.0809579,9e-08,0.0,0.0,0.0,9e-08,0.0,0.0,0.0,9e-08
1538768560986629959,9853,1538768560986059175,base_link,0.0,0.0,0.0,0.0,-1.0,0.0,0.0,0.0,0.0,0.0,0.0,0.0,0.0,-0.118,-0.035,0.005,1.21846967915e-07,0.0,0.0,0.0,1.21846967915e-07,0.0,0.0,0.0,1.21846967915e-07,-0.55897905,0.5099458,9.48303055,9e-08,0.0,0.0,0.0,9e-08,0.0,0.0,0.0,9e-08
1538768561090676583,9854,1538768561090094855,base_link,0.0,0.0,0.0,0.0,-1.0,0.0,0.0,0.0,0.0,0.0,0.0,0.0,0.0,-0.091,-0.052,-0.022,1.21846967915e-07,0.0,0.0,0.0,1.21846967915e-07,0.0,0.0,0.0,1.21846967915e-07,-0.59820565,0.5687857,9.89490985,9e-08,0.0,0.0,0.0,9e-08,0.0,0.0,0.0,9e-08
1538768561187303527,9855,1538768561186575367,base_link,0.0,0.0,0.0,0.0,-1.0,0.0,0.0,0.0,0.0,0.0,0.0,0.0,0.0,-0.022,-0.052,-0.04,1.21846967915e-07,0.0,0.0,0.0,1.21846967915e-07,0.0,0.0,0.0,1.21846967915e-07,-0.55897905,0.2353596,10.7284751,9e-08,0.0,0.0,0.0,9e-08,0.0,0.0,0.0,9e-08
1538768561259611911,9856,1538768561258979175,base_link,0.0,0.0,0.0,0.0,-1.0,0.0,0.0,0.0,0.0,0.0,0.0,0.0,0.0,0.005,-0.061,0.006,1.21846967915e-07,0.0,0.0,0.0,1.21846967915e-07,0.0,0.0,0.0,1.21846967915e-07,-0.5687857,0.5295591,11.3168741,9e-08,0.0,0.0,0.0,9e-08,0.0,0.0,0.0,9e-08
1538768561416239943,9857,1538768561414981287,base_link,0.0,0.0,0.0,0.0,-1.0,0.0,0.0,0.0,0.0,0.0,0.0,0.0,0.0,-0.111,-0.04,0.015,1.21846967915e-07,0.0,0.0,0.0,1.21846967915e-07,0.0,0.0,0.0,1.21846967915e-07,-0.5491724,0.53936575,10.52253545,9e-08,0.0,0.0,0.0,9e-08,0.0,0.0,0.0,9e-08
1538768561484645319,9858,1538768561483700647,base_link,0.0,0.0,0.0,0.0,-1.0,0.0,0.0,0.0,0.0,0.0,0.0,0.0,0.0,-0.092,-0.048,0.004,1.21846967915e-07,0.0,0.0,0.0,1.21846967915e-07,0.0,0.0,0.0,1.21846967915e-07,-0.48052585,0.3726527,10.5519554,9e-08,0.0,0.0,0.0,9e-08,0.0,0.0,0.0,9e-08
1538768561581042247,9859,1538768561575777287,base_link,0.0,0.0,0.0,0.0,-1.0,0.0,0.0,0.0,0.0,0.0,0.0,0.0,0.0,-0.118,-0.081,0.004,1.21846967915e-07,0.0,0.0,0.0,1.21846967915e-07,0.0,0.0,0.0,1.21846967915e-07,-0.40207265,0.1176798,11.8660465,9e-08,0.0,0.0,0.0,9e-08,0.0,0.0,0.0,9e-08
1538768561686364039,9860,1538768561685311559,base_link,0.0,0.0,0.0,0.0,-1.0,0.0,0.0,0.0,0.0,0.0,0.0,0.0,0.0,0.006,-0.072,0.038,1.21846967915e-07,0.0,0.0,0.0,1.21846967915e-07,0.0,0.0,0.0,1.21846967915e-07,-0.36284605,0.2549729,11.76798,9e-08,0.0,0.0,0.0,9e-08,0.0,0.0,0.0,9e-08
1538768561787814727,9861,1538768561787163751,base_link,0.0,0.0,0.0,0.0,-1.0,0.0,0.0,0.0,0.0,0.0,0.0,0.0,0.0,0.14,-0.056,0.066,1.21846967915e-07,0.0,0.0,0.0,1.21846967915e-07,0.0,0.0,0.0,1.21846967915e-07,-0.392266,0.2745862,11.179581,9e-08,0.0,0.0,0.0,9e-08,0.0,0.0,0.0,9e-08
1538768561886568391,9862,1538768561885939207,base_link,0.0,0.0,0.0,0.0,-1.0,0.0,0.0,0.0,0.0,0.0,0.0,0.0,0.0,0.104,-0.042,0.071,1.21846967915e-07,0.0,0.0,0.0,1.21846967915e-07,0.0,0.0,0.0,1.21846967915e-07,-0.42168595,0.588399,9.99297635,9e-08,0.0,0.0,0.0,9e-08,0.0,0.0,0.0,9e-08
1538768561988663911,9863,1538768561977027975,base_link,0.0,0.0,0.0,0.0,-1.0,0.0,0.0,0.0,0.0,0.0,0.0,0.0,0.0,-0.045,-0.053,0.053,1.21846967915e-07,0.0,0.0,0.0,1.21846967915e-07,0.0,0.0,0.0,1.21846967915e-07,-0.48052585,0.4903325,9.1986377,9e-08,0.0,0.0,0.0,9e-08,0.0,0.0,0.0,9e-08
1538768562076192231,9864,1538768562075466311,base_link,0.0,0.0,0.0,0.0,-1.0,0.0,0.0,0.0,0.0,0.0,0.0,0.0,0.0,-0.054,-0.072,0.03,1.21846967915e-07,0.0,0.0,0.0,1.21846967915e-07,0.0,0.0,0.0,1.21846967915e-07,-0.4314926,0.34323275,10.4735022,9e-08,0.0,0.0,0.0,9e-08,0.0,0.0,0.0,9e-08
1538768562195629127,9865,1538768562194677543,base_link,0.0,0.0,0.0,0.0,-1.0,0.0,0.0,0.0,0.0,0.0,0.0,0.0,0.0,-0.172,-0.073,0.029,1.21846967915e-07,0.0,0.0,0.0,1.21846967915e-07,0.0,0.0,0.0,1.21846967915e-07,-0.44129925,0.32361945,10.81673495,9e-08,0.0,0.0,0.0,9e-08,0.0,0.0,0.0,9e-08
1538768562274099559,9866,1538768562273118471,base_link,0.0,0.0,0.0,0.0,-1.0,0.0,0.0,0.0,0.0,0.0,0.0,0.0,0.0,-0.044,-0.099,0.035,1.21846967915e-07,0.0,0.0,0.0,1.21846967915e-07,0.0,0.0,0.0,1.21846967915e-07,-0.38245935,0.18632635,11.03248125,9e-08,0.0,0.0,0.0,9e-08,0.0,0.0,0.0,9e-08
1538768562408960231,9867,1538768562407057415,base_link,0.0,0.0,0.0,0.0,-1.0,0.0,0.0,0.0,0.0,0.0,0.0,0.0,0.0,0.018,-0.124,0.06,1.21846967915e-07,0.0,0.0,0.0,1.21846967915e-07,0.0,0.0,0.0,1.21846967915e-07,-0.26477955,0.2157463,12.67999845,9e-08,0.0,0.0,0.0,9e-08,0.0,0.0,0.0,9e-08
1538768562498060679,9868,1538768562497023527,base_link,0.0,0.0,0.0,0.0,-1.0,0.0,0.0,0.0,0.0,0.0,0.0,0.0,0.0,0.083,-0.121,0.077,1.21846967915e-07,0.0,0.0,0.0,1.21846967915e-07,0.0,0.0,0.0,1.21846967915e-07,-0.32361945,0.3726527,12.44463885,9e-08,0.0,0.0,0.0,9e-08,0.0,0.0,0.0,9e-08
1538768562591260455,9869,1538768562590200871,base_link,0.0,0.0,0.0,0.0,-1.0,0.0,0.0,0.0,0.0,0.0,0.0,0.0,0.0,-0.033,-0.124,0.083,1.21846967915e-07,0.0,0.0,0.0,1.21846967915e-07,0.0,0.0,0.0,1.21846967915e-07,-0.22555295,0.5491724,12.95458465,9e-08,0.0,0.0,0.0,9e-08,0.0,0.0,0.0,9e-08
1538768562685291015,9870,1538768562683951495,base_link,0.0,0.0,0.0,0.0,-1.0,0.0,0.0,0.0,0.0,0.0,0.0,0.0,0.0,-0.191,-0.143,0.061,1.21846967915e-07,0.0,0.0,0.0,1.21846967915e-07,0.0,0.0,0.0,1.21846967915e-07,-0.16671305,0.4118793,13.6312435,9e-08,0.0,0.0,0.0,9e-08,0.0,0.0,0.0,9e-08
1538768562764176615,9871,1538768562763292039,base_link,0.0,0.0,0.0,0.0,-1.0,0.0,0.0,0.0,0.0,0.0,0.0,0.0,0.0,-0.139,-0.131,0.063,1.21846967915e-07,0.0,0.0,0.0,1.21846967915e-07,0.0,0.0,0.0,1.21846967915e-07,-0.08825985,0.38245935,13.56259695,9e-08,0.0,0.0,0.0,9e-08,0.0,0.0,0.0,9e-08
1538768562909763623,9872,1538768562909065031,base_link,0.0,0.0,0.0,0.0,-1.0,0.0,0.0,0.0,0.0,0.0,0.0,0.0,0.0,0.126,-0.055,0.053,1.21846967915e-07,0.0,0.0,0.0,1.21846967915e-07,0.0,0.0,0.0,1.21846967915e-07,-0.18632635,0.5687857,12.09159945,9e-08,0.0,0.0,0.0,9e-08,0.0,0.0,0.0,9e-08
1538768562987363367,9873,1538768562986939623,base_link,0.0,0.0,0.0,0.0,-1.0,0.0,0.0,0.0,0.0,0.0,0.0,0.0,0.0,0.194,-0.055,0.035,1.21846967915e-07,0.0,0.0,0.0,1.21846967915e-07,0.0,0.0,0.0,1.21846967915e-07,-0.1765197,0.44129925,11.66010685,9e-08,0.0,0.0,0.0,9e-08,0.0,0.0,0.0,9e-08
1538768563103298759,9874,1538768563102062631,base_link,0.0,0.0,0.0,0.0,-1.0,0.0,0.0,0.0,0.0,0.0,0.0,0.0,0.0,0.116,-0.042,0.032,1.21846967915e-07,0.0,0.0,0.0,1.21846967915e-07,0.0,0.0,0.0,1.21846967915e-07,-0.12748645,0.4707192,10.56176205,9e-08,0.0,0.0,0.0,9e-08,0.0,0.0,0.0,9e-08
1538768563194166343,9875,1538768563191469639,base_link,0.0,0.0,0.0,0.0,-1.0,0.0,0.0,0.0,0.0,0.0,0.0,0.0,0.0,0.067,-0.06,0.024,1.21846967915e-07,0.0,0.0,0.0,1.21846967915e-07,0.0,0.0,0.0,1.21846967915e-07,-0.10787315,0.196133,11.09132115,9e-08,0.0,0.0,0.0,9e-08,0.0,0.0,0.0,9e-08
1538768563300429831,9876,1538768563299193831,base_link,0.0,0.0,0.0,0.0,-1.0,0.0,0.0,0.0,0.0,0.0,0.0,0.0,0.0,0.067,-0.059,0.031,1.21846967915e-07,0.0,0.0,0.0,1.21846967915e-07,0.0,0.0,0.0,1.21846967915e-07,-0.08825985,0.1765197,11.24822755,9e-08,0.0,0.0,0.0,9e-08,0.0,0.0,0.0,9e-08
1538768563417263175,9877,1538768563416849607,base_link,0.0,0.0,0.0,0.0,-1.0,0.0,0.0,0.0,0.0,0.0,0.0,0.0,0.0,0.119,-0.023,0.074,1.21846967915e-07,0.0,0.0,0.0,1.21846967915e-07,0.0,0.0,0.0,1.21846967915e-07,-0.1176798,0.24516625,11.5522337,9e-08,0.0,0.0,0.0,9e-08,0.0,0.0,0.0,9e-08
1538768563496864423,9878,1538768563496194535,base_link,0.0,0.0,0.0,0.0,-1.0,0.0,0.0,0.0,0.0,0.0,0.0,0.0,0.0,0.098,-0.016,0.103,1.21846967915e-07,0.0,0.0,0.0,1.21846967915e-07,0.0,0.0,0.0,1.21846967915e-07,-0.04903325,0.2157463,11.2972608,9e-08,0.0,0.0,0.0,9e-08,0.0,0.0,0.0,9e-08
1538768563589993959,9879,1538768563589058151,base_link,0.0,0.0,0.0,0.0,-1.0,0.0,0.0,0.0,0.0,0.0,0.0,0.0,0.0,0.225,0.02,0.097,1.21846967915e-07,0.0,0.0,0.0,1.21846967915e-07,0.0,0.0,0.0,1.21846967915e-07,-0.1372931,0.42168595,9.6497436,9e-08,0.0,0.0,0.0,9e-08,0.0,0.0,0.0,9e-08
1538768563694708519,9880,1538768563690833959,base_link,0.0,0.0,0.0,0.0,-1.0,0.0,0.0,0.0,0.0,0.0,0.0,0.0,0.0,0.073,9.42978035343e-18,0.077,1.21846967915e-07,0.0,0.0,0.0,1.21846967915e-07,0.0,0.0,0.0,1.21846967915e-07,-0.1372931,0.5687857,9.65955025,9e-08,0.0,0.0,0.0,9e-08,0.0,0.0,0.0,9e-08
1538768563813716551,9881,1538768563813053927,base_link,0.0,0.0,0.0,0.0,-1.0,0.0,0.0,0.0,0.0,0.0,0.0,0.0,0.0,0.061,0.018,0.018,1.21846967915e-07,0.0,0.0,0.0,1.21846967915e-07,0.0,0.0,0.0,1.21846967915e-07,-0.0784532,0.51975245,9.8851032,9e-08,0.0,0.0,0.0,9e-08,0.0,0.0,0.0,9e-08
1538768563912121287,9882,1538768563907728135,base_link,0.0,0.0,0.0,0.0,-1.0,0.0,0.0,0.0,0.0,0.0,0.0,0.0,0.0,0.185,0.003,-0.001,1.21846967915e-07,0.0,0.0,0.0,1.21846967915e-07,0.0,0.0,0.0,1.21846967915e-07,-0.02941995,0.36284605,10.8265416,9e-08,0.0,0.0,0.0,9e-08,0.0,0.0,0.0,9e-08
1538768563995711047,9883,1538768563994679911,base_link,0.0,0.0,0.0,0.0,-1.0,0.0,0.0,0.0,0.0,0.0,0.0,0.0,0.0,0.142,0.011,0.012,1.21846967915e-07,0.0,0.0,0.0,1.21846967915e-07,0.0,0.0,0.0,1.21846967915e-07,-0.02941995,0.4707192,10.16949605,9e-08,0.0,0.0,0.0,9e-08,0.0,0.0,0.0,9e-08
1538768564096780903,9884,1538768564095991463,base_link,0.0,0.0,0.0,0.0,-1.0,0.0,0.0,0.0,0.0,0.0,0.0,0.0,0.0,0.133,0.029,0.013,1.21846967915e-07,0.0,0.0,0.0,1.21846967915e-07,0.0,0.0,0.0,1.21846967915e-07,-0.08825985,0.588399,9.34573745,9e-08,0.0,0.0,0.0,9e-08,0.0,0.0,0.0,9e-08
1538768564214516935,9885,1538768564213503815,base_link,0.0,0.0,0.0,0.0,-1.0,0.0,0.0,0.0,0.0,0.0,0.0,0.0,0.0,0.008,0.036,-0.02,1.21846967915e-07,0.0,0.0,0.0,1.21846967915e-07,0.0,0.0,0.0,1.21846967915e-07,-0.1569064,0.57859235,9.022118,9e-08,0.0,0.0,0.0,9e-08,0.0,0.0,0.0,9e-08
1538768564299439239,9886,1538768564298385895,base_link,0.0,0.0,0.0,0.0,-1.0,0.0,0.0,0.0,0.0,0.0,0.0,0.0,0.0,-0.015,0.022,-0.044,1.21846967915e-07,0.0,0.0,0.0,1.21846967915e-07,0.0,0.0,0.0,1.21846967915e-07,-0.0784532,0.588399,8.95347145,9e-08,0.0,0.0,0.0,9e-08,0.0,0.0,0.0,9e-08
1538768564417223111,9887,1538768564416709863,base_link,0.0,0.0,0.0,0.0,-1.0,0.0,0.0,0.0,0.0,0.0,0.0,0.0,0.0,-0.009,0.041,-0.061,1.21846967915e-07,0.0,0.0,0.0,1.21846967915e-07,0.0,0.0,0.0,1.21846967915e-07,-0.06864655,0.61781895,8.65927195,9e-08,0.0,0.0,0.0,9e-08,0.0,0.0,0.0,9e-08
1538768564513905639,9888,1538768564501386247,base_link,0.0,0.0,0.0,0.0,-1.0,0.0,0.0,0.0,0.0,0.0,0.0,0.0,0.0,-0.011,0.038,-0.075,1.21846967915e-07,0.0,0.0,0.0,1.21846967915e-07,0.0,0.0,0.0,1.21846967915e-07,-0.0784532,0.46091255,8.6690786,9e-08,0.0,0.0,0.0,9e-08,0.0,0.0,0.0,9e-08
1538768564630823815,9889,1538768564625374119,base_link,0.0,0.0,0.0,0.0,-1.0,0.0,0.0,0.0,0.0,0.0,0.0,0.0,0.0,0.054,0.042,-0.092,1.21846967915e-07,0.0,0.0,0.0,1.21846967915e-07,0.0,0.0,0.0,1.21846967915e-07,-0.0980665,0.36284605,8.5710121,9e-08,0.0,0.0,0.0,9e-08,0.0,0.0,0.0,9e-08
1538768564689848583,9890,1538768564689329255,base_link,0.0,0.0,0.0,0.0,-1.0,0.0,0.0,0.0,0.0,0.0,0.0,0.0,0.0,0.064,0.039,-0.093,1.21846967915e-07,0.0,0.0,0.0,1.21846967915e-07,0.0,0.0,0.0,1.21846967915e-07,-0.10787315,0.2549729,8.48275225,9e-08,0.0,0.0,0.0,9e-08,0.0,0.0,0.0,9e-08
1538768564798460743,9891,1538768564797099079,base_link,0.0,0.0,0.0,0.0,-1.0,0.0,0.0,0.0,0.0,0.0,0.0,0.0,0.0,0.092,0.048,-0.086,1.21846967915e-07,0.0,0.0,0.0,1.21846967915e-07,0.0,0.0,0.0,1.21846967915e-07,-0.0392266,0.196133,8.3552658,9e-08,0.0,0.0,0.0,9e-08,0.0,0.0,0.0,9e-08
1538768564885222599,9892,1538768564884710119,base_link,0.0,0.0,0.0,0.0,-1.0,0.0,0.0,0.0,0.0,0.0,0.0,0.0,0.0,0.088,0.017,-0.064,1.21846967915e-07,0.0,0.0,0.0,1.21846967915e-07,0.0,0.0,0.0,1.21846967915e-07,-0.06864655,0.2745862,8.69849855,9e-08,0.0,0.0,0.0,9e-08,0.0,0.0,0.0,9e-08
1538768564991132263,9893,1538768564988924103,base_link,0.0,0.0,0.0,0.0,-1.0,0.0,0.0,0.0,0.0,0.0,0.0,0.0,0.0,0.133,0.008,-0.05,1.21846967915e-07,0.0,0.0,0.0,1.21846967915e-07,0.0,0.0,0.0,1.21846967915e-07,-0.0392266,0.36284605,8.9240515,9e-08,0.0,0.0,0.0,9e-08,0.0,0.0,0.0,9e-08
1538768565124810823,9894,1538768565123583911,base_link,0.0,0.0,0.0,0.0,-1.0,0.0,0.0,0.0,0.0,0.0,0.0,0.0,0.0,0.099,-0.002,-0.031,1.21846967915e-07,0.0,0.0,0.0,1.21846967915e-07,0.0,0.0,0.0,1.21846967915e-07,-0.00980665,0.2745862,9.3359308,9e-08,0.0,0.0,0.0,9e-08,0.0,0.0,0.0,9e-08
1538768565186356679,9895,1538768565185834023,base_link,0.0,0.0,0.0,0.0,-1.0,0.0,0.0,0.0,0.0,0.0,0.0,0.0,0.0,0.195,-0.01,-0.023,1.21846967915e-07,0.0,0.0,0.0,1.21846967915e-07,0.0,0.0,0.0,1.21846967915e-07,-0.08825985,0.36284605,9.63993695,9e-08,0.0,0.0,0.0,9e-08,0.0,0.0,0.0,9e-08
1538768565275024935,9896,1538768565274441095,base_link,0.0,0.0,0.0,0.0,-1.0,0.0,0.0,0.0,0.0,0.0,0.0,0.0,0.0,0.206,-0.036,-0.007,1.21846967915e-07,0.0,0.0,0.0,1.21846967915e-07,0.0,0.0,0.0,1.21846967915e-07,0.0,0.3726527,10.2969825,9e-08,0.0,0.0,0.0,9e-08,0.0,0.0,0.0,9e-08
1538768565416368871,9897,1538768565415881159,base_link,0.0,0.0,0.0,0.0,-1.0,0.0,0.0,0.0,0.0,0.0,0.0,0.0,0.0,-0.017,-0.048,-0.014,1.21846967915e-07,0.0,0.0,0.0,1.21846967915e-07,0.0,0.0,0.0,1.21846967915e-07,0.02941995,0.40207265,10.5715687,9e-08,0.0,0.0,0.0,9e-08,0.0,0.0,0.0,9e-08
1538768565517619911,9898,1538768565512222279,base_link,0.0,0.0,0.0,0.0,-1.0,0.0,0.0,0.0,0.0,0.0,0.0,0.0,0.0,-0.084,-0.045,-0.015,1.21846967915e-07,0.0,0.0,0.0,1.21846967915e-07,0.0,0.0,0.0,1.21846967915e-07,0.0196133,0.44129925,10.1596894,9e-08,0.0,0.0,0.0,9e-08,0.0,0.0,0.0,9e-08
1538768565584425191,9899,1538768565579539527,base_link,0.0,0.0,0.0,0.0,-1.0,0.0,0.0,0.0,0.0,0.0,0.0,0.0,0.0,-0.052,-0.046,-0.011,1.21846967915e-07,0.0,0.0,0.0,1.21846967915e-07,0.0,0.0,0.0,1.21846967915e-07,0.04903325,0.5687857,10.3754357,9e-08,0.0,0.0,0.0,9e-08,0.0,0.0,0.0,9e-08
1538768565708479943,9900,1538768565707365383,base_link,0.0,0.0,0.0,0.0,-1.0,0.0,0.0,0.0,0.0,0.0,0.0,0.0,0.0,-0.055,-0.055,-0.032,1.21846967915e-07,0.0,0.0,0.0,1.21846967915e-07,0.0,0.0,0.0,1.21846967915e-07,0.10787315,0.53936575,11.0815145,9e-08,0.0,0.0,0.0,9e-08,0.0,0.0,0.0,9e-08
1538768565789707815,9901,1538768565789053575,base_link,0.0,0.0,0.0,0.0,-1.0,0.0,0.0,0.0,0.0,0.0,0.0,0.0,0.0,-0.123,-0.059,-0.049,1.21846967915e-07,0.0,0.0,0.0,1.21846967915e-07,0.0,0.0,0.0,1.21846967915e-07,0.196133,0.6080123,11.0619012,9e-08,0.0,0.0,0.0,9e-08,0.0,0.0,0.0,9e-08
1538768565897085063,9902,1538768565896540903,base_link,0.0,0.0,0.0,0.0,-1.0,0.0,0.0,0.0,0.0,0.0,0.0,0.0,0.0,-0.133,-0.049,-0.054,1.21846967915e-07,0.0,0.0,0.0,1.21846967915e-07,0.0,0.0,0.0,1.21846967915e-07,0.2353596,0.6864655,11.26784085,9e-08,0.0,0.0,0.0,9e-08,0.0,0.0,0.0,9e-08
1538768566019533991,9903,1538768566018803623,base_link,0.0,0.0,0.0,0.0,-1.0,0.0,0.0,0.0,0.0,0.0,0.0,0.0,0.0,-0.165,-0.027,-0.059,1.21846967915e-07,0.0,0.0,0.0,1.21846967915e-07,0.0,0.0,0.0,1.21846967915e-07,0.196133,0.55897905,10.8657682,9e-08,0.0,0.0,0.0,9e-08,0.0,0.0,0.0,9e-08
1538768566096192583,9904,1538768566095089351,base_link,0.0,0.0,0.0,0.0,-1.0,0.0,0.0,0.0,0.0,0.0,0.0,0.0,0.0,-0.135,-0.037,-0.063,1.21846967915e-07,0.0,0.0,0.0,1.21846967915e-07,0.0,0.0,0.0,1.21846967915e-07,0.22555295,0.4118793,10.97364135,9e-08,0.0,0.0,0.0,9e-08,0.0,0.0,0.0,9e-08
1538768566222475367,9905,1538768566221928615,base_link,0.0,0.0,0.0,0.0,-1.0,0.0,0.0,0.0,0.0,0.0,0.0,0.0,0.0,-0.107,-0.039,-0.034,1.21846967915e-07,0.0,0.0,0.0,1.21846967915e-07,0.0,0.0,0.0,1.21846967915e-07,0.2353596,0.5491724,10.95402805,9e-08,0.0,0.0,0.0,9e-08,0.0,0.0,0.0,9e-08
1538768566277482151,9906,1538768566276748039,base_link,0.0,0.0,0.0,0.0,-1.0,0.0,0.0,0.0,0.0,0.0,0.0,0.0,0.0,-0.165,-0.048,-0.032,1.21846967915e-07,0.0,0.0,0.0,1.21846967915e-07,0.0,0.0,0.0,1.21846967915e-07,0.20593965,0.50013915,10.4342756,9e-08,0.0,0.0,0.0,9e-08,0.0,0.0,0.0,9e-08
1538768566406310791,9907,1538768566405569031,base_link,0.0,0.0,0.0,0.0,-1.0,0.0,0.0,0.0,0.0,0.0,0.0,0.0,0.0,-0.072,-0.001,-0.046,1.21846967915e-07,0.0,0.0,0.0,1.21846967915e-07,0.0,0.0,0.0,1.21846967915e-07,0.20593965,0.32361945,10.05181625,9e-08,0.0,0.0,0.0,9e-08,0.0,0.0,0.0,9e-08
1538768566479216071,9908,1538768566478568839,base_link,0.0,0.0,0.0,0.0,-1.0,0.0,0.0,0.0,0.0,0.0,0.0,0.0,0.0,0.004,-0.011,-0.035,1.21846967915e-07,0.0,0.0,0.0,1.21846967915e-07,0.0,0.0,0.0,1.21846967915e-07,0.2549729,0.2941995,10.64021525,9e-08,0.0,0.0,0.0,9e-08,0.0,0.0,0.0,9e-08
1538768566588203815,9909,1538768566587542343,base_link,0.0,0.0,0.0,0.0,-1.0,0.0,0.0,0.0,0.0,0.0,0.0,0.0,0.0,0.02,-0.021,2.57175827821e-18,1.21846967915e-07,0.0,0.0,0.0,1.21846967915e-07,0.0,0.0,0.0,1.21846967915e-07,0.22555295,0.28439285,10.9049948,9e-08,0.0,0.0,0.0,9e-08,0.0,0.0,0.0,9e-08
1538768566692324039,9910,1538768566691673287,base_link,0.0,0.0,0.0,0.0,-1.0,0.0,0.0,0.0,0.0,0.0,0.0,0.0,0.0,-0.04,-0.001,0.029,1.21846967915e-07,0.0,0.0,0.0,1.21846967915e-07,0.0,0.0,0.0,1.21846967915e-07,0.2157463,0.4511059,10.4931155,9e-08,0.0,0.0,0.0,9e-08,0.0,0.0,0.0,9e-08
1538768566782508231,9911,1538768566781939847,base_link,0.0,0.0,0.0,0.0,-1.0,0.0,0.0,0.0,0.0,0.0,0.0,0.0,0.0,-0.086,0.009,0.013,1.21846967915e-07,0.0,0.0,0.0,1.21846967915e-07,0.0,0.0,0.0,1.21846967915e-07,0.1765197,0.46091255,9.97336305,9e-08,0.0,0.0,0.0,9e-08,0.0,0.0,0.0,9e-08
1538768566890923879,9912,1538768566889082695,base_link,0.0,0.0,0.0,0.0,-1.0,0.0,0.0,0.0,0.0,0.0,0.0,0.0,0.0,-0.081,-0.003,-0.01,1.21846967915e-07,0.0,0.0,0.0,1.21846967915e-07,0.0,0.0,0.0,1.21846967915e-07,0.2353596,0.28439285,10.5715687,9e-08,0.0,0.0,0.0,9e-08,0.0,0.0,0.0,9e-08
1538768566993717735,9913,1538768566992108775,base_link,0.0,0.0,0.0,0.0,-1.0,0.0,0.0,0.0,0.0,0.0,0.0,0.0,0.0,-0.05,-0.003,0.029,1.21846967915e-07,0.0,0.0,0.0,1.21846967915e-07,0.0,0.0,0.0,1.21846967915e-07,0.196133,0.4903325,10.26756255,9e-08,0.0,0.0,0.0,9e-08,0.0,0.0,0.0,9e-08
1538768567079922375,9914,1538768567078612231,base_link,0.0,0.0,0.0,0.0,-1.0,0.0,0.0,0.0,0.0,0.0,0.0,0.0,0.0,-0.023,-0.011,0.015,1.21846967915e-07,0.0,0.0,0.0,1.21846967915e-07,0.0,0.0,0.0,1.21846967915e-07,0.18632635,0.48052585,10.50292215,9e-08,0.0,0.0,0.0,9e-08,0.0,0.0,0.0,9e-08
1538768567176638439,9915,1538768567175019367,base_link,0.0,0.0,0.0,0.0,-1.0,0.0,0.0,0.0,0.0,0.0,0.0,0.0,0.0,-0.019,-0.004,4.89858719659e-19,1.21846967915e-07,0.0,0.0,0.0,1.21846967915e-07,0.0,0.0,0.0,1.21846967915e-07,0.196133,0.4511059,10.2773692,9e-08,0.0,0.0,0.0,9e-08,0.0,0.0,0.0,9e-08
1538768567275258727,9916,1538768567274380327,base_link,0.0,0.0,0.0,0.0,-1.0,0.0,0.0,0.0,0.0,0.0,0.0,0.0,0.0,-0.068,-0.002,2.44929359829e-19,1.21846967915e-07,0.0,0.0,0.0,1.21846967915e-07,0.0,0.0,0.0,1.21846967915e-07,0.18632635,0.42168595,10.13026945,9e-08,0.0,0.0,0.0,9e-08,0.0,0.0,0.0,9e-08
1538768567396724743,9917,1538768567395930791,base_link,0.0,0.0,0.0,0.0,-1.0,0.0,0.0,0.0,0.0,0.0,0.0,0.0,0.0,-0.03,0.001,-0.001,1.21846967915e-07,0.0,0.0,0.0,1.21846967915e-07,0.0,0.0,0.0,1.21846967915e-07,0.22555295,0.59820565,10.11065615,9e-08,0.0,0.0,0.0,9e-08,0.0,0.0,0.0,9e-08
1538768567499174887,9918,1538768567497641735,base_link,0.0,0.0,0.0,0.0,-1.0,0.0,0.0,0.0,0.0,0.0,0.0,0.0,0.0,-0.08,0.007,-0.004,1.21846967915e-07,0.0,0.0,0.0,1.21846967915e-07,0.0,0.0,0.0,1.21846967915e-07,0.1569064,0.5295591,9.99297635,9e-08,0.0,0.0,0.0,9e-08,0.0,0.0,0.0,9e-08
1538768567600625991,9919,1538768567599322791,base_link,0.0,0.0,0.0,0.0,-1.0,0.0,0.0,0.0,0.0,0.0,0.0,0.0,0.0,-0.076,0.01,-0.016,1.21846967915e-07,0.0,0.0,0.0,1.21846967915e-07,0.0,0.0,0.0,1.21846967915e-07,0.196133,0.4511059,9.6889702,9e-08,0.0,0.0,0.0,9e-08,0.0,0.0,0.0,9e-08
1538768567664590951,9920,1538768567663600039,base_link,0.0,0.0,0.0,0.0,-1.0,0.0,0.0,0.0,0.0,0.0,0.0,0.0,0.0,-0.11,0.006,-0.012,1.21846967915e-07,0.0,0.0,0.0,1.21846967915e-07,0.0,0.0,0.0,1.21846967915e-07,0.10787315,0.40207265,9.48303055,9e-08,0.0,0.0,0.0,9e-08,0.0,0.0,0.0,9e-08
1538768567838241799,9921,1538768567836896423,base_link,0.0,0.0,0.0,0.0,-1.0,0.0,0.0,0.0,0.0,0.0,0.0,0.0,0.0,-0.092,0.008,-0.001,1.21846967915e-07,0.0,0.0,0.0,1.21846967915e-07,0.0,0.0,0.0,1.21846967915e-07,0.22555295,0.48052585,9.7870367,9e-08,0.0,0.0,0.0,9e-08,0.0,0.0,0.0,9e-08
1538768567886729511,9922,1538768567886172423,base_link,0.0,0.0,0.0,0.0,-1.0,0.0,0.0,0.0,0.0,0.0,0.0,0.0,0.0,-0.067,0.019,-0.001,1.21846967915e-07,0.0,0.0,0.0,1.21846967915e-07,0.0,0.0,0.0,1.21846967915e-07,0.14709975,0.5295591,9.4339973,9e-08,0.0,0.0,0.0,9e-08,0.0,0.0,0.0,9e-08
1538768567973996391,9923,1538768567972924519,base_link,0.0,0.0,0.0,0.0,-1.0,0.0,0.0,0.0,0.0,0.0,0.0,0.0,0.0,-0.036,0.026,-0.016,1.21846967915e-07,0.0,0.0,0.0,1.21846967915e-07,0.0,0.0,0.0,1.21846967915e-07,0.1372931,0.73549875,9.2574776,9e-08,0.0,0.0,0.0,9e-08,0.0,0.0,0.0,9e-08
1538768568086834055,9924,1538768568086278727,base_link,0.0,0.0,0.0,0.0,-1.0,0.0,0.0,0.0,0.0,0.0,0.0,0.0,0.0,-0.148,0.026,-0.055,1.21846967915e-07,0.0,0.0,0.0,1.21846967915e-07,0.0,0.0,0.0,1.21846967915e-07,0.1765197,0.77472535,9.44380395,9e-08,0.0,0.0,0.0,9e-08,0.0,0.0,0.0,9e-08
1538768568189240327,9925,1538768568182893223,base_link,0.0,0.0,0.0,0.0,-1.0,0.0,0.0,0.0,0.0,0.0,0.0,0.0,0.0,-0.099,0.03,-0.088,1.21846967915e-07,0.0,0.0,0.0,1.21846967915e-07,0.0,0.0,0.0,1.21846967915e-07,0.16671305,0.51975245,9.50264385,9e-08,0.0,0.0,0.0,9e-08,0.0,0.0,0.0,9e-08
1538768568316395367,9926,1538768568315654823,base_link,0.0,0.0,0.0,0.0,-1.0,0.0,0.0,0.0,0.0,0.0,0.0,0.0,0.0,-0.106,0.017,-0.083,1.21846967915e-07,0.0,0.0,0.0,1.21846967915e-07,0.0,0.0,0.0,1.21846967915e-07,0.30400615,0.5099458,10.2773692,9e-08,0.0,0.0,0.0,9e-08,0.0,0.0,0.0,9e-08
1538768568399952743,9927,1538768568399085991,base_link,0.0,0.0,0.0,0.0,-1.0,0.0,0.0,0.0,0.0,0.0,0.0,0.0,0.0,-0.114,0.022,-0.072,1.21846967915e-07,0.0,0.0,0.0,1.21846967915e-07,0.0,0.0,0.0,1.21846967915e-07,0.22555295,0.20593965,9.7674234,9e-08,0.0,0.0,0.0,9e-08,0.0,0.0,0.0,9e-08
1538768568481751431,9928,1538768568477789927,base_link,0.0,0.0,0.0,0.0,-1.0,0.0,0.0,0.0,0.0,0.0,0.0,0.0,0.0,-0.02,0.026,-0.043,1.21846967915e-07,0.0,0.0,0.0,1.21846967915e-07,0.0,0.0,0.0,1.21846967915e-07,0.2157463,0.40207265,9.60071035,9e-08,0.0,0.0,0.0,9e-08,0.0,0.0,0.0,9e-08
1538768568643471527,9929,1538768568642803303,base_link,0.0,0.0,0.0,0.0,-1.0,0.0,0.0,0.0,0.0,0.0,0.0,0.0,0.0,-0.149,-2.08189955855e-18,-0.017,1.21846967915e-07,0.0,0.0,0.0,1.21846967915e-07,0.0,0.0,0.0,1.21846967915e-07,0.3138128,0.34323275,10.4146623,9e-08,0.0,0.0,0.0,9e-08,0.0,0.0,0.0,9e-08
1538768568669703559,9930,1538768568669241671,base_link,0.0,0.0,0.0,0.0,-1.0,0.0,0.0,0.0,0.0,0.0,0.0,0.0,0.0,-0.127,-0.006,-0.002,1.21846967915e-07,0.0,0.0,0.0,1.21846967915e-07,0.0,0.0,0.0,1.21846967915e-07,0.38245935,0.2745862,10.56176205,9e-08,0.0,0.0,0.0,9e-08,0.0,0.0,0.0,9e-08
1538768568789015111,9931,1538768568784936551,base_link,0.0,0.0,0.0,0.0,-1.0,0.0,0.0,0.0,0.0,0.0,0.0,0.0,0.0,-0.05,0.001,0.015,1.21846967915e-07,0.0,0.0,0.0,1.21846967915e-07,0.0,0.0,0.0,1.21846967915e-07,0.3726527,0.36284605,10.56176205,9e-08,0.0,0.0,0.0,9e-08,0.0,0.0,0.0,9e-08
1538768568891408327,9932,1538768568890733031,base_link,0.0,0.0,0.0,0.0,-1.0,0.0,0.0,0.0,0.0,0.0,0.0,0.0,0.0,0.204,0.043,0.022,1.21846967915e-07,0.0,0.0,0.0,1.21846967915e-07,0.0,0.0,0.0,1.21846967915e-07,0.392266,0.24516625,9.91452315,9e-08,0.0,0.0,0.0,9e-08,0.0,0.0,0.0,9e-08
1538768568988469127,9933,1538768568984467591,base_link,0.0,0.0,0.0,0.0,-1.0,0.0,0.0,0.0,0.0,0.0,0.0,0.0,0.0,0.195,0.024,0.041,1.21846967915e-07,0.0,0.0,0.0,1.21846967915e-07,0.0,0.0,0.0,1.21846967915e-07,0.36284605,0.0784532,9.54187045,9e-08,0.0,0.0,0.0,9e-08,0.0,0.0,0.0,9e-08
1538768569111027143,9934,1538768569110436391,base_link,0.0,0.0,0.0,0.0,-1.0,0.0,0.0,0.0,0.0,0.0,0.0,0.0,0.0,0.231,0.05,0.119,1.21846967915e-07,0.0,0.0,0.0,1.21846967915e-07,0.0,0.0,0.0,1.21846967915e-07,0.2549729,0.06864655,7.2765343,9e-08,0.0,0.0,0.0,9e-08,0.0,0.0,0.0,9e-08
1538768569194336295,9935,1538768569192117095,base_link,0.0,0.0,0.0,0.0,-1.0,0.0,0.0,0.0,0.0,0.0,0.0,0.0,0.0,0.302,0.051,0.118,1.21846967915e-07,0.0,0.0,0.0,1.21846967915e-07,0.0,0.0,0.0,1.21846967915e-07,0.2353596,0.1569064,8.16893945,9e-08,0.0,0.0,0.0,9e-08,0.0,0.0,0.0,9e-08
1538768569295352935,9936,1538768569294682343,base_link,0.0,0.0,0.0,0.0,-1.0,0.0,0.0,0.0,0.0,0.0,0.0,0.0,0.0,0.266,-0.007,0.15,1.21846967915e-07,0.0,0.0,0.0,1.21846967915e-07,0.0,0.0,0.0,1.21846967915e-07,0.3334261,0.5491724,9.2574776,9e-08,0.0,0.0,0.0,9e-08,0.0,0.0,0.0,9e-08
1538768569402848775,9937,1538768569391902471,base_link,0.0,0.0,0.0,0.0,-1.0,0.0,0.0,0.0,0.0,0.0,0.0,0.0,0.0,0.05,1.34711147906e-17,0.11,1.21846967915e-07,0.0,0.0,0.0,1.21846967915e-07,0.0,0.0,0.0,1.21846967915e-07,0.2157463,0.91201845,9.5516771,9e-08,0.0,0.0,0.0,9e-08,0.0,0.0,0.0,9e-08
1538768569506139559,9938,1538768569505509831,base_link,0.0,0.0,0.0,0.0,-1.0,0.0,0.0,0.0,0.0,0.0,0.0,0.0,0.0,-0.05,-0.002,0.026,1.21846967915e-07,0.0,0.0,0.0,1.21846967915e-07,0.0,0.0,0.0,1.21846967915e-07,0.28439285,1.02969825,10.05181625,9e-08,0.0,0.0,0.0,9e-08,0.0,0.0,0.0,9e-08
1538768569610573959,9939,1538768569609980967,base_link,0.0,0.0,0.0,0.0,-1.0,0.0,0.0,0.0,0.0,0.0,0.0,0.0,0.0,-0.076,0.002,-0.089,1.21846967915e-07,0.0,0.0,0.0,1.21846967915e-07,0.0,0.0,0.0,1.21846967915e-07,0.34323275,0.8237586,9.97336305,9e-08,0.0,0.0,0.0,9e-08,0.0,0.0,0.0,9e-08
1538768569695181319,9940,1538768569691149607,base_link,0.0,0.0,0.0,0.0,-1.0,0.0,0.0,0.0,0.0,0.0,0.0,0.0,0.0,-0.035,0.009,-0.138,1.21846967915e-07,0.0,0.0,0.0,1.21846967915e-07,0.0,0.0,0.0,1.21846967915e-07,0.30400615,0.71588545,10.3165958,9e-08,0.0,0.0,0.0,9e-08,0.0,0.0,0.0,9e-08
1538768569798700135,9941,1538768569794318247,base_link,0.0,0.0,0.0,0.0,-1.0,0.0,0.0,0.0,0.0,0.0,0.0,0.0,0.0,0.099,-0.003,-0.157,1.21846967915e-07,0.0,0.0,0.0,1.21846967915e-07,0.0,0.0,0.0,1.21846967915e-07,0.2549729,0.48052585,10.0616229,9e-08,0.0,0.0,0.0,9e-08,0.0,0.0,0.0,9e-08
1538768569884457703,9942,1538768569883758791,base_link,0.0,0.0,0.0,0.0,-1.0,0.0,0.0,0.0,0.0,0.0,0.0,0.0,0.0,0.176,-0.007,-0.138,1.21846967915e-07,0.0,0.0,0.0,1.21846967915e-07,0.0,0.0,0.0,1.21846967915e-07,0.18632635,0.5295591,9.1201845,9e-08,0.0,0.0,0.0,9e-08,0.0,0.0,0.0,9e-08
1538768569983035047,9943,1538768569982638887,base_link,0.0,0.0,0.0,0.0,-1.0,0.0,0.0,0.0,0.0,0.0,0.0,0.0,0.0,0.022,-0.044,-0.117,1.21846967915e-07,0.0,0.0,0.0,1.21846967915e-07,0.0,0.0,0.0,1.21846967915e-07,0.28439285,0.4707192,10.0616229,9e-08,0.0,0.0,0.0,9e-08,0.0,0.0,0.0,9e-08
1538768570089769735,9944,1538768570089044615,base_link,0.0,0.0,0.0,0.0,-1.0,0.0,0.0,0.0,0.0,0.0,0.0,0.0,0.0,-0.014,-0.051,-0.113,1.21846967915e-07,0.0,0.0,0.0,1.21846967915e-07,0.0,0.0,0.0,1.21846967915e-07,0.30400615,0.42168595,10.50292215,9e-08,0.0,0.0,0.0,9e-08,0.0,0.0,0.0,9e-08
1538768570179569895,9945,1538768570179018855,base_link,0.0,0.0,0.0,0.0,-1.0,0.0,0.0,0.0,0.0,0.0,0.0,0.0,0.0,0.062,-0.034,-0.085,1.21846967915e-07,0.0,0.0,0.0,1.21846967915e-07,0.0,0.0,0.0,1.21846967915e-07,0.34323275,0.392266,9.79684335,9e-08,0.0,0.0,0.0,9e-08,0.0,0.0,0.0,9e-08
1538768570288510983,9946,1538768570287609415,base_link,0.0,0.0,0.0,0.0,-1.0,0.0,0.0,0.0,0.0,0.0,0.0,0.0,0.0,0.131,-0.045,-0.065,1.21846967915e-07,0.0,0.0,0.0,1.21846967915e-07,0.0,0.0,0.0,1.21846967915e-07,0.32361945,0.1176798,10.4146623,9e-08,0.0,0.0,0.0,9e-08,0.0,0.0,0.0,9e-08
1538768570384874727,9947,1538768570382747783,base_link,0.0,0.0,0.0,0.0,-1.0,0.0,0.0,0.0,0.0,0.0,0.0,0.0,0.0,0.134,-0.067,-0.008,1.21846967915e-07,0.0,0.0,0.0,1.21846967915e-07,0.0,0.0,0.0,1.21846967915e-07,0.36284605,0.16671305,10.5127288,9e-08,0.0,0.0,0.0,9e-08,0.0,0.0,0.0,9e-08
1538768570496625383,9948,1538768570495723719,base_link,0.0,0.0,0.0,0.0,-1.0,0.0,0.0,0.0,0.0,0.0,0.0,0.0,0.0,0.094,-0.075,0.04,1.21846967915e-07,0.0,0.0,0.0,1.21846967915e-07,0.0,0.0,0.0,1.21846967915e-07,0.3334261,0.28439285,10.4146623,9e-08,0.0,0.0,0.0,9e-08,0.0,0.0,0.0,9e-08
1538768570618652103,9949,1538768570617547143,base_link,0.0,0.0,0.0,0.0,-1.0,0.0,0.0,0.0,0.0,0.0,0.0,0.0,0.0,-0.077,-0.072,0.057,1.21846967915e-07,0.0,0.0,0.0,1.21846967915e-07,0.0,0.0,0.0,1.21846967915e-07,0.38245935,0.4314926,10.5715687,9e-08,0.0,0.0,0.0,9e-08,0.0,0.0,0.0,9e-08
1538768570708375143,9950,1538768570707656775,base_link,0.0,0.0,0.0,0.0,-1.0,0.0,0.0,0.0,0.0,0.0,0.0,0.0,0.0,-0.014,-0.078,0.046,1.21846967915e-07,0.0,0.0,0.0,1.21846967915e-07,0.0,0.0,0.0,1.21846967915e-07,0.3726527,0.588399,10.87557485,9e-08,0.0,0.0,0.0,9e-08,0.0,0.0,0.0,9e-08
1538768570783907303,9951,1538768570783202951,base_link,0.0,0.0,0.0,0.0,-1.0,0.0,0.0,0.0,0.0,0.0,0.0,0.0,0.0,-0.064,-0.081,0.018,1.21846967915e-07,0.0,0.0,0.0,1.21846967915e-07,0.0,0.0,0.0,1.21846967915e-07,0.3726527,0.69627215,11.0815145,9e-08,0.0,0.0,0.0,9e-08,0.0,0.0,0.0,9e-08
1538768570884792135,9952,1538768570884156935,base_link,0.0,0.0,0.0,0.0,-1.0,0.0,0.0,0.0,0.0,0.0,0.0,0.0,0.0,-0.129,-0.071,-0.012,1.21846967915e-07,0.0,0.0,0.0,1.21846967915e-07,0.0,0.0,0.0,1.21846967915e-07,0.44129925,0.73549875,10.9049948,9e-08,0.0,0.0,0.0,9e-08,0.0,0.0,0.0,9e-08
1538768570982249031,9953,1538768570981512455,base_link,0.0,0.0,0.0,0.0,-1.0,0.0,0.0,0.0,0.0,0.0,0.0,0.0,0.0,-0.145,-0.047,-0.046,1.21846967915e-07,0.0,0.0,0.0,1.21846967915e-07,0.0,0.0,0.0,1.21846967915e-07,0.3726527,0.61781895,10.38524235,9e-08,0.0,0.0,0.0,9e-08,0.0,0.0,0.0,9e-08
1538768571071312647,9954,1538768571070946983,base_link,0.0,0.0,0.0,0.0,-1.0,0.0,0.0,0.0,0.0,0.0,0.0,0.0,0.0,-0.159,-0.054,-0.065,1.21846967915e-07,0.0,0.0,0.0,1.21846967915e-07,0.0,0.0,0.0,1.21846967915e-07,0.392266,0.67665885,10.26756255,9e-08,0.0,0.0,0.0,9e-08,0.0,0.0,0.0,9e-08
1538768571183262375,9955,1538768571182140647,base_link,0.0,0.0,0.0,0.0,-1.0,0.0,0.0,0.0,0.0,0.0,0.0,0.0,0.0,-0.235,-0.044,-0.077,1.21846967915e-07,0.0,0.0,0.0,1.21846967915e-07,0.0,0.0,0.0,1.21846967915e-07,0.4314926,0.5491724,10.5519554,9e-08,0.0,0.0,0.0,9e-08,0.0,0.0,0.0,9e-08
1538768571306573831,9956,1538768571305931911,base_link,0.0,0.0,0.0,0.0,-1.0,0.0,0.0,0.0,0.0,0.0,0.0,0.0,0.0,-0.311,-0.033,-0.071,1.21846967915e-07,0.0,0.0,0.0,1.21846967915e-07,0.0,0.0,0.0,1.21846967915e-07,0.53936575,0.588399,11.2776475,9e-08,0.0,0.0,0.0,9e-08,0.0,0.0,0.0,9e-08
1538768571383061415,9957,1538768571382473319,base_link,0.0,0.0,0.0,0.0,-1.0,0.0,0.0,0.0,0.0,0.0,0.0,0.0,0.0,-0.182,-0.037,-0.063,1.21846967915e-07,0.0,0.0,0.0,1.21846967915e-07,0.0,0.0,0.0,1.21846967915e-07,0.51975245,0.42168595,11.28745415,9e-08,0.0,0.0,0.0,9e-08,0.0,0.0,0.0,9e-08
1538768571489734503,9958,1538768571489048487,base_link,0.0,0.0,0.0,0.0,-1.0,0.0,0.0,0.0,0.0,0.0,0.0,0.0,0.0,-0.125,-0.024,-0.034,1.21846967915e-07,0.0,0.0,0.0,1.21846967915e-07,0.0,0.0,0.0,1.21846967915e-07,0.53936575,0.5295591,10.62060195,9e-08,0.0,0.0,0.0,9e-08,0.0,0.0,0.0,9e-08
1538768571581580327,9959,1538768571581138759,base_link,0.0,0.0,0.0,0.0,-1.0,0.0,0.0,0.0,0.0,0.0,0.0,0.0,0.0,-0.181,-0.029,-0.013,1.21846967915e-07,0.0,0.0,0.0,1.21846967915e-07,0.0,0.0,0.0,1.21846967915e-07,0.50013915,0.3530394,10.395049,9e-08,0.0,0.0,0.0,9e-08,0.0,0.0,0.0,9e-08
1538768571697655463,9960,1538768571697088775,base_link,0.0,0.0,0.0,0.0,-1.0,0.0,0.0,0.0,0.0,0.0,0.0,0.0,0.0,-0.189,-0.026,0.026,1.21846967915e-07,0.0,0.0,0.0,1.21846967915e-07,0.0,0.0,0.0,1.21846967915e-07,0.55897905,0.4118793,10.75789505,9e-08,0.0,0.0,0.0,9e-08,0.0,0.0,0.0,9e-08
1538768571776287431,9961,1538768571775831463,base_link,0.0,0.0,0.0,0.0,-1.0,0.0,0.0,0.0,0.0,0.0,0.0,0.0,0.0,-0.171,-0.005,0.04,1.21846967915e-07,0.0,0.0,0.0,1.21846967915e-07,0.0,0.0,0.0,1.21846967915e-07,0.5491724,0.28439285,10.6892485,9e-08,0.0,0.0,0.0,9e-08,0.0,0.0,0.0,9e-08
1538768571888794503,9962,1538768571888280103,base_link,0.0,0.0,0.0,0.0,-1.0,0.0,0.0,0.0,0.0,0.0,0.0,0.0,0.0,-0.079,0.015,0.069,1.21846967915e-07,0.0,0.0,0.0,1.21846967915e-07,0.0,0.0,0.0,1.21846967915e-07,0.5491724,0.42168595,10.30678915,9e-08,0.0,0.0,0.0,9e-08,0.0,0.0,0.0,9e-08
1538768571971839623,9963,1538768571971211655,base_link,0.0,0.0,0.0,0.0,-1.0,0.0,0.0,0.0,0.0,0.0,0.0,0.0,0.0,-0.083,0.014,0.067,1.21846967915e-07,0.0,0.0,0.0,1.21846967915e-07,0.0,0.0,0.0,1.21846967915e-07,0.50013915,0.40207265,10.3165958,9e-08,0.0,0.0,0.0,9e-08,0.0,0.0,0.0,9e-08
1538768572066296487,9964,1538768572065683623,base_link,0.0,0.0,0.0,0.0,-1.0,0.0,0.0,0.0,0.0,0.0,0.0,0.0,0.0,-0.027,0.016,0.086,1.21846967915e-07,0.0,0.0,0.0,1.21846967915e-07,0.0,0.0,0.0,1.21846967915e-07,0.5687857,0.46091255,10.787315,9e-08,0.0,0.0,0.0,9e-08,0.0,0.0,0.0,9e-08
1538768572182618471,9965,1538768572180717095,base_link,0.0,0.0,0.0,0.0,-1.0,0.0,0.0,0.0,0.0,0.0,0.0,0.0,0.0,-0.141,0.034,0.079,1.21846967915e-07,0.0,0.0,0.0,1.21846967915e-07,0.0,0.0,0.0,1.21846967915e-07,0.50013915,0.5099458,9.4928372,9e-08,0.0,0.0,0.0,9e-08,0.0,0.0,0.0,9e-08
1538768572283823719,9966,1538768572282961575,base_link,0.0,0.0,0.0,0.0,-1.0,0.0,0.0,0.0,0.0,0.0,0.0,0.0,0.0,0.002,0.043,0.061,1.21846967915e-07,0.0,0.0,0.0,1.21846967915e-07,0.0,0.0,0.0,1.21846967915e-07,0.40207265,0.3726527,9.24767095,9e-08,0.0,0.0,0.0,9e-08,0.0,0.0,0.0,9e-08
1538768572411893447,9967,1538768572409075783,base_link,0.0,0.0,0.0,0.0,-1.0,0.0,0.0,0.0,0.0,0.0,0.0,0.0,0.0,0.033,0.045,0.042,1.21846967915e-07,0.0,0.0,0.0,1.21846967915e-07,0.0,0.0,0.0,1.21846967915e-07,0.42168595,0.4314926,8.7279185,9e-08,0.0,0.0,0.0,9e-08,0.0,0.0,0.0,9e-08
1538768572478822951,9968,1538768572478393063,base_link,0.0,0.0,0.0,0.0,-1.0,0.0,0.0,0.0,0.0,0.0,0.0,0.0,0.0,-0.012,0.026,0.039,1.21846967915e-07,0.0,0.0,0.0,1.21846967915e-07,0.0,0.0,0.0,1.21846967915e-07,0.4314926,0.4707192,8.6886919,9e-08,0.0,0.0,0.0,9e-08,0.0,0.0,0.0,9e-08
1538768572582542087,9969,1538768572582005607,base_link,0.0,0.0,0.0,0.0,-1.0,0.0,0.0,0.0,0.0,0.0,0.0,0.0,0.0,0.08,0.021,0.052,1.21846967915e-07,0.0,0.0,0.0,1.21846967915e-07,0.0,0.0,0.0,1.21846967915e-07,0.4903325,0.48052585,9.52225715,9e-08,0.0,0.0,0.0,9e-08,0.0,0.0,0.0,9e-08
1538768572688607143,9970,1538768572687641959,base_link,0.0,0.0,0.0,0.0,-1.0,0.0,0.0,0.0,0.0,0.0,0.0,0.0,0.0,0.163,0.008,0.027,1.21846967915e-07,0.0,0.0,0.0,1.21846967915e-07,0.0,0.0,0.0,1.21846967915e-07,0.57859235,0.5099458,10.20872265,9e-08,0.0,0.0,0.0,9e-08,0.0,0.0,0.0,9e-08
1538768572782638695,9971,1538768572781985415,base_link,0.0,0.0,0.0,0.0,-1.0,0.0,0.0,0.0,0.0,0.0,0.0,0.0,0.0,0.173,0.012,0.023,1.21846967915e-07,0.0,0.0,0.0,1.21846967915e-07,0.0,0.0,0.0,1.21846967915e-07,0.55897905,0.50013915,10.28717585,9e-08,0.0,0.0,0.0,9e-08,0.0,0.0,0.0,9e-08
1538768572873990375,9972,1538768572872346055,base_link,0.0,0.0,0.0,0.0,-1.0,0.0,0.0,0.0,0.0,0.0,0.0,0.0,0.0,0.171,0.019,0.043,1.21846967915e-07,0.0,0.0,0.0,1.21846967915e-07,0.0,0.0,0.0,1.21846967915e-07,0.55897905,0.4118793,10.05181625,9e-08,0.0,0.0,0.0,9e-08,0.0,0.0,0.0,9e-08
1538768572987608839,9973,1538768572986750919,base_link,0.0,0.0,0.0,0.0,-1.0,0.0,0.0,0.0,0.0,0.0,0.0,0.0,0.0,0.098,0.009,0.042,1.21846967915e-07,0.0,0.0,0.0,1.21846967915e-07,0.0,0.0,0.0,1.21846967915e-07,0.5099458,0.5099458,10.07142955,9e-08,0.0,0.0,0.0,9e-08,0.0,0.0,0.0,9e-08
1538768573071537447,9974,1538768573070932775,base_link,0.0,0.0,0.0,0.0,-1.0,0.0,0.0,0.0,0.0,0.0,0.0,0.0,0.0,0.036,0.021,0.034,1.21846967915e-07,0.0,0.0,0.0,1.21846967915e-07,0.0,0.0,0.0,1.21846967915e-07,0.4903325,0.44129925,9.50264385,9e-08,0.0,0.0,0.0,9e-08,0.0,0.0,0.0,9e-08
1538768573186232519,9975,1538768573182955751,base_link,0.0,0.0,0.0,0.0,-1.0,0.0,0.0,0.0,0.0,0.0,0.0,0.0,0.0,0.032,0.016,0.043,1.21846967915e-07,0.0,0.0,0.0,1.21846967915e-07,0.0,0.0,0.0,1.21846967915e-07,0.4903325,0.4511059,9.3947707,9e-08,0.0,0.0,0.0,9e-08,0.0,0.0,0.0,9e-08
1538768573285933735,9976,1538768573284791655,base_link,0.0,0.0,0.0,0.0,-1.0,0.0,0.0,0.0,0.0,0.0,0.0,0.0,0.0,0.015,0.025,0.024,1.21846967915e-07,0.0,0.0,0.0,1.21846967915e-07,0.0,0.0,0.0,1.21846967915e-07,0.4314926,0.4903325,9.8262633,9e-08,0.0,0.0,0.0,9e-08,0.0,0.0,0.0,9e-08
1538768573388897799,9977,1538768573385440711,base_link,0.0,0.0,0.0,0.0,-1.0,0.0,0.0,0.0,0.0,0.0,0.0,0.0,0.0,-0.028,0.031,0.004,1.21846967915e-07,0.0,0.0,0.0,1.21846967915e-07,0.0,0.0,0.0,1.21846967915e-07,0.36284605,0.588399,9.28689755,9e-08,0.0,0.0,0.0,9e-08,0.0,0.0,0.0,9e-08
1538768573487193511,9978,1538768573486739495,base_link,0.0,0.0,0.0,0.0,-1.0,0.0,0.0,0.0,0.0,0.0,0.0,0.0,0.0,-0.007,-0.006,-0.008,1.21846967915e-07,0.0,0.0,0.0,1.21846967915e-07,0.0,0.0,0.0,1.21846967915e-07,0.46091255,0.5099458,9.69877685,9e-08,0.0,0.0,0.0,9e-08,0.0,0.0,0.0,9e-08
1538768573570250599,9979,1538768573569729223,base_link,0.0,0.0,0.0,0.0,-1.0,0.0,0.0,0.0,0.0,0.0,0.0,0.0,0.0,-0.03,-0.024,-0.007,1.21846967915e-07,0.0,0.0,0.0,1.21846967915e-07,0.0,0.0,0.0,1.21846967915e-07,0.5099458,0.5099458,9.99297635,9e-08,0.0,0.0,0.0,9e-08,0.0,0.0,0.0,9e-08
1538768573682286279,9980,1538768573681267655,base_link,0.0,0.0,0.0,0.0,-1.0,0.0,0.0,0.0,0.0,0.0,0.0,0.0,0.0,0.089,-0.028,-0.014,1.21846967915e-07,0.0,0.0,0.0,1.21846967915e-07,0.0,0.0,0.0,1.21846967915e-07,0.4707192,0.55897905,10.16949605,9e-08,0.0,0.0,0.0,9e-08,0.0,0.0,0.0,9e-08
1538768573798846951,9981,1538768573798406695,base_link,0.0,0.0,0.0,0.0,-1.0,0.0,0.0,0.0,0.0,0.0,0.0,0.0,0.0,0.111,-0.045,-0.035,1.21846967915e-07,0.0,0.0,0.0,1.21846967915e-07,0.0,0.0,0.0,1.21846967915e-07,0.6668522,0.51975245,11.5522337,9e-08,0.0,0.0,0.0,9e-08,0.0,0.0,0.0,9e-08
1538768573877814407,9982,1538768573877416231,base_link,0.0,0.0,0.0,0.0,-1.0,0.0,0.0,0.0,0.0,0.0,0.0,0.0,0.0,0.012,-0.043,-0.002,1.21846967915e-07,0.0,0.0,0.0,1.21846967915e-07,0.0,0.0,0.0,1.21846967915e-07,0.6668522,0.5295591,11.2580342,9e-08,0.0,0.0,0.0,9e-08,0.0,0.0,0.0,9e-08
1538768573986158919,9983,1538768573985468455,base_link,0.0,0.0,0.0,0.0,-1.0,0.0,0.0,0.0,0.0,0.0,0.0,0.0,0.0,0.025,-0.043,0.005,1.21846967915e-07,0.0,0.0,0.0,1.21846967915e-07,0.0,0.0,0.0,1.21846967915e-07,0.61781895,0.6668522,12.05237285,9e-08,0.0,0.0,0.0,9e-08,0.0,0.0,0.0,9e-08
1538768574095038567,9984,1538768574094140167,base_link,0.0,0.0,0.0,0.0,-1.0,0.0,0.0,0.0,0.0,0.0,0.0,0.0,0.0,-0.052,-0.046,-0.01,1.21846967915e-07,0.0,0.0,0.0,1.21846967915e-07,0.0,0.0,0.0,1.21846967915e-07,0.5687857,0.392266,11.18938765,9e-08,0.0,0.0,0.0,9e-08,0.0,0.0,0.0,9e-08
1538768574197522631,9985,1538768574196841127,base_link,0.0,0.0,0.0,0.0,-1.0,0.0,0.0,0.0,0.0,0.0,0.0,0.0,0.0,-0.051,-0.011,-0.005,1.21846967915e-07,0.0,0.0,0.0,1.21846967915e-07,0.0,0.0,0.0,1.21846967915e-07,0.48052585,0.3726527,10.0812362,9e-08,0.0,0.0,0.0,9e-08,0.0,0.0,0.0,9e-08
1538768574292898183,9986,1538768574291185127,base_link,0.0,0.0,0.0,0.0,-1.0,0.0,0.0,0.0,0.0,0.0,0.0,0.0,0.0,0.02,0.002,0.018,1.21846967915e-07,0.0,0.0,0.0,1.21846967915e-07,0.0,0.0,0.0,1.21846967915e-07,0.42168595,0.40207265,9.79684335,9e-08,0.0,0.0,0.0,9e-08,0.0,0.0,0.0,9e-08
1538768574426588807,9987,1538768574425716071,base_link,0.0,0.0,0.0,0.0,-1.0,0.0,0.0,0.0,0.0,0.0,0.0,0.0,0.0,-0.091,0.028,0.03,1.21846967915e-07,0.0,0.0,0.0,1.21846967915e-07,0.0,0.0,0.0,1.21846967915e-07,0.3334261,0.2745862,8.5513988,9e-08,0.0,0.0,0.0,9e-08,0.0,0.0,0.0,9e-08
1538768574497229607,9988,1538768574494134919,base_link,0.0,0.0,0.0,0.0,-1.0,0.0,0.0,0.0,0.0,0.0,0.0,0.0,0.0,-0.049,0.018,0.024,1.21846967915e-07,0.0,0.0,0.0,1.21846967915e-07,0.0,0.0,0.0,1.21846967915e-07,0.46091255,0.57859235,8.9828914,9e-08,0.0,0.0,0.0,9e-08,0.0,0.0,0.0,9e-08
1538768574578747943,9989,1538768574578368391,base_link,0.0,0.0,0.0,0.0,-1.0,0.0,0.0,0.0,0.0,0.0,0.0,0.0,0.0,-0.03,0.008,-0.006,1.21846967915e-07,0.0,0.0,0.0,1.21846967915e-07,0.0,0.0,0.0,1.21846967915e-07,0.38245935,0.53936575,9.38496405,9e-08,0.0,0.0,0.0,9e-08,0.0,0.0,0.0,9e-08
1538768574689007751,9990,1538768574684263943,base_link,0.0,0.0,0.0,0.0,-1.0,0.0,0.0,0.0,0.0,0.0,0.0,0.0,0.0,-0.014,0.023,-0.005,1.21846967915e-07,0.0,0.0,0.0,1.21846967915e-07,0.0,0.0,0.0,1.21846967915e-07,0.40207265,0.392266,9.3359308,9e-08,0.0,0.0,0.0,9e-08,0.0,0.0,0.0,9e-08
1538768574787698439,9991,1538768574787236967,base_link,0.0,0.0,0.0,0.0,-1.0,0.0,0.0,0.0,0.0,0.0,0.0,0.0,0.0,-0.036,0.011,-0.003,1.21846967915e-07,0.0,0.0,0.0,1.21846967915e-07,0.0,0.0,0.0,1.21846967915e-07,0.46091255,0.4903325,10.0812362,9e-08,0.0,0.0,0.0,9e-08,0.0,0.0,0.0,9e-08
1538768574891149607,9992,1538768574877821735,base_link,0.0,0.0,0.0,0.0,-1.0,0.0,0.0,0.0,0.0,0.0,0.0,0.0,0.0,-0.079,0.021,-0.008,1.21846967915e-07,0.0,0.0,0.0,1.21846967915e-07,0.0,0.0,0.0,1.21846967915e-07,0.48052585,0.588399,10.1008495,9e-08,0.0,0.0,0.0,9e-08,0.0,0.0,0.0,9e-08
1538768575014750279,9993,1538768575010689895,base_link,0.0,0.0,0.0,0.0,-1.0,0.0,0.0,0.0,0.0,0.0,0.0,0.0,0.0,-0.031,0.033,0.003,1.21846967915e-07,0.0,0.0,0.0,1.21846967915e-07,0.0,0.0,0.0,1.21846967915e-07,0.4707192,0.4707192,9.42419065,9e-08,0.0,0.0,0.0,9e-08,0.0,0.0,0.0,9e-08
1538768575091967847,9994,1538768575091235047,base_link,0.0,0.0,0.0,0.0,-1.0,0.0,0.0,0.0,0.0,0.0,0.0,0.0,0.0,0.028,0.033,-0.007,1.21846967915e-07,0.0,0.0,0.0,1.21846967915e-07,0.0,0.0,0.0,1.21846967915e-07,0.42168595,0.4314926,9.3163175,9e-08,0.0,0.0,0.0,9e-08,0.0,0.0,0.0,9e-08
1538768575216869223,9995,1538768575214178151,base_link,0.0,0.0,0.0,0.0,-1.0,0.0,0.0,0.0,0.0,0.0,0.0,0.0,0.0,0.101,0.038,-0.02,1.21846967915e-07,0.0,0.0,0.0,1.21846967915e-07,0.0,0.0,0.0,1.21846967915e-07,0.36284605,0.3530394,8.60043205,9e-08,0.0,0.0,0.0,9e-08,0.0,0.0,0.0,9e-08
1538768575315306471,9996,1538768575312746375,base_link,0.0,0.0,0.0,0.0,-1.0,0.0,0.0,0.0,0.0,0.0,0.0,0.0,0.0,0.125,0.039,-0.011,1.21846967915e-07,0.0,0.0,0.0,1.21846967915e-07,0.0,0.0,0.0,1.21846967915e-07,0.28439285,0.196133,8.30623255,9e-08,0.0,0.0,0.0,9e-08,0.0,0.0,0.0,9e-08
1538768575394218055,9997,1538768575388780871,base_link,0.0,0.0,0.0,0.0,-1.0,0.0,0.0,0.0,0.0,0.0,0.0,0.0,0.0,0.199,0.0,0.0,1.21846967915e-07,0.0,0.0,0.0,1.21846967915e-07,0.0,0.0,0.0,1.21846967915e-07,0.34323275,0.2157463,8.6494653,9e-08,0.0,0.0,0.0,9e-08,0.0,0.0,0.0,9e-08
1538768575491256199,9998,1538768575490384103,base_link,0.0,0.0,0.0,0.0,-1.0,0.0,0.0,0.0,0.0,0.0,0.0,0.0,0.0,0.116,-0.025,0.025,1.21846967915e-07,0.0,0.0,0.0,1.21846967915e-07,0.0,0.0,0.0,1.21846967915e-07,0.3334261,0.32361945,9.8262633,9e-08,0.0,0.0,0.0,9e-08,0.0,0.0,0.0,9e-08
1538768575586345511,9999,1538768575585799655,base_link,0.0,0.0,0.0,0.0,-1.0,0.0,0.0,0.0,0.0,0.0,0.0,0.0,0.0,0.085,-0.046,0.042,1.21846967915e-07,0.0,0.0,0.0,1.21846967915e-07,0.0,0.0,0.0,1.21846967915e-07,0.3138128,0.4314926,9.9439431,9e-08,0.0,0.0,0.0,9e-08,0.0,0.0,0.0,9e-08
1538768575706123911,10000,1538768575705251015,base_link,0.0,0.0,0.0,0.0,-1.0,0.0,0.0,0.0,0.0,0.0,0.0,0.0,0.0,0.109,-0.056,0.016,1.21846967915e-07,0.0,0.0,0.0,1.21846967915e-07,0.0,0.0,0.0,1.21846967915e-07,0.392266,0.53936575,10.64021525,9e-08,0.0,0.0,0.0,9e-08,0.0,0.0,0.0,9e-08
1538768575802278087,10001,1538768575801793095,base_link,0.0,0.0,0.0,0.0,-1.0,0.0,0.0,0.0,0.0,0.0,0.0,0.0,0.0,0.008,-0.062,0.019,1.21846967915e-07,0.0,0.0,0.0,1.21846967915e-07,0.0,0.0,0.0,1.21846967915e-07,0.392266,0.61781895,10.5127288,9e-08,0.0,0.0,0.0,9e-08,0.0,0.0,0.0,9e-08
1538768575909255847,10002,1538768575908660199,base_link,0.0,0.0,0.0,0.0,-1.0,0.0,0.0,0.0,0.0,0.0,0.0,0.0,0.0,-0.08,-0.047,0.013,1.21846967915e-07,0.0,0.0,0.0,1.21846967915e-07,0.0,0.0,0.0,1.21846967915e-07,0.4314926,0.5687857,10.52253545,9e-08,0.0,0.0,0.0,9e-08,0.0,0.0,0.0,9e-08
1538768576008657671,10003,1538768576008141607,base_link,0.0,0.0,0.0,0.0,-1.0,0.0,0.0,0.0,0.0,0.0,0.0,0.0,0.0,-0.123,-0.055,0.012,1.21846967915e-07,0.0,0.0,0.0,1.21846967915e-07,0.0,0.0,0.0,1.21846967915e-07,0.59820565,0.588399,11.4933938,9e-08,0.0,0.0,0.0,9e-08,0.0,0.0,0.0,9e-08
1538768576090583399,10004,1538768576086968711,base_link,0.0,0.0,0.0,0.0,-1.0,0.0,0.0,0.0,0.0,0.0,0.0,0.0,0.0,-0.174,-0.062,0.011,1.21846967915e-07,0.0,0.0,0.0,1.21846967915e-07,0.0,0.0,0.0,1.21846967915e-07,0.7060788,0.51975245,12.5721253,9e-08,0.0,0.0,0.0,9e-08,0.0,0.0,0.0,9e-08
1538768576188910823,10005,1538768576183094535,base_link,0.0,0.0,0.0,0.0,-1.0,0.0,0.0,0.0,0.0,0.0,0.0,0.0,0.0,0.024,-0.006,0.01,1.21846967915e-07,0.0,0.0,0.0,1.21846967915e-07,0.0,0.0,0.0,1.21846967915e-07,0.5099458,0.55897905,10.4146623,9e-08,0.0,0.0,0.0,9e-08,0.0,0.0,0.0,9e-08
1538768576300006407,10006,1538768576299399591,base_link,0.0,0.0,0.0,0.0,-1.0,0.0,0.0,0.0,0.0,0.0,0.0,0.0,0.0,-0.178,-0.045,5.51091059616e-18,1.21846967915e-07,0.0,0.0,0.0,1.21846967915e-07,0.0,0.0,0.0,1.21846967915e-07,0.67665885,0.67665885,11.2776475,9e-08,0.0,0.0,0.0,9e-08,0.0,0.0,0.0,9e-08
1538768576384960903,10007,1538768576384184839,base_link,0.0,0.0,0.0,0.0,-1.0,0.0,0.0,0.0,0.0,0.0,0.0,0.0,0.0,-0.081,-0.024,-0.024,1.21846967915e-07,0.0,0.0,0.0,1.21846967915e-07,0.0,0.0,0.0,1.21846967915e-07,0.6080123,0.5295591,10.67944185,9e-08,0.0,0.0,0.0,9e-08,0.0,0.0,0.0,9e-08
1538768576501911399,10008,1538768576501281031,base_link,0.0,0.0,0.0,0.0,-1.0,0.0,0.0,0.0,0.0,0.0,0.0,0.0,0.0,-0.036,0.005,-0.021,1.21846967915e-07,0.0,0.0,0.0,1.21846967915e-07,0.0,0.0,0.0,1.21846967915e-07,0.5491724,0.65704555,10.20872265,9e-08,0.0,0.0,0.0,9e-08,0.0,0.0,0.0,9e-08
1538768576582214087,10009,1538768576581712839,base_link,0.0,0.0,0.0,0.0,-1.0,0.0,0.0,0.0,0.0,0.0,0.0,0.0,0.0,0.037,0.027,-0.062,1.21846967915e-07,0.0,0.0,0.0,1.21846967915e-07,0.0,0.0,0.0,1.21846967915e-07,0.40207265,0.6276256,9.5516771,9e-08,0.0,0.0,0.0,9e-08,0.0,0.0,0.0,9e-08
1538768576696518567,10010,1538768576695643175,base_link,0.0,0.0,0.0,0.0,-1.0,0.0,0.0,0.0,0.0,0.0,0.0,0.0,0.0,0.002,0.014,-0.092,1.21846967915e-07,0.0,0.0,0.0,1.21846967915e-07,0.0,0.0,0.0,1.21846967915e-07,0.4118793,0.46091255,9.38496405,9e-08,0.0,0.0,0.0,9e-08,0.0,0.0,0.0,9e-08
1538768576783321543,10011,1538768576777450311,base_link,0.0,0.0,0.0,0.0,-1.0,0.0,0.0,0.0,0.0,0.0,0.0,0.0,0.0,-0.004,0.014,-0.084,1.21846967915e-07,0.0,0.0,0.0,1.21846967915e-07,0.0,0.0,0.0,1.21846967915e-07,0.4118793,0.4118793,9.7281968,9e-08,0.0,0.0,0.0,9e-08,0.0,0.0,0.0,9e-08
1538768576875619687,10012,1538768576875095815,base_link,0.0,0.0,0.0,0.0,-1.0,0.0,0.0,0.0,0.0,0.0,0.0,0.0,0.0,0.063,0.006,-0.063,1.21846967915e-07,0.0,0.0,0.0,1.21846967915e-07,0.0,0.0,0.0,1.21846967915e-07,0.38245935,0.2745862,9.97336305,9e-08,0.0,0.0,0.0,9e-08,0.0,0.0,0.0,9e-08
1538768577000637991,10013,1538768576998366663,base_link,0.0,0.0,0.0,0.0,-1.0,0.0,0.0,0.0,0.0,0.0,0.0,0.0,0.0,0.065,0.003,-0.011,1.21846967915e-07,0.0,0.0,0.0,1.21846967915e-07,0.0,0.0,0.0,1.21846967915e-07,0.4314926,0.3138128,9.610517,9e-08,0.0,0.0,0.0,9e-08,0.0,0.0,0.0,9e-08
1538768577087392679,10014,1538768577086865831,base_link,0.0,0.0,0.0,0.0,-1.0,0.0,0.0,0.0,0.0,0.0,0.0,0.0,0.0,0.062,-0.013,0.012,1.21846967915e-07,0.0,0.0,0.0,1.21846967915e-07,0.0,0.0,0.0,1.21846967915e-07,0.5099458,0.18632635,10.28717585,9e-08,0.0,0.0,0.0,9e-08,0.0,0.0,0.0,9e-08
1538768577198585415,10015,1538768577198011623,base_link,0.0,0.0,0.0,0.0,-1.0,0.0,0.0,0.0,0.0,0.0,0.0,0.0,0.0,-0.025,-0.004,0.063,1.21846967915e-07,0.0,0.0,0.0,1.21846967915e-07,0.0,0.0,0.0,1.21846967915e-07,0.4314926,0.30400615,9.69877685,9e-08,0.0,0.0,0.0,9e-08,0.0,0.0,0.0,9e-08
1538768577273341031,10016,1538768577272987751,base_link,0.0,0.0,0.0,0.0,-1.0,0.0,0.0,0.0,0.0,0.0,0.0,0.0,0.0,-0.04,-0.015,0.081,1.21846967915e-07,0.0,0.0,0.0,1.21846967915e-07,0.0,0.0,0.0,1.21846967915e-07,0.50013915,0.588399,10.2577559,9e-08,0.0,0.0,0.0,9e-08,0.0,0.0,0.0,9e-08
1538768577429269703,10017,1538768577428777351,base_link,0.0,0.0,0.0,0.0,-1.0,0.0,0.0,0.0,0.0,0.0,0.0,0.0,0.0,-0.07,0.005,0.031,1.21846967915e-07,0.0,0.0,0.0,1.21846967915e-07,0.0,0.0,0.0,1.21846967915e-07,0.4511059,0.63743225,10.03220295,9e-08,0.0,0.0,0.0,9e-08,0.0,0.0,0.0,9e-08
1538768577484123111,10018,1538768577483456999,base_link,0.0,0.0,0.0,0.0,-1.0,0.0,0.0,0.0,0.0,0.0,0.0,0.0,0.0,-0.089,0.002,0.011,1.21846967915e-07,0.0,0.0,0.0,1.21846967915e-07,0.0,0.0,0.0,1.21846967915e-07,0.5295591,0.55897905,9.77723005,9e-08,0.0,0.0,0.0,9e-08,0.0,0.0,0.0,9e-08
1538768577591651303,10019,1538768577590734023,base_link,0.0,0.0,0.0,0.0,-1.0,0.0,0.0,0.0,0.0,0.0,0.0,0.0,0.0,0.03,-0.007,-0.003,1.21846967915e-07,0.0,0.0,0.0,1.21846967915e-07,0.0,0.0,0.0,1.21846967915e-07,0.5099458,0.71588545,11.18938765,9e-08,0.0,0.0,0.0,9e-08,0.0,0.0,0.0,9e-08
1538768577680590951,10020,1538768577679897959,base_link,0.0,0.0,0.0,0.0,-1.0,0.0,0.0,0.0,0.0,0.0,0.0,0.0,0.0,0.036,-0.012,-0.002,1.21846967915e-07,0.0,0.0,0.0,1.21846967915e-07,0.0,0.0,0.0,1.21846967915e-07,0.50013915,0.6472389,11.54242705,9e-08,0.0,0.0,0.0,9e-08,0.0,0.0,0.0,9e-08
1538768577795187239,10021,1538768577794519015,base_link,0.0,0.0,0.0,0.0,-1.0,0.0,0.0,0.0,0.0,0.0,0.0,0.0,0.0,0.075,-0.009,-0.029,1.21846967915e-07,0.0,0.0,0.0,1.21846967915e-07,0.0,0.0,0.0,1.21846967915e-07,0.53936575,0.40207265,10.8657682,9e-08,0.0,0.0,0.0,9e-08,0.0,0.0,0.0,9e-08
1538768577903788391,10022,1538768577900543047,base_link,0.0,0.0,0.0,0.0,-1.0,0.0,0.0,0.0,0.0,0.0,0.0,0.0,0.0,0.149,-3.91886975727e-18,-0.032,1.21846967915e-07,0.0,0.0,0.0,1.21846967915e-07,0.0,0.0,0.0,1.21846967915e-07,0.48052585,0.34323275,10.198916,9e-08,0.0,0.0,0.0,9e-08,0.0,0.0,0.0,9e-08
1538768577992355047,10023,1538768577989656967,base_link,0.0,0.0,0.0,0.0,-1.0,0.0,0.0,0.0,0.0,0.0,0.0,0.0,0.0,0.159,0.021,0.003,1.21846967915e-07,0.0,0.0,0.0,1.21846967915e-07,0.0,0.0,0.0,1.21846967915e-07,0.40207265,0.3530394,9.8654899,9e-08,0.0,0.0,0.0,9e-08,0.0,0.0,0.0,9e-08
1538768578104070599,10024,1538768578100419911,base_link,0.0,0.0,0.0,0.0,-1.0,0.0,0.0,0.0,0.0,0.0,0.0,0.0,0.0,0.023,0.001,-0.018,1.21846967915e-07,0.0,0.0,0.0,1.21846967915e-07,0.0,0.0,0.0,1.21846967915e-07,0.36284605,0.4707192,9.7281968,9e-08,0.0,0.0,0.0,9e-08,0.0,0.0,0.0,9e-08
1538768578197875495,10025,1538768578196915719,base_link,0.0,0.0,0.0,0.0,-1.0,0.0,0.0,0.0,0.0,0.0,0.0,0.0,0.0,-0.06,-0.002,-0.024,1.21846967915e-07,0.0,0.0,0.0,1.21846967915e-07,0.0,0.0,0.0,1.21846967915e-07,0.4118793,0.7649187,10.14988275,9e-08,0.0,0.0,0.0,9e-08,0.0,0.0,0.0,9e-08
1538768578303778439,10026,1538768578301731751,base_link,0.0,0.0,0.0,0.0,-1.0,0.0,0.0,0.0,0.0,0.0,0.0,0.0,0.0,0.222,0.061,-0.096,1.21846967915e-07,0.0,0.0,0.0,1.21846967915e-07,0.0,0.0,0.0,1.21846967915e-07,0.3530394,0.57859235,8.26700595,9e-08,0.0,0.0,0.0,9e-08,0.0,0.0,0.0,9e-08
1538768578447178663,10027,1538768578446207367,base_link,0.0,0.0,0.0,0.0,-1.0,0.0,0.0,0.0,0.0,0.0,0.0,0.0,0.0,0.489,0.022,-0.109,1.21846967915e-07,0.0,0.0,0.0,1.21846967915e-07,0.0,0.0,0.0,1.21846967915e-07,0.38245935,-0.0980665,10.1793027,9e-08,0.0,0.0,0.0,9e-08,0.0,0.0,0.0,9e-08
1538768578500688135,10028,1538768578499007911,base_link,0.0,0.0,0.0,0.0,-1.0,0.0,0.0,0.0,0.0,0.0,0.0,0.0,0.0,0.619,-0.024,-0.059,1.21846967915e-07,0.0,0.0,0.0,1.21846967915e-07,0.0,0.0,0.0,1.21846967915e-07,0.4118793,-0.00980665,11.34629405,9e-08,0.0,0.0,0.0,9e-08,0.0,0.0,0.0,9e-08
1538768578587629127,10029,1538768578587036327,base_link,0.0,0.0,0.0,0.0,-1.0,0.0,0.0,0.0,0.0,0.0,0.0,0.0,0.0,0.212,-0.063,0.065,1.21846967915e-07,0.0,0.0,0.0,1.21846967915e-07,0.0,0.0,0.0,1.21846967915e-07,0.34323275,0.6864655,11.9052731,9e-08,0.0,0.0,0.0,9e-08,0.0,0.0,0.0,9e-08
1538768578717742119,10030,1538768578717097351,base_link,0.0,0.0,0.0,0.0,-1.0,0.0,0.0,0.0,0.0,0.0,0.0,0.0,0.0,-0.114,-0.06,0.048,1.21846967915e-07,0.0,0.0,0.0,1.21846967915e-07,0.0,0.0,0.0,1.21846967915e-07,0.36284605,0.87279185,11.0619012,9e-08,0.0,0.0,0.0,9e-08,0.0,0.0,0.0,9e-08
1538768578777359847,10031,1538768578776748615,base_link,0.0,0.0,0.0,0.0,-1.0,0.0,0.0,0.0,0.0,0.0,0.0,0.0,0.0,-0.142,-0.029,-0.009,1.21846967915e-07,0.0,0.0,0.0,1.21846967915e-07,0.0,0.0,0.0,1.21846967915e-07,0.2353596,0.8041453,8.93385815,9e-08,0.0,0.0,0.0,9e-08,0.0,0.0,0.0,9e-08
1538768578878356679,10032,1538768578877550407,base_link,0.0,0.0,0.0,0.0,-1.0,0.0,0.0,0.0,0.0,0.0,0.0,0.0,0.0,0.043,-0.024,-0.076,1.21846967915e-07,0.0,0.0,0.0,1.21846967915e-07,0.0,0.0,0.0,1.21846967915e-07,0.2353596,0.83356525,9.79684335,9e-08,0.0,0.0,0.0,9e-08,0.0,0.0,0.0,9e-08
1538768578988685063,10033,1538768578988131591,base_link,0.0,0.0,0.0,0.0,-1.0,0.0,0.0,0.0,0.0,0.0,0.0,0.0,0.0,0.063,-0.024,-0.129,1.21846967915e-07,0.0,0.0,0.0,1.21846967915e-07,0.0,0.0,0.0,1.21846967915e-07,0.2353596,0.784532,10.24794925,9e-08,0.0,0.0,0.0,9e-08,0.0,0.0,0.0,9e-08
1538768579086135335,10034,1538768579085592807,base_link,0.0,0.0,0.0,0.0,-1.0,0.0,0.0,0.0,0.0,0.0,0.0,0.0,0.0,0.131,-0.03,-0.173,1.21846967915e-07,0.0,0.0,0.0,1.21846967915e-07,0.0,0.0,0.0,1.21846967915e-07,0.2353596,0.61781895,9.60071035,9e-08,0.0,0.0,0.0,9e-08,0.0,0.0,0.0,9e-08
1538768579196998567,10035,1538768579193040263,base_link,0.0,0.0,0.0,0.0,-1.0,0.0,0.0,0.0,0.0,0.0,0.0,0.0,0.0,0.196,-0.024,-0.175,1.21846967915e-07,0.0,0.0,0.0,1.21846967915e-07,0.0,0.0,0.0,1.21846967915e-07,0.22555295,0.73549875,8.629852,9e-08,0.0,0.0,0.0,9e-08,0.0,0.0,0.0,9e-08
1538768579307030087,10036,1538768579303950343,base_link,0.0,0.0,0.0,0.0,-1.0,0.0,0.0,0.0,0.0,0.0,0.0,0.0,0.0,0.109,-0.043,-0.168,1.21846967915e-07,0.0,0.0,0.0,1.21846967915e-07,0.0,0.0,0.0,1.21846967915e-07,0.2353596,0.85317855,9.40457735,9e-08,0.0,0.0,0.0,9e-08,0.0,0.0,0.0,9e-08
1538768579390641543,10037,1538768579389841383,base_link,0.0,0.0,0.0,0.0,-1.0,0.0,0.0,0.0,0.0,0.0,0.0,0.0,0.0,-0.034,-0.042,-0.194,1.21846967915e-07,0.0,0.0,0.0,1.21846967915e-07,0.0,0.0,0.0,1.21846967915e-07,0.3334261,0.8433719,10.85596155,9e-08,0.0,0.0,0.0,9e-08,0.0,0.0,0.0,9e-08
1538768579511368135,10038,1538768579510397543,base_link,0.0,0.0,0.0,0.0,-1.0,0.0,0.0,0.0,0.0,0.0,0.0,0.0,0.0,-0.036,-0.047,-0.216,1.21846967915e-07,0.0,0.0,0.0,1.21846967915e-07,0.0,0.0,0.0,1.21846967915e-07,0.3726527,0.7256921,10.91480145,9e-08,0.0,0.0,0.0,9e-08,0.0,0.0,0.0,9e-08
1538768579588087175,10039,1538768579583602759,base_link,0.0,0.0,0.0,0.0,-1.0,0.0,0.0,0.0,0.0,0.0,0.0,0.0,0.0,-0.017,-0.04,-0.217,1.21846967915e-07,0.0,0.0,0.0,1.21846967915e-07,0.0,0.0,0.0,1.21846967915e-07,0.2745862,0.69627215,10.4538889,9e-08,0.0,0.0,0.0,9e-08,0.0,0.0,0.0,9e-08
1538768579685722695,10040,1538768579685158279,base_link,0.0,0.0,0.0,0.0,-1.0,0.0,0.0,0.0,0.0,0.0,0.0,0.0,0.0,0.088,-0.025,-0.214,1.21846967915e-07,0.0,0.0,0.0,1.21846967915e-07,0.0,0.0,0.0,1.21846967915e-07,0.26477955,0.51975245,9.6889702,9e-08,0.0,0.0,0.0,9e-08,0.0,0.0,0.0,9e-08
1538768579783120295,10041,1538768579782635847,base_link,0.0,0.0,0.0,0.0,-1.0,0.0,0.0,0.0,0.0,0.0,0.0,0.0,0.0,0.113,-0.013,-0.214,1.21846967915e-07,0.0,0.0,0.0,1.21846967915e-07,0.0,0.0,0.0,1.21846967915e-07,0.22555295,0.6472389,9.3163175,9e-08,0.0,0.0,0.0,9e-08,0.0,0.0,0.0,9e-08
1538768579894712135,10042,1538768579894237831,base_link,0.0,0.0,0.0,0.0,-1.0,0.0,0.0,0.0,0.0,0.0,0.0,0.0,0.0,-0.069,-0.05,-0.214,1.21846967915e-07,0.0,0.0,0.0,1.21846967915e-07,0.0,0.0,0.0,1.21846967915e-07,0.14709975,0.79433865,10.4538889,9e-08,0.0,0.0,0.0,9e-08,0.0,0.0,0.0,9e-08
1538768579997892199,10043,1538768579996722439,base_link,0.0,0.0,0.0,0.0,-1.0,0.0,0.0,0.0,0.0,0.0,0.0,0.0,0.0,0.211,-0.073,-0.245,1.21846967915e-07,0.0,0.0,0.0,1.21846967915e-07,0.0,0.0,0.0,1.21846967915e-07,0.1569064,0.7649187,9.6301303,9e-08,0.0,0.0,0.0,9e-08,0.0,0.0,0.0,9e-08
1538768580096438599,10044,1538768580094807463,base_link,0.0,0.0,0.0,0.0,-1.0,0.0,0.0,0.0,0.0,0.0,0.0,0.0,0.0,0.185,-0.098,-0.267,1.21846967915e-07,0.0,0.0,0.0,1.21846967915e-07,0.0,0.0,0.0,1.21846967915e-07,0.3138128,0.61781895,9.9831697,9e-08,0.0,0.0,0.0,9e-08,0.0,0.0,0.0,9e-08
1538768580198772583,10045,1538768580197979367,base_link,0.0,0.0,0.0,0.0,-1.0,0.0,0.0,0.0,0.0,0.0,0.0,0.0,0.0,0.109,-0.103,-0.253,1.21846967915e-07,0.0,0.0,0.0,1.21846967915e-07,0.0,0.0,0.0,1.21846967915e-07,0.18632635,0.4707192,9.50264385,9e-08,0.0,0.0,0.0,9e-08,0.0,0.0,0.0,9e-08
1538768580293140007,10046,1538768580291555143,base_link,0.0,0.0,0.0,0.0,-1.0,0.0,0.0,0.0,0.0,0.0,0.0,0.0,0.0,0.173,-0.115,-0.24,1.21846967915e-07,0.0,0.0,0.0,1.21846967915e-07,0.0,0.0,0.0,1.21846967915e-07,0.196133,0.5491724,9.7674234,9e-08,0.0,0.0,0.0,9e-08,0.0,0.0,0.0,9e-08
1538768580378585127,10047,1538768580378014567,base_link,0.0,0.0,0.0,0.0,-1.0,0.0,0.0,0.0,0.0,0.0,0.0,0.0,0.0,0.156,-0.123,-0.24,1.21846967915e-07,0.0,0.0,0.0,1.21846967915e-07,0.0,0.0,0.0,1.21846967915e-07,0.28439285,0.4903325,9.7870367,9e-08,0.0,0.0,0.0,9e-08,0.0,0.0,0.0,9e-08
1538768580508632039,10048,1538768580505460711,base_link,0.0,0.0,0.0,0.0,-1.0,0.0,0.0,0.0,0.0,0.0,0.0,0.0,0.0,-0.131,-0.166,-0.162,1.21846967915e-07,0.0,0.0,0.0,1.21846967915e-07,0.0,0.0,0.0,1.21846967915e-07,0.4118793,0.87279185,11.3168741,9e-08,0.0,0.0,0.0,9e-08,0.0,0.0,0.0,9e-08
1538768580584960455,10049,1538768580584336103,base_link,0.0,0.0,0.0,0.0,-1.0,0.0,0.0,0.0,0.0,0.0,0.0,0.0,0.0,-0.165,-0.162,-0.193,1.21846967915e-07,0.0,0.0,0.0,1.21846967915e-07,0.0,0.0,0.0,1.21846967915e-07,0.4903325,0.7060788,12.0229529,9e-08,0.0,0.0,0.0,9e-08,0.0,0.0,0.0,9e-08
1538768580698293607,10050,1538768580697805735,base_link,0.0,0.0,0.0,0.0,-1.0,0.0,0.0,0.0,0.0,0.0,0.0,0.0,0.0,-0.13,-0.143,-0.193,1.21846967915e-07,0.0,0.0,0.0,1.21846967915e-07,0.0,0.0,0.0,1.21846967915e-07,0.50013915,0.53936575,12.01314625,9e-08,0.0,0.0,0.0,9e-08,0.0,0.0,0.0,9e-08
1538768580779083623,10051,1538768580778430311,base_link,0.0,0.0,0.0,0.0,-1.0,0.0,0.0,0.0,0.0,0.0,0.0,0.0,0.0,-0.015,-0.129,-0.176,1.21846967915e-07,0.0,0.0,0.0,1.21846967915e-07,0.0,0.0,0.0,1.21846967915e-07,0.34323275,0.9218251,10.48330885,9e-08,0.0,0.0,0.0,9e-08,0.0,0.0,0.0,9e-08
1538768580899241383,10052,1538768580897977319,base_link,0.0,0.0,0.0,0.0,-1.0,0.0,0.0,0.0,0.0,0.0,0.0,0.0,0.0,-0.045,-0.167,-0.174,1.21846967915e-07,0.0,0.0,0.0,1.21846967915e-07,0.0,0.0,0.0,1.21846967915e-07,0.57859235,1.16699135,12.5721253,9e-08,0.0,0.0,0.0,9e-08,0.0,0.0,0.0,9e-08
1538768581019662855,10053,1538768581018508519,base_link,0.0,0.0,0.0,0.0,-1.0,0.0,0.0,0.0,0.0,0.0,0.0,0.0,0.0,0.061,-0.133,-0.265,1.21846967915e-07,0.0,0.0,0.0,1.21846967915e-07,0.0,0.0,0.0,1.21846967915e-07,0.50013915,1.0198916,12.0621795,9e-08,0.0,0.0,0.0,9e-08,0.0,0.0,0.0,9e-08
1538768581078170919,10054,1538768581077526823,base_link,0.0,0.0,0.0,0.0,-1.0,0.0,0.0,0.0,0.0,0.0,0.0,0.0,0.0,0.031,-0.093,-0.288,1.21846967915e-07,0.0,0.0,0.0,1.21846967915e-07,0.0,0.0,0.0,1.21846967915e-07,0.4511059,0.5491724,10.395049,9e-08,0.0,0.0,0.0,9e-08,0.0,0.0,0.0,9e-08
1538768581189422759,10055,1538768581188915911,base_link,0.0,0.0,0.0,0.0,-1.0,0.0,0.0,0.0,0.0,0.0,0.0,0.0,0.0,0.051,-0.075,-0.285,1.21846967915e-07,0.0,0.0,0.0,1.21846967915e-07,0.0,0.0,0.0,1.21846967915e-07,0.4903325,0.40207265,9.81645665,9e-08,0.0,0.0,0.0,9e-08,0.0,0.0,0.0,9e-08
1538768581275787751,10056,1538768581274341383,base_link,0.0,0.0,0.0,0.0,-1.0,0.0,0.0,0.0,0.0,0.0,0.0,0.0,0.0,0.223,-0.099,-0.218,1.21846967915e-07,0.0,0.0,0.0,1.21846967915e-07,0.0,0.0,0.0,1.21846967915e-07,0.4903325,0.42168595,9.77723005,9e-08,0.0,0.0,0.0,9e-08,0.0,0.0,0.0,9e-08
1538768581379981959,10057,1538768581376752327,base_link,0.0,0.0,0.0,0.0,-1.0,0.0,0.0,0.0,0.0,0.0,0.0,0.0,0.0,0.36,-0.096,-0.196,1.21846967915e-07,0.0,0.0,0.0,1.21846967915e-07,0.0,0.0,0.0,1.21846967915e-07,0.59820565,0.48052585,9.75761675,9e-08,0.0,0.0,0.0,9e-08,0.0,0.0,0.0,9e-08
1538768581479402727,10058,1538768581478917383,base_link,0.0,0.0,0.0,0.0,-1.0,0.0,0.0,0.0,0.0,0.0,0.0,0.0,0.0,0.304,-0.117,-0.173,1.21846967915e-07,0.0,0.0,0.0,1.21846967915e-07,0.0,0.0,0.0,1.21846967915e-07,0.63743225,0.8041453,10.0616229,9e-08,0.0,0.0,0.0,9e-08,0.0,0.0,0.0,9e-08
1538768581606457287,10059,1538768581605348967,base_link,0.0,0.0,0.0,0.0,-1.0,0.0,0.0,0.0,0.0,0.0,0.0,0.0,0.0,0.189,-0.131,-0.187,1.21846967915e-07,0.0,0.0,0.0,1.21846967915e-07,0.0,0.0,0.0,1.21846967915e-07,0.588399,0.7649187,9.6693569,9e-08,0.0,0.0,0.0,9e-08,0.0,0.0,0.0,9e-08
1538768581684327879,10060,1538768581683594311,base_link,0.0,0.0,0.0,0.0,-1.0,0.0,0.0,0.0,0.0,0.0,0.0,0.0,0.0,0.201,-0.135,-0.208,1.21846967915e-07,0.0,0.0,0.0,1.21846967915e-07,0.0,0.0,0.0,1.21846967915e-07,0.6472389,0.8629852,10.20872265,9e-08,0.0,0.0,0.0,9e-08,0.0,0.0,0.0,9e-08
1538768581790796071,10061,1538768581788965927,base_link,0.0,0.0,0.0,0.0,-1.0,0.0,0.0,0.0,0.0,0.0,0.0,0.0,0.0,0.207,-0.179,-0.211,1.21846967915e-07,0.0,0.0,0.0,1.21846967915e-07,0.0,0.0,0.0,1.21846967915e-07,0.784532,1.2356379,11.8268199,9e-08,0.0,0.0,0.0,9e-08,0.0,0.0,0.0,9e-08
1538768581883544999,10062,1538768581883045735,base_link,0.0,0.0,0.0,0.0,-1.0,0.0,0.0,0.0,0.0,0.0,0.0,0.0,0.0,0.171,-0.164,-0.258,1.21846967915e-07,0.0,0.0,0.0,1.21846967915e-07,0.0,0.0,0.0,1.21846967915e-07,0.87279185,1.4317709,11.571847,9e-08,0.0,0.0,0.0,9e-08,0.0,0.0,0.0,9e-08
1538768581999441287,10063,1538768581998790183,base_link,0.0,0.0,0.0,0.0,-1.0,0.0,0.0,0.0,0.0,0.0,0.0,0.0,0.0,0.084,-0.173,-0.356,1.21846967915e-07,0.0,0.0,0.0,1.21846967915e-07,0.0,0.0,0.0,1.21846967915e-07,0.8825985,1.40235095,10.79712165,9e-08,0.0,0.0,0.0,9e-08,0.0,0.0,0.0,9e-08
1538768582084529543,10064,1538768582084093415,base_link,0.0,0.0,0.0,0.0,-1.0,0.0,0.0,0.0,0.0,0.0,0.0,0.0,0.0,0.033,-0.162,-0.403,1.21846967915e-07,0.0,0.0,0.0,1.21846967915e-07,0.0,0.0,0.0,1.21846967915e-07,0.9022118,1.44157755,9.9047165,9e-08,0.0,0.0,0.0,9e-08,0.0,0.0,0.0,9e-08
1538768582174322151,10065,1538768582172939719,base_link,0.0,0.0,0.0,0.0,-1.0,0.0,0.0,0.0,0.0,0.0,0.0,0.0,0.0,0.102,-0.145,-0.472,1.21846967915e-07,0.0,0.0,0.0,1.21846967915e-07,0.0,0.0,0.0,1.21846967915e-07,0.89240515,1.16699135,9.4928372,9e-08,0.0,0.0,0.0,9e-08,0.0,0.0,0.0,9e-08
1538768582283750407,10066,1538768582283248007,base_link,0.0,0.0,0.0,0.0,-1.0,0.0,0.0,0.0,0.0,0.0,0.0,0.0,0.0,0.483,-0.219,-0.487,1.21846967915e-07,0.0,0.0,0.0,1.21846967915e-07,0.0,0.0,0.0,1.21846967915e-07,0.99047165,0.8237586,10.65982855,9e-08,0.0,0.0,0.0,9e-08,0.0,0.0,0.0,9e-08
1538768582381838983,10067,1538768582381251495,base_link,0.0,0.0,0.0,0.0,-1.0,0.0,0.0,0.0,0.0,0.0,0.0,0.0,0.0,0.318,-0.292,-0.418,1.21846967915e-07,0.0,0.0,0.0,1.21846967915e-07,0.0,0.0,0.0,1.21846967915e-07,1.10815145,0.6668522,11.87585315,9e-08,0.0,0.0,0.0,9e-08,0.0,0.0,0.0,9e-08
1538768582460685319,10068,1538768582460125831,base_link,0.0,0.0,0.0,0.0,-1.0,0.0,0.0,0.0,0.0,0.0,0.0,0.0,0.0,0.144,-0.334,-0.328,1.21846967915e-07,0.0,0.0,0.0,1.21846967915e-07,0.0,0.0,0.0,1.21846967915e-07,1.12776475,0.7649187,12.0621795,9e-08,0.0,0.0,0.0,9e-08,0.0,0.0,0.0,9e-08
1538768582603515431,10069,1538768582603066631,base_link,0.0,0.0,0.0,0.0,-1.0,0.0,0.0,0.0,0.0,0.0,0.0,0.0,0.0,0.142,-0.352,-0.29,1.21846967915e-07,0.0,0.0,0.0,1.21846967915e-07,0.0,0.0,0.0,1.21846967915e-07,1.3533177,0.8629852,11.2972608,9e-08,0.0,0.0,0.0,9e-08,0.0,0.0,0.0,9e-08
1538768582685154471,10070,1538768582684706055,base_link,0.0,0.0,0.0,0.0,-1.0,0.0,0.0,0.0,0.0,0.0,0.0,0.0,0.0,-0.008,-0.407,-0.261,1.21846967915e-07,0.0,0.0,0.0,1.21846967915e-07,0.0,0.0,0.0,1.21846967915e-07,1.38273765,1.1179581,12.552512,9e-08,0.0,0.0,0.0,9e-08,0.0,0.0,0.0,9e-08
1538768582783023591,10071,1538768582782410023,base_link,0.0,0.0,0.0,0.0,-1.0,0.0,0.0,0.0,0.0,0.0,0.0,0.0,0.0,-0.149,-0.393,-0.246,1.21846967915e-07,0.0,0.0,0.0,1.21846967915e-07,0.0,0.0,0.0,1.21846967915e-07,1.5102241,1.1964113,12.91535805,9e-08,0.0,0.0,0.0,9e-08,0.0,0.0,0.0,9e-08
1538768582883896199,10072,1538768582883392455,base_link,0.0,0.0,0.0,0.0,-1.0,0.0,0.0,0.0,0.0,0.0,0.0,0.0,0.0,-0.21,-0.388,-0.26,1.21846967915e-07,0.0,0.0,0.0,1.21846967915e-07,0.0,0.0,0.0,1.21846967915e-07,1.61809725,1.36312435,12.85651815,9e-08,0.0,0.0,0.0,9e-08,0.0,0.0,0.0,9e-08
1538768582977849607,10073,1538768582977200327,base_link,0.0,0.0,0.0,0.0,-1.0,0.0,0.0,0.0,0.0,0.0,0.0,0.0,0.0,-0.056,-0.407,-0.338,1.21846967915e-07,0.0,0.0,0.0,1.21846967915e-07,0.0,0.0,0.0,1.21846967915e-07,1.61809725,1.30428445,13.71950335,9e-08,0.0,0.0,0.0,9e-08,0.0,0.0,0.0,9e-08
1538768583083728167,10074,1538768583083063175,base_link,0.0,0.0,0.0,0.0,-1.0,0.0,0.0,0.0,0.0,0.0,0.0,0.0,0.0,-0.135,-0.396,-0.32,1.21846967915e-07,0.0,0.0,0.0,1.21846967915e-07,0.0,0.0,0.0,1.21846967915e-07,1.6671305,1.22583125,13.8862164,9e-08,0.0,0.0,0.0,9e-08,0.0,0.0,0.0,9e-08
1538768583172991943,10075,1538768583169521383,base_link,0.0,0.0,0.0,0.0,-1.0,0.0,0.0,0.0,0.0,0.0,0.0,0.0,0.0,-0.141,-0.389,-0.306,1.21846967915e-07,0.0,0.0,0.0,1.21846967915e-07,0.0,0.0,0.0,1.21846967915e-07,1.7848103,1.26505785,14.3961622,9e-08,0.0,0.0,0.0,9e-08,0.0,0.0,0.0,9e-08
1538768583273164263,10076,1538768583272743879,base_link,0.0,0.0,0.0,0.0,-1.0,0.0,0.0,0.0,0.0,0.0,0.0,0.0,0.0,-0.121,-0.37,-0.311,1.21846967915e-07,0.0,0.0,0.0,1.21846967915e-07,0.0,0.0,0.0,1.21846967915e-07,1.85345685,1.4317709,14.97475455,9e-08,0.0,0.0,0.0,9e-08,0.0,0.0,0.0,9e-08
1538768583389005735,10077,1538768583387962695,base_link,0.0,0.0,0.0,0.0,-1.0,0.0,0.0,0.0,0.0,0.0,0.0,0.0,0.0,0.014,-0.352,-0.343,1.21846967915e-07,0.0,0.0,0.0,1.21846967915e-07,0.0,0.0,0.0,1.21846967915e-07,1.7063571,1.10815145,15.1610809,9e-08,0.0,0.0,0.0,9e-08,0.0,0.0,0.0,9e-08
1538768583504072967,10078,1538768583503485095,base_link,0.0,0.0,0.0,0.0,-1.0,0.0,0.0,0.0,0.0,0.0,0.0,0.0,0.0,0.276,-0.378,-0.362,1.21846967915e-07,0.0,0.0,0.0,1.21846967915e-07,0.0,0.0,0.0,1.21846967915e-07,1.81423025,1.38273765,14.26867575,9e-08,0.0,0.0,0.0,9e-08,0.0,0.0,0.0,9e-08
1538768583609027367,10079,1538768583599724679,base_link,0.0,0.0,0.0,0.0,-1.0,0.0,0.0,0.0,0.0,0.0,0.0,0.0,0.0,0.066,-0.36,-0.355,1.21846967915e-07,0.0,0.0,0.0,1.21846967915e-07,0.0,0.0,0.0,1.21846967915e-07,1.6082906,1.2356379,12.99381125,9e-08,0.0,0.0,0.0,9e-08,0.0,0.0,0.0,9e-08
1538768583676800231,10080,1538768583676253831,base_link,0.0,0.0,0.0,0.0,-1.0,0.0,0.0,0.0,0.0,0.0,0.0,0.0,0.0,-0.173,-0.337,-0.342,1.21846967915e-07,0.0,0.0,0.0,1.21846967915e-07,0.0,0.0,0.0,1.21846967915e-07,1.61809725,1.2160246,12.79767825,9e-08,0.0,0.0,0.0,9e-08,0.0,0.0,0.0,9e-08
1538768583787399687,10081,1538768583786701479,base_link,0.0,0.0,0.0,0.0,-1.0,0.0,0.0,0.0,0.0,0.0,0.0,0.0,0.0,-0.324,-0.374,-0.345,1.21846967915e-07,0.0,0.0,0.0,1.21846967915e-07,0.0,0.0,0.0,1.21846967915e-07,1.9221034,1.42196425,15.69064,9e-08,0.0,0.0,0.0,9e-08,0.0,0.0,0.0,9e-08
1538768583878572807,10082,1538768583878034599,base_link,0.0,0.0,0.0,0.0,-1.0,0.0,0.0,0.0,0.0,0.0,0.0,0.0,0.0,-0.125,-0.336,-0.354,1.21846967915e-07,0.0,0.0,0.0,1.21846967915e-07,0.0,0.0,0.0,1.21846967915e-07,1.7848103,1.2748645,15.19050085,9e-08,0.0,0.0,0.0,9e-08,0.0,0.0,0.0,9e-08
1538768583981938407,10083,1538768583981390087,base_link,0.0,0.0,0.0,0.0,-1.0,0.0,0.0,0.0,0.0,0.0,0.0,0.0,0.0,-0.153,-0.361,-0.357,1.21846967915e-07,0.0,0.0,0.0,1.21846967915e-07,0.0,0.0,0.0,1.21846967915e-07,1.6082906,0.99047165,15.494507,9e-08,0.0,0.0,0.0,9e-08,0.0,0.0,0.0,9e-08
1538768584058512263,10084,1538768584057332903,base_link,0.0,0.0,0.0,0.0,-1.0,0.0,0.0,0.0,0.0,0.0,0.0,0.0,0.0,-0.187,-0.347,-0.324,1.21846967915e-07,0.0,0.0,0.0,1.21846967915e-07,0.0,0.0,0.0,1.21846967915e-07,1.22583125,0.5295591,14.0235095,9e-08,0.0,0.0,0.0,9e-08,0.0,0.0,0.0,9e-08
1538768584193819175,10085,1538768584192122567,base_link,0.0,0.0,0.0,0.0,-1.0,0.0,0.0,0.0,0.0,0.0,0.0,0.0,0.0,-0.32,-0.361,-0.218,1.21846967915e-07,0.0,0.0,0.0,1.21846967915e-07,0.0,0.0,0.0,1.21846967915e-07,1.36312435,0.2157463,14.7295883,9e-08,0.0,0.0,0.0,9e-08,0.0,0.0,0.0,9e-08
1538768584263120839,10086,1538768584262554727,base_link,0.0,0.0,0.0,0.0,-1.0,0.0,0.0,0.0,0.0,0.0,0.0,0.0,0.0,-0.097,-0.367,-0.149,1.21846967915e-07,0.0,0.0,0.0,1.21846967915e-07,0.0,0.0,0.0,1.21846967915e-07,1.30428445,0.71588545,15.36702055,9e-08,0.0,0.0,0.0,9e-08,0.0,0.0,0.0,9e-08
1538768584398701831,10087,1538768584398153767,base_link,0.0,0.0,0.0,0.0,-1.0,0.0,0.0,0.0,0.0,0.0,0.0,0.0,0.0,-0.319,-0.349,-0.143,1.21846967915e-07,0.0,0.0,0.0,1.21846967915e-07,0.0,0.0,0.0,1.21846967915e-07,1.28467115,1.38273765,16.05348605,9e-08,0.0,0.0,0.0,9e-08,0.0,0.0,0.0,9e-08
1538768584490386919,10088,1538768584489926631,base_link,0.0,0.0,0.0,0.0,-1.0,0.0,0.0,0.0,0.0,0.0,0.0,0.0,0.0,-0.328,-0.182,-0.222,1.21846967915e-07,0.0,0.0,0.0,1.21846967915e-07,0.0,0.0,0.0,1.21846967915e-07,0.6472389,1.63771055,11.24822755,9e-08,0.0,0.0,0.0,9e-08,0.0,0.0,0.0,9e-08
1538768584583557927,10089,1538768584583059335,base_link,0.0,0.0,0.0,0.0,-1.0,0.0,0.0,0.0,0.0,0.0,0.0,0.0,0.0,-0.326,-0.111,-0.327,1.21846967915e-07,0.0,0.0,0.0,1.21846967915e-07,0.0,0.0,0.0,1.21846967915e-07,0.65704555,1.20621795,7.3157609,9e-08,0.0,0.0,0.0,9e-08,0.0,0.0,0.0,9e-08
1538768584671196359,10090,1538768584668941543,base_link,0.0,0.0,0.0,0.0,-1.0,0.0,0.0,0.0,0.0,0.0,0.0,0.0,0.0,-0.245,-0.128,-0.369,1.21846967915e-07,0.0,0.0,0.0,1.21846967915e-07,0.0,0.0,0.0,1.21846967915e-07,0.59820565,0.9610517,9.7478101,9e-08,0.0,0.0,0.0,9e-08,0.0,0.0,0.0,9e-08
1538768584811143367,10091,1538768584810056967,base_link,0.0,0.0,0.0,0.0,-1.0,0.0,0.0,0.0,0.0,0.0,0.0,0.0,0.0,-0.083,-0.166,-0.337,1.21846967915e-07,0.0,0.0,0.0,1.21846967915e-07,0.0,0.0,0.0,1.21846967915e-07,0.59820565,0.5491724,11.2972608,9e-08,0.0,0.0,0.0,9e-08,0.0,0.0,0.0,9e-08
1538768584886347431,10092,1538768584885829671,base_link,0.0,0.0,0.0,0.0,-1.0,0.0,0.0,0.0,0.0,0.0,0.0,0.0,0.0,-0.061,-0.147,-0.277,1.21846967915e-07,0.0,0.0,0.0,1.21846967915e-07,0.0,0.0,0.0,1.21846967915e-07,0.588399,0.7453054,10.01258965,9e-08,0.0,0.0,0.0,9e-08,0.0,0.0,0.0,9e-08
1538768584982671111,10093,1538768584982229447,base_link,0.0,0.0,0.0,0.0,-1.0,0.0,0.0,0.0,0.0,0.0,0.0,0.0,0.0,-0.111,-0.157,-0.251,1.21846967915e-07,0.0,0.0,0.0,1.21846967915e-07,0.0,0.0,0.0,1.21846967915e-07,0.53936575,0.4314926,9.42419065,9e-08,0.0,0.0,0.0,9e-08,0.0,0.0,0.0,9e-08
1538768585077291367,10094,1538768585076743783,base_link,0.0,0.0,0.0,0.0,-1.0,0.0,0.0,0.0,0.0,0.0,0.0,0.0,0.0,-0.194,-0.199,-0.212,1.21846967915e-07,0.0,0.0,0.0,1.21846967915e-07,0.0,0.0,0.0,1.21846967915e-07,0.75511205,0.6080123,11.4933938,9e-08,0.0,0.0,0.0,9e-08,0.0,0.0,0.0,9e-08
1538768585168421895,10095,1538768585167727527,base_link,0.0,0.0,0.0,0.0,-1.0,0.0,0.0,0.0,0.0,0.0,0.0,0.0,0.0,-0.35,-0.183,-0.141,1.21846967915e-07,0.0,0.0,0.0,1.21846967915e-07,0.0,0.0,0.0,1.21846967915e-07,0.6472389,0.48052585,11.07170785,9e-08,0.0,0.0,0.0,9e-08,0.0,0.0,0.0,9e-08
1538768585284178983,10096,1538768585283102151,base_link,0.0,0.0,0.0,0.0,-1.0,0.0,0.0,0.0,0.0,0.0,0.0,0.0,0.0,-0.376,-0.132,-0.092,1.21846967915e-07,0.0,0.0,0.0,1.21846967915e-07,0.0,0.0,0.0,1.21846967915e-07,0.59820565,0.5099458,11.4541672,9e-08,0.0,0.0,0.0,9e-08,0.0,0.0,0.0,9e-08
1538768585443824551,10097,1538768585443375591,base_link,0.0,0.0,0.0,0.0,-1.0,0.0,0.0,0.0,0.0,0.0,0.0,0.0,0.0,-0.445,-0.095,-0.071,1.21846967915e-07,0.0,0.0,0.0,1.21846967915e-07,0.0,0.0,0.0,1.21846967915e-07,0.5099458,0.8629852,11.2972608,9e-08,0.0,0.0,0.0,9e-08,0.0,0.0,0.0,9e-08
1538768585482918471,10098,1538768585482486503,base_link,0.0,0.0,0.0,0.0,-1.0,0.0,0.0,0.0,0.0,0.0,0.0,0.0,0.0,-0.516,-0.087,-0.109,1.21846967915e-07,0.0,0.0,0.0,1.21846967915e-07,0.0,0.0,0.0,1.21846967915e-07,0.48052585,0.79433865,11.0226746,9e-08,0.0,0.0,0.0,9e-08,0.0,0.0,0.0,9e-08
1538768585592424551,10099,1538768585591451207,base_link,0.0,0.0,0.0,0.0,-1.0,0.0,0.0,0.0,0.0,0.0,0.0,0.0,0.0,-0.416,-0.044,-0.143,1.21846967915e-07,0.0,0.0,0.0,1.21846967915e-07,0.0,0.0,0.0,1.21846967915e-07,0.51975245,0.7453054,10.30678915,9e-08,0.0,0.0,0.0,9e-08,0.0,0.0,0.0,9e-08
1538768585705551303,10100,1538768585703993863,base_link,0.0,0.0,0.0,0.0,-1.0,0.0,0.0,0.0,0.0,0.0,0.0,0.0,0.0,-0.555,-0.042,-0.152,1.21846967915e-07,0.0,0.0,0.0,1.21846967915e-07,0.0,0.0,0.0,1.21846967915e-07,0.53936575,0.81395195,10.787315,9e-08,0.0,0.0,0.0,9e-08,0.0,0.0,0.0,9e-08
1538768585781334311,10101,1538768585780564615,base_link,0.0,0.0,0.0,0.0,-1.0,0.0,0.0,0.0,0.0,0.0,0.0,0.0,0.0,-0.518,0.009,-0.146,1.21846967915e-07,0.0,0.0,0.0,1.21846967915e-07,0.0,0.0,0.0,1.21846967915e-07,0.4707192,0.5491724,10.05181625,9e-08,0.0,0.0,0.0,9e-08,0.0,0.0,0.0,9e-08
1538768585883089799,10102,1538768585882591527,base_link,0.0,0.0,0.0,0.0,-1.0,0.0,0.0,0.0,0.0,0.0,0.0,0.0,0.0,-0.447,0.047,-0.144,1.21846967915e-07,0.0,0.0,0.0,1.21846967915e-07,0.0,0.0,0.0,1.21846967915e-07,0.36284605,0.44129925,8.03164635,9e-08,0.0,0.0,0.0,9e-08,0.0,0.0,0.0,9e-08
1538768585993214535,10103,1538768585991085959,base_link,0.0,0.0,0.0,0.0,-1.0,0.0,0.0,0.0,0.0,0.0,0.0,0.0,0.0,-0.412,0.033,-0.12,1.21846967915e-07,0.0,0.0,0.0,1.21846967915e-07,0.0,0.0,0.0,1.21846967915e-07,0.3726527,0.4118793,7.7276402,9e-08,0.0,0.0,0.0,9e-08,0.0,0.0,0.0,9e-08
