%time,field.header.seq,field.header.stamp,field.header.frame_id,field.orientation.x,field.orientation.y,field.orientation.z,field.orientation.w,field.orientation_covariance0,field.orientation_covariance1,field.orientation_covariance2,field.orientation_covariance3,field.orientation_covariance4,field.orientation_covariance5,field.orientation_covariance6,field.orientation_covariance7,field.orientation_covariance8,field.angular_velocity.x,field.angular_velocity.y,field.angular_velocity.z,field.angular_velocity_covariance0,field.angular_velocity_covariance1,field.angular_velocity_covariance2,field.angular_velocity_covariance3,field.angular_velocity_covariance4,field.angular_velocity_covariance5,field.angular_velocity_covariance6,field.angular_velocity_covariance7,field.angular_velocity_covariance8,field.linear_acceleration.x,field.linear_acceleration.y,field.linear_acceleration.z,field.linear_acceleration_covariance0,field.linear_acceleration_covariance1,field.linear_acceleration_covariance2,field.linear_acceleration_covariance3,field.linear_acceleration_covariance4,field.linear_acceleration_covariance5,field.linear_acceleration_covariance6,field.linear_acceleration_covariance7,field.linear_acceleration_covariance8
1538768544160324007,2782,1538768544159979463,base_link,0.127036468605,-0.051367125886,0.243401417585,-0.960197325522,1.0,0.0,0.0,0.0,1.0,0.0,0.0,0.0,1.0,-0.185553997755,0.0420377328992,0.0343142747879,1.21846967915e-07,0.0,0.0,0.0,1.21846967915e-07,0.0,0.0,0.0,1.21846967915e-07,0.06864655,0.18632635,8.85540495,9e-08,0.0,0.0,0.0,9e-08,0.0,0.0,0.0,9e-08
1538768544483100807,2783,1538768544482858119,base_link,0.142666762176,-0.057949412053,0.216245643106,-0.964119226263,1.0,0.0,0.0,0.0,1.0,0.0,0.0,0.0,1.0,0.0527962893248,-0.0309656206518,0.251150637865,1.21846967915e-07,0.0,0.0,0.0,1.21846967915e-07,0.0,0.0,0.0,1.21846967915e-07,0.06864655,-0.20593965,7.9433865,9e-08,0.0,0.0,0.0,9e-08,0.0,0.0,0.0,9e-08
1538768544796384743,2784,1538768544795661863,base_link,0.160298370604,-0.059441193672,0.169157816987,-0.970647623924,1.0,0.0,0.0,0.0,1.0,0.0,0.0,0.0,1.0,-0.300197690725,-0.0955107584596,0.316658079624,1.21846967915e-07,0.0,0.0,0.0,1.21846967915e-07,0.0,0.0,0.0,1.21846967915e-07,0.06864655,0.44129925,10.13026945,9e-08,0.0,0.0,0.0,9e-08,0.0,0.0,0.0,9e-08
1538768545248090951,2785,1538768545247260711,base_link,0.245452071042,-0.0580063860742,0.108539106904,-0.961565287575,1.0,0.0,0.0,0.0,1.0,0.0,0.0,0.0,1.0,-0.262694001198,-0.148775324225,0.166618615389,1.21846967915e-07,0.0,0.0,0.0,1.21846967915e-07,0.0,0.0,0.0,1.21846967915e-07,0.0980665,0.2941995,10.6892485,9e-08,0.0,0.0,0.0,9e-08,0.0,0.0,0.0,9e-08
1538768545694675303,2786,1538768545694338695,base_link,0.293275444687,-0.0317224982868,0.0460587296329,-0.954390795257,1.0,0.0,0.0,0.0,1.0,0.0,0.0,0.0,1.0,-0.215933278203,-0.255791842937,0.303406715393,1.21846967915e-07,0.0,0.0,0.0,1.21846967915e-07,0.0,0.0,0.0,1.21846967915e-07,0.16671305,0.0588399,11.64049355,9e-08,0.0,0.0,0.0,9e-08,0.0,0.0,0.0,9e-08
1538768546055323623,2787,1538768546054836487,base_link,0.317147673304,-0.00339434051176,-0.0383309780652,-0.947595149782,1.0,0.0,0.0,0.0,1.0,0.0,0.0,0.0,1.0,-0.106000326574,-0.303863286972,0.434920102358,1.21846967915e-07,0.0,0.0,0.0,1.21846967915e-07,0.0,0.0,0.0,1.21846967915e-07,0.3334261,1.53363645945e-15,12.52309205,9e-08,0.0,0.0,0.0,9e-08,0.0,0.0,0.0,9e-08
1538768546449024135,2788,1538768546448254375,base_link,0.331868849374,0.0375110068149,-0.134510230509,-0.932932467583,1.0,0.0,0.0,0.0,1.0,0.0,0.0,0.0,1.0,-0.0722480788827,-0.36327123642,0.30395039916,1.21846967915e-07,0.0,0.0,0.0,1.21846967915e-07,0.0,0.0,0.0,1.21846967915e-07,0.4314926,0.3334261,13.1212977,9e-08,0.0,0.0,0.0,9e-08,0.0,0.0,0.0,9e-08
1538768546751008615,2789,1538768546750702247,base_link,0.33120871699,0.0715201549119,-0.202196699494,-0.918859155663,1.0,0.0,0.0,0.0,1.0,0.0,0.0,0.0,1.0,0.138721033931,-0.390456944704,0.41623622179,1.21846967915e-07,0.0,0.0,0.0,1.21846967915e-07,0.0,0.0,0.0,1.21846967915e-07,0.71588545,1.83868239578e-15,15.01398115,9e-08,0.0,0.0,0.0,9e-08,0.0,0.0,0.0,9e-08
1538768547149598727,2790,1538768547146996391,base_link,0.33202105493,0.115840202303,-0.29315295117,-0.88904691318,1.0,0.0,0.0,0.0,1.0,0.0,0.0,0.0,1.0,-0.275421023369,-0.37941506505,0.351881444454,1.21846967915e-07,0.0,0.0,0.0,1.21846967915e-07,0.0,0.0,0.0,1.21846967915e-07,0.69627215,0.4118793,14.71978165,9e-08,0.0,0.0,0.0,9e-08,0.0,0.0,0.0,9e-08
1538768547504804103,2791,1538768547504066855,base_link,0.34660293353,0.16686491981,-0.369352632145,-0.845932112011,1.0,0.0,0.0,0.0,1.0,0.0,0.0,0.0,1.0,-0.0255041811615,-0.407771945,0.346282124519,1.21846967915e-07,0.0,0.0,0.0,1.21846967915e-07,0.0,0.0,0.0,1.21846967915e-07,0.784532,0.06864655,13.3958839,9e-08,0.0,0.0,0.0,9e-08,0.0,0.0,0.0,9e-08
1538768547815972711,2792,1538768547814619079,base_link,0.337116533985,0.200547255612,-0.440660306483,-0.80743528228,1.0,0.0,0.0,0.0,1.0,0.0,0.0,0.0,1.0,-0.0821321159601,-0.418188482523,0.410236030817,1.21846967915e-07,0.0,0.0,0.0,1.21846967915e-07,0.0,0.0,0.0,1.21846967915e-07,1.06892485,0.28439285,14.32751565,9e-08,0.0,0.0,0.0,9e-08,0.0,0.0,0.0,9e-08
1538768548178962887,2793,1538768548178576615,base_link,0.319979640049,0.237561278347,-0.515949825708,-0.758270035236,1.0,0.0,0.0,0.0,1.0,0.0,0.0,0.0,1.0,0.183732107282,-0.448585659266,0.403948575258,1.21846967915e-07,0.0,0.0,0.0,1.21846967915e-07,0.0,0.0,0.0,1.21846967915e-07,1.08853815,-0.0588399,14.513842,9e-08,0.0,0.0,0.0,9e-08,0.0,0.0,0.0,9e-08
1538768548513001863,2794,1538768548512154759,base_link,0.261524018959,0.253025718725,-0.599640949996,-0.712750941255,1.0,0.0,0.0,0.0,1.0,0.0,0.0,0.0,1.0,0.345995157957,-0.475070744753,0.353522956371,1.21846967915e-07,0.0,0.0,0.0,1.21846967915e-07,0.0,0.0,0.0,1.21846967915e-07,1.3140911,0.10787315,17.38719045,9e-08,0.0,0.0,0.0,9e-08,0.0,0.0,0.0,9e-08
1538768548943143751,2795,1538768548942809863,base_link,0.149993957217,0.222637003668,-0.692572570223,-0.669535519873,1.0,0.0,0.0,0.0,1.0,0.0,0.0,0.0,1.0,0.743977546692,-0.29500991106,0.231721803546,1.21846967915e-07,0.0,0.0,0.0,1.21846967915e-07,0.0,0.0,0.0,1.21846967915e-07,0.65704555,0.38245935,14.66094175,9e-08,0.0,0.0,0.0,9e-08,0.0,0.0,0.0,9e-08
1538768549412572423,2796,1538768549412196103,base_link,0.0234566273534,0.136341167532,-0.747956031128,-0.649170738842,1.0,0.0,0.0,0.0,1.0,0.0,0.0,0.0,1.0,0.601899445057,-0.109624117613,0.0210511945188,1.21846967915e-07,0.0,0.0,0.0,1.21846967915e-07,0.0,0.0,0.0,1.21846967915e-07,0.2157463,0.4118793,12.97419795,9e-08,0.0,0.0,0.0,9e-08,0.0,0.0,0.0,9e-08
1538768549767337895,2797,1538768549767033063,base_link,-0.0603202149726,0.0424888278757,-0.763445089761,-0.641644579259,1.0,0.0,0.0,0.0,1.0,0.0,0.0,0.0,1.0,0.725775837898,0.0305251646787,0.0593531131744,1.21846967915e-07,0.0,0.0,0.0,1.21846967915e-07,0.0,0.0,0.0,1.21846967915e-07,0.0588399,0.18632635,10.2773692,9e-08,0.0,0.0,0.0,9e-08,0.0,0.0,0.0,9e-08
1538768550143151015,2798,1538768550139205703,base_link,-0.11189895365,-0.0383316042028,-0.772427892771,-0.623990755348,1.0,0.0,0.0,0.0,1.0,0.0,0.0,0.0,1.0,0.317099332809,0.0803200304508,0.0541815049946,1.21846967915e-07,0.0,0.0,0.0,1.21846967915e-07,0.0,0.0,0.0,1.21846967915e-07,-0.06864655,0.51975245,8.16893945,9e-08,0.0,0.0,0.0,9e-08,0.0,0.0,0.0,9e-08
1538768550560755719,2799,1538768550560300583,base_link,-0.126666243796,-0.0819957803658,-0.771442340876,-0.618149714381,1.0,0.0,0.0,0.0,1.0,0.0,0.0,0.0,1.0,0.0882452502847,0.0875911712646,-0.00351127702743,1.21846967915e-07,0.0,0.0,0.0,1.21846967915e-07,0.0,0.0,0.0,1.21846967915e-07,-0.0784532,0.5687857,9.0809579,9e-08,0.0,0.0,0.0,9e-08,0.0,0.0,0.0,9e-08
1538768551007263847,2800,1538768551006789767,base_link,-0.107267998164,-0.111127737745,-0.745507383015,-0.648354027012,1.0,0.0,0.0,0.0,1.0,0.0,0.0,0.0,1.0,0.111040264368,0.0996052473783,-0.260372728109,1.21846967915e-07,0.0,0.0,0.0,1.21846967915e-07,0.0,0.0,0.0,1.21846967915e-07,-0.10787315,0.02941995,6.52142225,9e-08,0.0,0.0,0.0,9e-08,0.0,0.0,0.0,9e-08
1538768551420972871,2801,1538768551420429607,base_link,-0.1050763893,-0.125599060204,-0.733741589657,-0.659399050724,1.0,0.0,0.0,0.0,1.0,0.0,0.0,0.0,1.0,-0.175050988793,0.0429609678686,-0.0514916405082,1.21846967915e-07,0.0,0.0,0.0,1.21846967915e-07,0.0,0.0,0.0,1.21846967915e-07,-0.12748645,0.55897905,7.8845466,9e-08,0.0,0.0,0.0,9e-08,0.0,0.0,0.0,9e-08
1538768551846706599,2802,1538768551846447847,base_link,-0.0783337270333,-0.106107439025,-0.727916300044,-0.67286172333,1.0,0.0,0.0,0.0,1.0,0.0,0.0,0.0,1.0,-0.239025235176,0.00635661929846,-0.0743880644441,1.21846967915e-07,0.0,0.0,0.0,1.21846967915e-07,0.0,0.0,0.0,1.21846967915e-07,-0.1176798,0.6472389,8.54159215,9e-08,0.0,0.0,0.0,9e-08,0.0,0.0,0.0,9e-08
1538768552222949351,2803,1538768552220626663,base_link,-0.0402889220412,-0.0712504153904,-0.717413752353,-0.691822006734,1.0,0.0,0.0,0.0,1.0,0.0,0.0,0.0,1.0,-0.224649384618,-0.00342325214297,-0.117578156292,1.21846967915e-07,0.0,0.0,0.0,1.21846967915e-07,0.0,0.0,0.0,1.21846967915e-07,-0.0392266,0.30400615,10.0420096,9e-08,0.0,0.0,0.0,9e-08,0.0,0.0,0.0,9e-08
1538768552607738279,2804,1538768552607423783,base_link,-0.00246667578254,-0.0190859582146,-0.714595655971,-0.699272972577,1.0,0.0,0.0,0.0,1.0,0.0,0.0,0.0,1.0,-0.422755777836,-0.0649061501026,0.041334874928,1.21846967915e-07,0.0,0.0,0.0,1.21846967915e-07,0.0,0.0,0.0,1.21846967915e-07,0.0784532,0.4314926,11.18938765,9e-08,0.0,0.0,0.0,9e-08,0.0,0.0,0.0,9e-08
1538768553009935143,2805,1538768553009326727,base_link,0.0549225738257,0.0588166443508,-0.722376942699,-0.686801038066,1.0,0.0,0.0,0.0,1.0,0.0,0.0,0.0,1.0,-0.510163843632,-0.0848651900887,0.142346605659,1.21846967915e-07,0.0,0.0,0.0,1.21846967915e-07,0.0,0.0,0.0,1.21846967915e-07,0.0980665,0.32361945,11.2972608,9e-08,0.0,0.0,0.0,9e-08,0.0,0.0,0.0,9e-08
1538768553258107335,2806,1538768553257813383,base_link,0.0878588994576,0.107144907796,-0.731335538188,-0.667794214637,1.0,0.0,0.0,0.0,1.0,0.0,0.0,0.0,1.0,-0.464677393436,-0.104204490781,0.1861628443,1.21846967915e-07,0.0,0.0,0.0,1.21846967915e-07,0.0,0.0,0.0,1.21846967915e-07,0.14709975,0.28439285,11.15016105,9e-08,0.0,0.0,0.0,9e-08,0.0,0.0,0.0,9e-08
1538768553562146311,2807,1538768553561801031,base_link,0.129182537546,0.169204417783,-0.7433217059,-0.634156588339,1.0,0.0,0.0,0.0,1.0,0.0,0.0,0.0,1.0,-0.45634368062,-0.116106584668,0.229127898812,1.21846967915e-07,0.0,0.0,0.0,1.21846967915e-07,0.0,0.0,0.0,1.21846967915e-07,0.28439285,0.20593965,11.03248125,9e-08,0.0,0.0,0.0,9e-08,0.0,0.0,0.0,9e-08
1538768554044590855,2808,1538768554043761159,base_link,0.16262692422,0.233550616443,-0.770731310798,-0.570070030464,1.0,0.0,0.0,0.0,1.0,0.0,0.0,0.0,1.0,-0.0888280943036,-0.188622847199,0.292410671711,1.21846967915e-07,0.0,0.0,0.0,1.21846967915e-07,0.0,0.0,0.0,1.21846967915e-07,0.55897905,0.16671305,11.4345539,9e-08,0.0,0.0,0.0,9e-08,0.0,0.0,0.0,9e-08
1538768554355064199,2809,1538768554354658311,base_link,0.1512345607,0.247767968726,-0.805682946762,-0.51634690918,1.0,0.0,0.0,0.0,1.0,0.0,0.0,0.0,1.0,-0.193738982081,-0.258671730757,0.40855500102,1.21846967915e-07,0.0,0.0,0.0,1.21846967915e-07,0.0,0.0,0.0,1.21846967915e-07,0.85317855,-0.0784532,14.6119085,9e-08,0.0,0.0,0.0,9e-08,0.0,0.0,0.0,9e-08
1538768554650157735,2810,1538768554649592583,base_link,0.160981876598,0.298991015088,-0.829852336809,-0.442757616983,1.0,0.0,0.0,0.0,1.0,0.0,0.0,0.0,1.0,-0.278180092573,-0.306256920099,0.424746453762,1.21846967915e-07,0.0,0.0,0.0,1.21846967915e-07,0.0,0.0,0.0,1.21846967915e-07,0.46091255,0.1372931,12.944778,9e-08,0.0,0.0,0.0,9e-08,0.0,0.0,0.0,9e-08
1538768554985320455,2811,1538768554984282023,base_link,0.149617213464,0.33529063224,-0.853082904698,-0.370734998455,1.0,0.0,0.0,0.0,1.0,0.0,0.0,0.0,1.0,-0.109446503222,-0.358368992805,0.34009552002,1.21846967915e-07,0.0,0.0,0.0,1.21846967915e-07,0.0,0.0,0.0,1.21846967915e-07,0.8041453,0.0980665,13.20955755,9e-08,0.0,0.0,0.0,9e-08,0.0,0.0,0.0,9e-08
1538768555349860007,2812,1538768555349290247,base_link,0.115533967151,0.350188069961,-0.883576859536,-0.28863844405,1.0,0.0,0.0,0.0,1.0,0.0,0.0,0.0,1.0,0.166900381446,-0.385465562344,0.436971098185,1.21846967915e-07,0.0,0.0,0.0,1.21846967915e-07,0.0,0.0,0.0,1.21846967915e-07,1.0787315,-0.28439285,14.0431228,9e-08,0.0,0.0,0.0,9e-08,0.0,0.0,0.0,9e-08
1538768555782198823,2813,1538768555781762279,base_link,0.0707284561265,0.370784014068,-0.910317054842,-0.169822142457,1.0,0.0,0.0,0.0,1.0,0.0,0.0,0.0,1.0,-0.0843105018139,-0.446058452129,0.354841887951,1.21846967915e-07,0.0,0.0,0.0,1.21846967915e-07,0.0,0.0,0.0,1.21846967915e-07,1.06892485,0.36284605,15.4748937,9e-08,0.0,0.0,0.0,9e-08,0.0,0.0,0.0,9e-08
1538768556054602695,2814,1538768556054184743,base_link,0.033596378959,0.388667762693,-0.915187193767,-0.101198092516,1.0,0.0,0.0,0.0,1.0,0.0,0.0,0.0,1.0,-0.0738037824631,-0.448510825634,0.319986492395,1.21846967915e-07,0.0,0.0,0.0,1.21846967915e-07,0.0,0.0,0.0,1.21846967915e-07,1.3925443,0.28439285,17.4362237,9e-08,0.0,0.0,0.0,9e-08,0.0,0.0,0.0,9e-08
1538768556429354663,2815,1538768556429000519,base_link,-0.0238112904356,0.374682021252,-0.926779694714,-0.0112161875586,1.0,0.0,0.0,0.0,1.0,0.0,0.0,0.0,1.0,0.174320340157,-0.465600132942,0.365767866373,1.21846967915e-07,0.0,0.0,0.0,1.21846967915e-07,0.0,0.0,0.0,1.21846967915e-07,1.30428445,-0.00980665,15.54354025,9e-08,0.0,0.0,0.0,9e-08,0.0,0.0,0.0,9e-08
1538768556827280615,2816,1538768556826815399,base_link,-0.0763442464072,0.32542505154,-0.937872485538,0.0930875541664,1.0,0.0,0.0,0.0,1.0,0.0,0.0,0.0,1.0,0.318477034569,-0.413822501898,0.356437593699,1.21846967915e-07,0.0,0.0,0.0,1.21846967915e-07,0.0,0.0,0.0,1.21846967915e-07,1.12776475,0.22555295,17.5146769,9e-08,0.0,0.0,0.0,9e-08,0.0,0.0,0.0,9e-08
1538768557269169927,2817,1538768557267861479,base_link,-0.112610612084,0.265376697305,-0.938640419258,0.189336266753,1.0,0.0,0.0,0.0,1.0,0.0,0.0,0.0,1.0,0.316002339125,-0.300834655762,0.237975165248,1.21846967915e-07,0.0,0.0,0.0,1.21846967915e-07,0.0,0.0,0.0,1.21846967915e-07,0.588399,0.3530394,15.38663385,9e-08,0.0,0.0,0.0,9e-08,0.0,0.0,0.0,9e-08
1538768557675717735,2818,1538768557675365607,base_link,-0.116570444539,0.169293186139,-0.943226703007,0.260910972022,1.0,0.0,0.0,0.0,1.0,0.0,0.0,0.0,1.0,0.964326322079,-0.0779864341021,0.408365607262,1.21846967915e-07,0.0,0.0,0.0,1.21846967915e-07,0.0,0.0,0.0,1.21846967915e-07,0.0196133,-0.5687857,14.20983585,9e-08,0.0,0.0,0.0,9e-08,0.0,0.0,0.0,9e-08
1538768558033563175,2819,1538768558031750183,base_link,-0.0773428441245,0.0346792064192,-0.943824419527,0.319391456068,1.0,0.0,0.0,0.0,1.0,0.0,0.0,0.0,1.0,0.60263043642,-0.0094234328717,0.0800493359566,1.21846967915e-07,0.0,0.0,0.0,1.21846967915e-07,0.0,0.0,0.0,1.21846967915e-07,-0.2157463,0.588399,10.6696352,9e-08,0.0,0.0,0.0,9e-08,0.0,0.0,0.0,9e-08
1538768558349663719,2820,1538768558349329895,base_link,-0.0432473152469,-0.0359601448483,-0.942203359891,0.33028679404,1.0,0.0,0.0,0.0,1.0,0.0,0.0,0.0,1.0,0.384270608425,0.0914212837815,-0.0202784948051,1.21846967915e-07,0.0,0.0,0.0,1.21846967915e-07,0.0,0.0,0.0,1.21846967915e-07,-0.30400615,0.51975245,9.16921775,9e-08,0.0,0.0,0.0,9e-08,0.0,0.0,0.0,9e-08
1538768558704487943,2821,1538768558701512295,base_link,-0.00941794254988,-0.0680100599564,-0.942613837526,0.326749273001,1.0,0.0,0.0,0.0,1.0,0.0,0.0,0.0,1.0,0.115381091833,0.134987428784,-0.0154915936291,1.21846967915e-07,0.0,0.0,0.0,1.21846967915e-07,0.0,0.0,0.0,1.21846967915e-07,-0.4903325,0.2745862,5.46230405,9e-08,0.0,0.0,0.0,9e-08,0.0,0.0,0.0,9e-08
1538768558989766599,2822,1538768558989427463,base_link,0.0184932121933,-0.0852819608008,-0.942035506875,0.323966189675,1.0,0.0,0.0,0.0,1.0,0.0,0.0,0.0,1.0,0.172101333737,0.146055728197,-0.0374482348561,1.21846967915e-07,0.0,0.0,0.0,1.21846967915e-07,0.0,0.0,0.0,1.21846967915e-07,-0.5099458,0.20593965,6.12915625,9e-08,0.0,0.0,0.0,9e-08,0.0,0.0,0.0,9e-08
1538768559291768839,2823,1538768559291503815,base_link,0.0461036915672,-0.0996709099812,-0.938697797004,0.326782198457,1.0,0.0,0.0,0.0,1.0,0.0,0.0,0.0,1.0,-0.0859716311097,0.112085103989,0.00497727282345,1.21846967915e-07,0.0,0.0,0.0,1.21846967915e-07,0.0,0.0,0.0,1.21846967915e-07,-0.4707192,0.2549729,7.12943455,9e-08,0.0,0.0,0.0,9e-08,0.0,0.0,0.0,9e-08
1538768559809186407,2824,1538768559807674919,base_link,0.0720597208917,-0.0850196251214,-0.938166357799,0.327754397474,1.0,0.0,0.0,0.0,1.0,0.0,0.0,0.0,1.0,-0.41320681572,0.0797188803554,-0.0506499260664,1.21846967915e-07,0.0,0.0,0.0,1.21846967915e-07,0.0,0.0,0.0,1.21846967915e-07,-0.53936575,0.63743225,9.89490985,9e-08,0.0,0.0,0.0,9e-08,0.0,0.0,0.0,9e-08
1538768560155778503,2825,1538768560155240327,base_link,0.0667235372597,-0.0186875297853,-0.944034643929,0.322486180894,1.0,0.0,0.0,0.0,1.0,0.0,0.0,0.0,1.0,-0.300101041794,0.020312262699,-0.10565289855,1.21846967915e-07,0.0,0.0,0.0,1.21846967915e-07,0.0,0.0,0.0,1.21846967915e-07,-0.784532,0.4314926,9.1986377,9e-08,0.0,0.0,0.0,9e-08,0.0,0.0,0.0,9e-08
1538768560516812423,2826,1538768560516385223,base_link,0.0709829598544,-0.00905783318529,-0.94719439051,0.312573450017,1.0,0.0,0.0,0.0,1.0,0.0,0.0,0.0,1.0,-0.105145357549,0.00183254433796,0.0298129990697,1.21846967915e-07,0.0,0.0,0.0,1.21846967915e-07,0.0,0.0,0.0,1.21846967915e-07,-0.8629852,0.00980665,8.09048625,9e-08,0.0,0.0,0.0,9e-08,0.0,0.0,0.0,9e-08
1538768560950298599,2827,1538768560949666823,base_link,0.0583649255554,0.0165846294168,-0.943959385038,0.324436688632,1.0,0.0,0.0,0.0,1.0,0.0,0.0,0.0,1.0,-0.187396019697,-0.0195791944861,0.0369658842683,1.21846967915e-07,0.0,0.0,0.0,1.21846967915e-07,0.0,0.0,0.0,1.21846967915e-07,-0.69627215,0.4511059,9.0809579,9e-08,0.0,0.0,0.0,9e-08,0.0,0.0,0.0,9e-08
1538768561346403079,2828,1538768561345637767,base_link,0.0477125698526,0.0219595377518,-0.944697110813,0.323710763183,1.0,0.0,0.0,0.0,1.0,0.0,0.0,0.0,1.0,-0.0186677668244,-0.0308052729815,0.0191828943789,1.21846967915e-07,0.0,0.0,0.0,1.21846967915e-07,0.0,0.0,0.0,1.21846967915e-07,-0.5687857,0.5295591,11.3168741,9e-08,0.0,0.0,0.0,9e-08,0.0,0.0,0.0,9e-08
1538768561782624135,2829,1538768561782212231,base_link,0.0350274853735,0.026045723046,-0.943384751697,0.32881591483,1.0,0.0,0.0,0.0,1.0,0.0,0.0,0.0,1.0,0.158208310604,-0.0510754808784,0.0718814283609,1.21846967915e-07,0.0,0.0,0.0,1.21846967915e-07,0.0,0.0,0.0,1.21846967915e-07,-0.36284605,0.2549729,11.76798,9e-08,0.0,0.0,0.0,9e-08,0.0,0.0,0.0,9e-08
1538768562194774279,2830,1538768562193553767,base_link,0.0259950151968,0.022158017867,-0.940112695243,0.339148052732,1.0,0.0,0.0,0.0,1.0,0.0,0.0,0.0,1.0,-0.154126733541,-0.0676430612803,0.035380885005,1.21846967915e-07,0.0,0.0,0.0,1.21846967915e-07,0.0,0.0,0.0,1.21846967915e-07,-0.4314926,0.34323275,10.4735022,9e-08,0.0,0.0,0.0,9e-08,0.0,0.0,0.0,9e-08
1538768562556550439,2831,1538768562554887751,base_link,0.00865601306103,0.0126492618657,-0.93662073447,0.350009527545,1.0,0.0,0.0,0.0,1.0,0.0,0.0,0.0,1.0,0.0310131479055,-0.106545217335,0.0903650298715,1.21846967915e-07,0.0,0.0,0.0,1.21846967915e-07,0.0,0.0,0.0,1.21846967915e-07,-0.32361945,0.3726527,12.44463885,9e-08,0.0,0.0,0.0,9e-08,0.0,0.0,0.0,9e-08
1538768562967294375,2832,1538768562962282823,base_link,-0.0140154509885,0.0152762195817,-0.931439213825,0.363305925079,1.0,0.0,0.0,0.0,1.0,0.0,0.0,0.0,1.0,0.17275762558,-0.0615971684456,0.0478951931,1.21846967915e-07,0.0,0.0,0.0,1.21846967915e-07,0.0,0.0,0.0,1.21846967915e-07,-0.18632635,0.5687857,12.09159945,9e-08,0.0,0.0,0.0,9e-08,0.0,0.0,0.0,9e-08
1538768563305250439,2833,1538768563304859015,base_link,-0.0136115169208,-0.0062391693081,-0.929396750522,0.368778360934,1.0,0.0,0.0,0.0,1.0,0.0,0.0,0.0,1.0,0.0855897217989,-0.0533242449164,0.0368581824005,1.21846967915e-07,0.0,0.0,0.0,1.21846967915e-07,0.0,0.0,0.0,1.21846967915e-07,-0.08825985,0.1765197,11.24822755,9e-08,0.0,0.0,0.0,9e-08,0.0,0.0,0.0,9e-08
1538768563710493191,2834,1538768563710177735,base_link,-0.00499273432509,-0.0315442770651,-0.922045027457,0.385762878631,1.0,0.0,0.0,0.0,1.0,0.0,0.0,0.0,1.0,0.0720066204667,-0.000703151337802,0.0812134295702,1.21846967915e-07,0.0,0.0,0.0,1.21846967915e-07,0.0,0.0,0.0,1.21846967915e-07,-0.1372931,0.5687857,9.65955025,9e-08,0.0,0.0,0.0,9e-08,0.0,0.0,0.0,9e-08
1538768564110074951,2835,1538768564109770375,base_link,0.00744240139712,-0.0516767831715,-0.919506972177,0.389590873687,1.0,0.0,0.0,0.0,1.0,0.0,0.0,0.0,1.0,0.151297181845,0.0355848222971,0.0194093883038,1.21846967915e-07,0.0,0.0,0.0,1.21846967915e-07,0.0,0.0,0.0,1.21846967915e-07,-0.08825985,0.588399,9.34573745,9e-08,0.0,0.0,0.0,9e-08,0.0,0.0,0.0,9e-08
1538768564515606247,2836,1538768564515312871,base_link,0.0171474842396,-0.0518190295713,-0.922390109122,0.382383627464,1.0,0.0,0.0,0.0,1.0,0.0,0.0,0.0,1.0,0.00910945329815,0.04254758358,-0.0744728446007,1.21846967915e-07,0.0,0.0,0.0,1.21846967915e-07,0.0,0.0,0.0,1.21846967915e-07,-0.0784532,0.46091255,8.6690786,9e-08,0.0,0.0,0.0,9e-08,0.0,0.0,0.0,9e-08
1538768564845915463,2837,1538768564845477031,base_link,0.0297919767651,-0.0596072273815,-0.926776881049,0.369653931829,1.0,0.0,0.0,0.0,1.0,0.0,0.0,0.0,1.0,0.0895105227828,0.0328126400709,-0.0664450526237,1.21846967915e-07,0.0,0.0,0.0,1.21846967915e-07,0.0,0.0,0.0,1.21846967915e-07,-0.0392266,0.196133,8.3552658,9e-08,0.0,0.0,0.0,9e-08,0.0,0.0,0.0,9e-08
1538768565151128167,2838,1538768565150872103,base_link,0.0390076949267,-0.0768204612068,-0.927999976446,0.362481806707,1.0,0.0,0.0,0.0,1.0,0.0,0.0,0.0,1.0,0.152192771435,-0.00460266461596,-0.0249092578888,1.21846967915e-07,0.0,0.0,0.0,1.21846967915e-07,0.0,0.0,0.0,1.21846967915e-07,-0.00980665,0.2745862,9.3359308,9e-08,0.0,0.0,0.0,9e-08,0.0,0.0,0.0,9e-08
1538768565442794087,2839,1538768565442512839,base_link,0.0424372696993,-0.096598639453,-0.926860832382,0.360273199658,1.0,0.0,0.0,0.0,1.0,0.0,0.0,0.0,1.0,-0.0424512811005,-0.0387121960521,-0.0079861972481,1.21846967915e-07,0.0,0.0,0.0,1.21846967915e-07,0.0,0.0,0.0,1.21846967915e-07,0.02941995,0.40207265,10.5715687,9e-08,0.0,0.0,0.0,9e-08,0.0,0.0,0.0,9e-08
1538768565794966087,2840,1538768565794706471,base_link,0.0323311005116,-0.0903240877465,-0.929274205609,0.356715166347,1.0,0.0,0.0,0.0,1.0,0.0,0.0,0.0,1.0,-0.105727538466,-0.053210940212,-0.0442814640701,1.21846967915e-07,0.0,0.0,0.0,1.21846967915e-07,0.0,0.0,0.0,1.21846967915e-07,0.196133,0.6080123,11.0619012,9e-08,0.0,0.0,0.0,9e-08,0.0,0.0,0.0,9e-08
1538768566103945287,2841,1538768566103500359,base_link,0.0196733562169,-0.0716547046818,-0.934198215854,0.348930158982,1.0,0.0,0.0,0.0,1.0,0.0,0.0,0.0,1.0,-0.0915642753243,-0.0371319875121,-0.0528316833079,1.21846967915e-07,0.0,0.0,0.0,1.21846967915e-07,0.0,0.0,0.0,1.21846967915e-07,0.22555295,0.4118793,10.97364135,9e-08,0.0,0.0,0.0,9e-08,0.0,0.0,0.0,9e-08
1538768566563643815,2842,1538768566563375303,base_link,0.0111438007255,-0.0588448298256,-0.937844119762,0.341850126132,1.0,0.0,0.0,0.0,1.0,0.0,0.0,0.0,1.0,0.0639926493168,-0.00927612837404,-0.00298730004579,1.21846967915e-07,0.0,0.0,0.0,1.21846967915e-07,0.0,0.0,0.0,1.21846967915e-07,0.2549729,0.2941995,10.64021525,9e-08,0.0,0.0,0.0,9e-08,0.0,0.0,0.0,9e-08
1538768566945218151,2843,1538768566943481703,base_link,0.00854862018195,-0.0526290736201,-0.937310902682,0.344391308568,1.0,0.0,0.0,0.0,1.0,0.0,0.0,0.0,1.0,-0.0588805601001,-0.00399924023077,0.0214574318379,1.21846967915e-07,0.0,0.0,0.0,1.21846967915e-07,0.0,0.0,0.0,1.21846967915e-07,0.2353596,0.28439285,10.5715687,9e-08,0.0,0.0,0.0,9e-08,0.0,0.0,0.0,9e-08
1538768567250338439,2844,1538768567249948167,base_link,0.0065970280553,-0.0484848422297,-0.936812944971,0.34639169365,1.0,0.0,0.0,0.0,1.0,0.0,0.0,0.0,1.0,-0.0600433982909,0.000811039470136,0.00261913519353,1.21846967915e-07,0.0,0.0,0.0,1.21846967915e-07,0.0,0.0,0.0,1.21846967915e-07,0.196133,0.4511059,10.2773692,9e-08,0.0,0.0,0.0,9e-08,0.0,0.0,0.0,9e-08
1538768567649292647,2845,1538768567648985063,base_link,0.00538638612494,-0.0393482364631,-0.937418775052,0.345931703247,1.0,0.0,0.0,0.0,1.0,0.0,0.0,0.0,1.0,-0.0526592582464,0.017453905195,-0.0106864124537,1.21846967915e-07,0.0,0.0,0.0,1.21846967915e-07,0.0,0.0,0.0,1.21846967915e-07,0.196133,0.4511059,9.6889702,9e-08,0.0,0.0,0.0,9e-08,0.0,0.0,0.0,9e-08
1538768568064822919,2846,1538768568064492455,base_link,0.00332847665055,-0.0227519016353,-0.938377979982,0.344844949073,1.0,0.0,0.0,0.0,1.0,0.0,0.0,0.0,1.0,-0.096486531198,0.0278379451483,-0.0165049768984,1.21846967915e-07,0.0,0.0,0.0,1.21846967915e-07,0.0,0.0,0.0,1.21846967915e-07,0.1372931,0.73549875,9.2574776,9e-08,0.0,0.0,0.0,9e-08,0.0,0.0,0.0,9e-08
1538768568487884839,2847,1538768568487374471,base_link,0.00299715243126,-0.00343417306726,-0.94387849847,0.33026141715,1.0,0.0,0.0,0.0,1.0,0.0,0.0,0.0,1.0,-0.0117253046483,0.0283371750265,-0.0282878950238,1.21846967915e-07,0.0,0.0,0.0,1.21846967915e-07,0.0,0.0,0.0,1.21846967915e-07,0.2157463,0.40207265,9.60071035,9e-08,0.0,0.0,0.0,9e-08,0.0,0.0,0.0,9e-08
1538768568898086695,2848,1538768568897219591,base_link,0.00336775213539,0.00426646490126,-0.943656901566,0.330880805805,1.0,0.0,0.0,0.0,1.0,0.0,0.0,0.0,1.0,0.222586676478,0.0492478124797,0.0280100852251,1.21846967915e-07,0.0,0.0,0.0,1.21846967915e-07,0.0,0.0,0.0,1.21846967915e-07,0.392266,0.24516625,9.91452315,9e-08,0.0,0.0,0.0,9e-08,0.0,0.0,0.0,9e-08
1538768569310231303,2849,1538768569309612327,base_link,0.0275897888047,-0.0451598798777,-0.93556262275,0.349173263176,1.0,0.0,0.0,0.0,1.0,0.0,0.0,0.0,1.0,0.284535080194,-0.00117155676708,0.155944019556,1.21846967915e-07,0.0,0.0,0.0,1.21846967915e-07,0.0,0.0,0.0,1.21846967915e-07,0.3334261,0.5491724,9.2574776,9e-08,0.0,0.0,0.0,9e-08,0.0,0.0,0.0,9e-08
1538768569699436615,2850,1538768569699139079,base_link,0.0286764777509,-0.0453734409053,-0.934146719035,0.35282972919,1.0,0.0,0.0,0.0,1.0,0.0,0.0,0.0,1.0,-0.0173140037805,0.0155633091927,-0.133397638798,1.21846967915e-07,0.0,0.0,0.0,1.21846967915e-07,0.0,0.0,0.0,1.21846967915e-07,0.30400615,0.71588545,10.3165958,9e-08,0.0,0.0,0.0,9e-08,0.0,0.0,0.0,9e-08
1538768569975601991,2851,1538768569975344487,base_link,0.0349925602534,-0.0613059397772,-0.93986202782,0.33418029735,1.0,0.0,0.0,0.0,1.0,0.0,0.0,0.0,1.0,0.0634786784649,-0.0274556167424,-0.112596772611,1.21846967915e-07,0.0,0.0,0.0,1.21846967915e-07,0.0,0.0,0.0,1.21846967915e-07,0.18632635,0.5295591,9.1201845,9e-08,0.0,0.0,0.0,9e-08,0.0,0.0,0.0,9e-08
1538768570426493415,2852,1538768570426133575,base_link,0.0326332136346,-0.0827177625855,-0.943918217642,0.317979942016,1.0,0.0,0.0,0.0,1.0,0.0,0.0,0.0,1.0,0.14460273087,-0.0775522142649,0.0165063869208,1.21846967915e-07,0.0,0.0,0.0,1.21846967915e-07,0.0,0.0,0.0,1.21846967915e-07,0.36284605,0.16671305,10.5127288,9e-08,0.0,0.0,0.0,9e-08,0.0,0.0,0.0,9e-08
1538768570857765799,2853,1538768570857451431,base_link,0.0167595271486,-0.0871227519775,-0.941385820677,0.325455804936,1.0,0.0,0.0,0.0,1.0,0.0,0.0,0.0,1.0,-0.132657498121,-0.0885315164924,0.00365753471851,1.21846967915e-07,0.0,0.0,0.0,1.21846967915e-07,0.0,0.0,0.0,1.21846967915e-07,0.3726527,0.69627215,11.0815145,9e-08,0.0,0.0,0.0,9e-08,0.0,0.0,0.0,9e-08
1538768571220773415,2854,1538768571220512487,base_link,-0.000219249944822,-0.0636422595947,-0.946192933706,0.317283070661,1.0,0.0,0.0,0.0,1.0,0.0,0.0,0.0,1.0,-0.226138874888,-0.0405577234924,-0.0660451129079,1.21846967915e-07,0.0,0.0,0.0,1.21846967915e-07,0.0,0.0,0.0,1.21846967915e-07,0.4314926,0.5491724,10.5519554,9e-08,0.0,0.0,0.0,9e-08,0.0,0.0,0.0,9e-08
1538768571623827015,2855,1538768571623516423,base_link,-0.0171392148329,-0.0300933175782,-0.950767555888,0.307963787195,1.0,0.0,0.0,0.0,1.0,0.0,0.0,0.0,1.0,-0.166908502579,-0.0284676812589,0.00167213729583,1.21846967915e-07,0.0,0.0,0.0,1.21846967915e-07,0.0,0.0,0.0,1.21846967915e-07,0.50013915,0.3530394,10.395049,9e-08,0.0,0.0,0.0,9e-08,0.0,0.0,0.0,9e-08
1538768572028454375,2856,1538768572028174311,base_link,-0.0250152212881,-0.00583384389452,-0.94797436812,0.317308686231,1.0,0.0,0.0,0.0,1.0,0.0,0.0,0.0,1.0,-0.0723214223981,0.025479586795,0.0791012793779,1.21846967915e-07,0.0,0.0,0.0,1.21846967915e-07,0.0,0.0,0.0,1.21846967915e-07,0.50013915,0.40207265,10.3165958,9e-08,0.0,0.0,0.0,9e-08,0.0,0.0,0.0,9e-08
1538768572548734599,2857,1538768572548229543,base_link,-0.0174136470288,0.00271202338178,-0.942543330568,0.333618764204,1.0,0.0,0.0,0.0,1.0,0.0,0.0,0.0,1.0,0.0603563264012,0.0346466116607,0.0505404956639,1.21846967915e-07,0.0,0.0,0.0,1.21846967915e-07,0.0,0.0,0.0,1.21846967915e-07,0.4314926,0.4707192,8.6886919,9e-08,0.0,0.0,0.0,9e-08,0.0,0.0,0.0,9e-08
1538768572970587751,2858,1538768572969769575,base_link,-0.00295865548967,-0.0262763548467,-0.939195891417,0.342362201592,1.0,0.0,0.0,0.0,1.0,0.0,0.0,0.0,1.0,0.136820226908,0.0191997587681,0.0509243682027,1.21846967915e-07,0.0,0.0,0.0,1.21846967915e-07,0.0,0.0,0.0,1.21846967915e-07,0.55897905,0.4118793,10.05181625,9e-08,0.0,0.0,0.0,9e-08,0.0,0.0,0.0,9e-08
1538768573364537863,2859,1538768573364132903,base_link,0.0038031068249,-0.0321313040595,-0.936318959284,0.349656863458,1.0,0.0,0.0,0.0,1.0,0.0,0.0,0.0,1.0,-0.00998109392822,0.0328703932464,0.0274865236133,1.21846967915e-07,0.0,0.0,0.0,1.21846967915e-07,0.0,0.0,0.0,1.21846967915e-07,0.4314926,0.4903325,9.8262633,9e-08,0.0,0.0,0.0,9e-08,0.0,0.0,0.0,9e-08
1538768573821968551,2860,1538768573820710215,base_link,0.00393681683904,-0.0409591234118,-0.936588018211,0.348008241031,1.0,0.0,0.0,0.0,1.0,0.0,0.0,0.0,1.0,0.128223419189,-0.0441312119365,-0.0257744267583,1.21846967915e-07,0.0,0.0,0.0,1.21846967915e-07,0.0,0.0,0.0,1.21846967915e-07,0.6668522,0.51975245,11.5522337,9e-08,0.0,0.0,0.0,9e-08,0.0,0.0,0.0,9e-08
1538768574220757447,2861,1538768574215516199,base_link,-0.000952662887789,-0.044276748587,-0.936524204853,0.347794588361,1.0,0.0,0.0,0.0,1.0,0.0,0.0,0.0,1.0,-0.0100880693644,0.0201472435147,0.0125830350444,1.21846967915e-07,0.0,0.0,0.0,1.21846967915e-07,0.0,0.0,0.0,1.21846967915e-07,0.48052585,0.3726527,10.0812362,9e-08,0.0,0.0,0.0,9e-08,0.0,0.0,0.0,9e-08
1538768574618799687,2862,1538768574618326151,base_link,0.000913266622433,-0.0390056630749,-0.935289155422,0.351727053185,1.0,0.0,0.0,0.0,1.0,0.0,0.0,0.0,1.0,-0.0178701337427,0.0202403701842,-0.00406818417832,1.21846967915e-07,0.0,0.0,0.0,1.21846967915e-07,0.0,0.0,0.0,1.21846967915e-07,0.38245935,0.53936575,9.38496405,9e-08,0.0,0.0,0.0,9e-08,0.0,0.0,0.0,9e-08
1538768574986957351,2863,1538768574986149447,base_link,0.00130600474544,-0.0297440941143,-0.935713633553,0.351501890749,1.0,0.0,0.0,0.0,1.0,0.0,0.0,0.0,1.0,-0.0682505145669,0.0224375203252,-0.00429363315925,1.21846967915e-07,0.0,0.0,0.0,1.21846967915e-07,0.0,0.0,0.0,1.21846967915e-07,0.48052585,0.588399,10.1008495,9e-08,0.0,0.0,0.0,9e-08,0.0,0.0,0.0,9e-08
1538768575343422567,2864,1538768575343016743,base_link,0.0136136335286,-0.0399923801668,-0.935441048892,0.350949173755,1.0,0.0,0.0,0.0,1.0,0.0,0.0,0.0,1.0,0.156357780099,0.0464798472822,-0.000714667141438,1.21846967915e-07,0.0,0.0,0.0,1.21846967915e-07,0.0,0.0,0.0,1.21846967915e-07,0.28439285,0.196133,8.30623255,9e-08,0.0,0.0,0.0,9e-08,0.0,0.0,0.0,9e-08
1538768575687667463,2865,1538768575684369831,base_link,0.0171500941174,-0.0600083659448,-0.932494376304,0.35575147006,1.0,0.0,0.0,0.0,1.0,0.0,0.0,0.0,1.0,0.0613070130348,-0.0352398455143,0.0416353791952,1.21846967915e-07,0.0,0.0,0.0,1.21846967915e-07,0.0,0.0,0.0,1.21846967915e-07,0.3138128,0.4314926,9.9439431,9e-08,0.0,0.0,0.0,9e-08,0.0,0.0,0.0,9e-08
1538768576035346855,2866,1538768576035143655,base_link,0.0073615602153,-0.0607227028754,-0.931439614866,0.358718280334,1.0,0.0,0.0,0.0,1.0,0.0,0.0,0.0,1.0,-0.139666631818,-0.0699978917837,0.0210357215255,1.21846967915e-07,0.0,0.0,0.0,1.21846967915e-07,0.0,0.0,0.0,1.21846967915e-07,0.59820565,0.588399,11.4933938,9e-08,0.0,0.0,0.0,9e-08,0.0,0.0,0.0,9e-08
1538768576441042151,2867,1538768576440803143,base_link,-0.00337943896088,-0.0484036194965,-0.932002928582,0.359188265574,1.0,0.0,0.0,0.0,1.0,0.0,0.0,0.0,1.0,-0.021640682593,-0.00277781998739,-0.0245138853788,1.21846967915e-07,0.0,0.0,0.0,1.21846967915e-07,0.0,0.0,0.0,1.21846967915e-07,0.6080123,0.5295591,10.67944185,9e-08,0.0,0.0,0.0,9e-08,0.0,0.0,0.0,9e-08
1538768576890667975,2868,1538768576890310183,base_link,0.00315730474716,-0.0514468797181,-0.936955836722,0.345625534397,1.0,0.0,0.0,0.0,1.0,0.0,0.0,0.0,1.0,0.0911324620247,0.00511190295219,-0.0509940572083,1.21846967915e-07,0.0,0.0,0.0,1.21846967915e-07,0.0,0.0,0.0,1.21846967915e-07,0.38245935,0.2745862,9.97336305,9e-08,0.0,0.0,0.0,9e-08,0.0,0.0,0.0,9e-08
1538768577201437703,2869,1538768577201230183,base_link,0.00657342171139,-0.0608940960369,-0.935932418813,0.346812927398,1.0,0.0,0.0,0.0,1.0,0.0,0.0,0.0,1.0,-0.00810650363564,0.000825567636639,0.0684627518058,1.21846967915e-07,0.0,0.0,0.0,1.21846967915e-07,0.0,0.0,0.0,1.21846967915e-07,0.4314926,0.30400615,9.69877685,9e-08,0.0,0.0,0.0,9e-08,0.0,0.0,0.0,9e-08
1538768577696396071,2870,1538768577695335271,base_link,0.00657074787324,-0.0612356258441,-0.932989934179,0.354593860805,1.0,0.0,0.0,0.0,1.0,0.0,0.0,0.0,1.0,0.0427908562124,0.0023648692295,0.00333959795535,1.21846967915e-07,0.0,0.0,0.0,1.21846967915e-07,0.0,0.0,0.0,1.21846967915e-07,0.50013915,0.6472389,11.54242705,9e-08,0.0,0.0,0.0,9e-08,0.0,0.0,0.0,9e-08
1538768578111064199,2871,1538768578110599303,base_link,0.0174794084912,-0.0827551499888,-0.932402151016,0.351386232244,1.0,0.0,0.0,0.0,1.0,0.0,0.0,0.0,1.0,0.0412897765636,0.00779131893069,-0.0131379216909,1.21846967915e-07,0.0,0.0,0.0,1.21846967915e-07,0.0,0.0,0.0,1.21846967915e-07,0.36284605,0.4707192,9.7281968,9e-08,0.0,0.0,0.0,9e-08,0.0,0.0,0.0,9e-08
1538768578556139687,2872,1538768578555788007,base_link,0.0440133902892,-0.139406104922,-0.930608725623,0.335553511651,1.0,0.0,0.0,0.0,1.0,0.0,0.0,0.0,1.0,0.409238755703,-0.0559157729149,0.0408332422376,1.21846967915e-07,0.0,0.0,0.0,1.21846967915e-07,0.0,0.0,0.0,1.21846967915e-07,0.4118793,-0.00980665,11.34629405,9e-08,0.0,0.0,0.0,9e-08,0.0,0.0,0.0,9e-08
1538768578937263399,2873,1538768578936559911,base_link,0.0370308435955,-0.143761005467,-0.930478147597,0.334920747004,1.0,0.0,0.0,0.0,1.0,0.0,0.0,0.0,1.0,0.0510498955846,-0.0250742528588,-0.0968176946044,1.21846967915e-07,0.0,0.0,0.0,1.21846967915e-07,0.0,0.0,0.0,1.21846967915e-07,0.2353596,0.83356525,9.79684335,9e-08,0.0,0.0,0.0,9e-08,0.0,0.0,0.0,9e-08
1538768579201096135,2874,1538768579200646183,base_link,0.0430129053935,-0.162107141847,-0.934494457085,0.313992474765,1.0,0.0,0.0,0.0,1.0,0.0,0.0,0.0,1.0,0.214499279857,-0.0188373215497,-0.169934228063,1.21846967915e-07,0.0,0.0,0.0,1.21846967915e-07,0.0,0.0,0.0,1.21846967915e-07,0.22555295,0.73549875,8.629852,9e-08,0.0,0.0,0.0,9e-08,0.0,0.0,0.0,9e-08
1538768579525815143,2875,1538768579524451399,base_link,0.0447182545684,-0.171434403347,-0.942303355797,0.284033288032,1.0,0.0,0.0,0.0,1.0,0.0,0.0,0.0,1.0,-0.00747440010309,-0.0352609269321,-0.212061733007,1.21846967915e-07,0.0,0.0,0.0,1.21846967915e-07,0.0,0.0,0.0,1.21846967915e-07,0.3726527,0.7256921,10.91480145,9e-08,0.0,0.0,0.0,9e-08,0.0,0.0,0.0,9e-08
1538768579813453319,2876,1538768579812460551,base_link,0.0496115870686,-0.181949958603,-0.948715333384,0.253716611982,1.0,0.0,0.0,0.0,1.0,0.0,0.0,0.0,1.0,0.0883052498102,-0.0246104765683,-0.203236103058,1.21846967915e-07,0.0,0.0,0.0,1.21846967915e-07,0.0,0.0,0.0,1.21846967915e-07,0.22555295,0.6472389,9.3163175,9e-08,0.0,0.0,0.0,9e-08,0.0,0.0,0.0,9e-08
1538768580114246183,2877,1538768580107685255,base_link,0.0504496444309,-0.199299533779,-0.954325148428,0.216790314104,1.0,0.0,0.0,0.0,1.0,0.0,0.0,0.0,1.0,0.203493386507,-0.0925662368536,-0.262664198875,1.21846967915e-07,0.0,0.0,0.0,1.21846967915e-07,0.0,0.0,0.0,1.21846967915e-07,0.3138128,0.61781895,9.9831697,9e-08,0.0,0.0,0.0,9e-08,0.0,0.0,0.0,9e-08
1538768580546629447,2878,1538768580546349991,base_link,0.0403885163853,-0.226685419566,-0.959711587158,0.161047066955,1.0,0.0,0.0,0.0,1.0,0.0,0.0,0.0,1.0,-0.163264766335,-0.172334298491,-0.156025111675,1.21846967915e-07,0.0,0.0,0.0,1.21846967915e-07,0.0,0.0,0.0,1.21846967915e-07,0.4118793,0.87279185,11.3168741,9e-08,0.0,0.0,0.0,9e-08,0.0,0.0,0.0,9e-08
1538768580912086695,2879,1538768580909693415,base_link,0.0178770823532,-0.215183250466,-0.968520655157,0.12387218889,1.0,0.0,0.0,0.0,1.0,0.0,0.0,0.0,1.0,-0.0277656111866,-0.161509156227,-0.169237613678,1.21846967915e-07,0.0,0.0,0.0,1.21846967915e-07,0.0,0.0,0.0,1.21846967915e-07,0.57859235,1.16699135,12.5721253,9e-08,0.0,0.0,0.0,9e-08,0.0,0.0,0.0,9e-08
1538768581333394631,2880,1538768581332524359,base_link,0.00882371804127,-0.240298099386,-0.968371047177,0.0666069097018,1.0,0.0,0.0,0.0,1.0,0.0,0.0,0.0,1.0,0.319871604443,-0.0898655876517,-0.206077262759,1.21846967915e-07,0.0,0.0,0.0,1.21846967915e-07,0.0,0.0,0.0,1.21846967915e-07,0.4903325,0.42168595,9.77723005,9e-08,0.0,0.0,0.0,9e-08,0.0,0.0,0.0,9e-08
1538768581767256615,2881,1538768581766811303,base_link,-0.00412348704711,-0.304361202139,-0.952427781513,0.0151187462947,1.0,0.0,0.0,0.0,1.0,0.0,0.0,0.0,1.0,0.256750404835,-0.153791442513,-0.207102015615,1.21846967915e-07,0.0,0.0,0.0,1.21846967915e-07,0.0,0.0,0.0,1.21846967915e-07,0.6472389,0.8629852,10.20872265,9e-08,0.0,0.0,0.0,9e-08,0.0,0.0,0.0,9e-08
1538768582139680455,2882,1538768582139324551,base_link,-0.0156008914127,-0.330728495815,-0.942358053213,-0.0483381193967,1.0,0.0,0.0,0.0,1.0,0.0,0.0,0.0,1.0,0.0795556455851,-0.141946479678,-0.431755185127,1.21846967915e-07,0.0,0.0,0.0,1.21846967915e-07,0.0,0.0,0.0,1.21846967915e-07,0.9022118,1.44157755,9.9047165,9e-08,0.0,0.0,0.0,9e-08,0.0,0.0,0.0,9e-08
1538768582533074919,2883,1538768582531913767,base_link,-0.0397473242395,-0.381772166467,-0.911958522441,-0.144920034758,1.0,0.0,0.0,0.0,1.0,0.0,0.0,0.0,1.0,0.151233002543,-0.340890139341,-0.284993350506,1.21846967915e-07,0.0,0.0,0.0,1.21846967915e-07,0.0,0.0,0.0,1.21846967915e-07,1.12776475,0.7649187,12.0621795,9e-08,0.0,0.0,0.0,9e-08,0.0,0.0,0.0,9e-08
1538768582873730855,2884,1538768582873519975,base_link,-0.0835590788192,-0.372149173348,-0.899838114993,-0.211693740884,1.0,0.0,0.0,0.0,1.0,0.0,0.0,0.0,1.0,-0.207671329379,-0.376236379147,-0.253702551126,1.21846967915e-07,0.0,0.0,0.0,1.21846967915e-07,0.0,0.0,0.0,1.21846967915e-07,1.5102241,1.1964113,12.91535805,9e-08,0.0,0.0,0.0,9e-08,0.0,0.0,0.0,9e-08
1538768583310361255,2885,1538768583310114823,base_link,-0.131663876006,-0.336778560144,-0.880482516313,-0.306586633189,1.0,0.0,0.0,0.0,1.0,0.0,0.0,0.0,1.0,-0.0848940834403,-0.343649029732,-0.322676122189,1.21846967915e-07,0.0,0.0,0.0,1.21846967915e-07,0.0,0.0,0.0,1.21846967915e-07,1.85345685,1.4317709,14.97475455,9e-08,0.0,0.0,0.0,9e-08,0.0,0.0,0.0,9e-08
1538768583610807495,2886,1538768583610557383,base_link,-0.170693537942,-0.344968284982,-0.845951691984,-0.369088516877,1.0,0.0,0.0,0.0,1.0,0.0,0.0,0.0,1.0,0.0201945323497,-0.331186830997,-0.353756725788,1.21846967915e-07,0.0,0.0,0.0,1.21846967915e-07,0.0,0.0,0.0,1.21846967915e-07,1.6082906,1.2356379,12.99381125,9e-08,0.0,0.0,0.0,9e-08,0.0,0.0,0.0,9e-08
1538768583988793735,2887,1538768583988527911,base_link,-0.192436297899,-0.30286936475,-0.817804500177,-0.449926903659,1.0,0.0,0.0,0.0,1.0,0.0,0.0,0.0,1.0,-0.135972470045,-0.356049984694,-0.352426737547,1.21846967915e-07,0.0,0.0,0.0,1.21846967915e-07,0.0,0.0,0.0,1.21846967915e-07,1.6082906,0.99047165,15.494507,9e-08,0.0,0.0,0.0,9e-08,0.0,0.0,0.0,9e-08
1538768584479757319,2888,1538768584477397863,base_link,-0.221974674988,-0.224032014482,-0.786788767324,-0.530566052216,1.0,0.0,0.0,0.0,1.0,0.0,0.0,0.0,1.0,-0.304782122374,-0.209625139832,-0.191373646259,1.21846967915e-07,0.0,0.0,0.0,1.21846967915e-07,0.0,0.0,0.0,1.21846967915e-07,1.28467115,1.38273765,16.05348605,9e-08,0.0,0.0,0.0,9e-08,0.0,0.0,0.0,9e-08
1538768584954818183,2889,1538768584954479303,base_link,-0.213174282814,-0.188269900351,-0.743799665895,-0.604874554584,1.0,0.0,0.0,0.0,1.0,0.0,0.0,0.0,1.0,-0.0678003430367,-0.144255548716,-0.254408627748,1.21846967915e-07,0.0,0.0,0.0,1.21846967915e-07,0.0,0.0,0.0,1.21846967915e-07,0.588399,0.7453054,10.01258965,9e-08,0.0,0.0,0.0,9e-08,0.0,0.0,0.0,9e-08
1538768585249697639,2890,1538768585246138023,base_link,-0.206966881152,-0.152028153217,-0.724294124091,-0.639882936593,1.0,0.0,0.0,0.0,1.0,0.0,0.0,0.0,1.0,-0.357879340649,-0.12885029614,-0.0936783030629,1.21846967915e-07,0.0,0.0,0.0,1.21846967915e-07,0.0,0.0,0.0,1.21846967915e-07,0.6472389,0.48052585,11.07170785,9e-08,0.0,0.0,0.0,9e-08,0.0,0.0,0.0,9e-08
1538768585690969511,2891,1538768585690701255,base_link,-0.160109056861,-0.0779323161847,-0.714861209766,-0.67621379369,1.0,0.0,0.0,0.0,1.0,0.0,0.0,0.0,1.0,-0.496714890003,-0.0334713943303,-0.150614112616,1.21846967915e-07,0.0,0.0,0.0,1.21846967915e-07,0.0,0.0,0.0,1.21846967915e-07,0.51975245,0.7453054,10.30678915,9e-08,0.0,0.0,0.0,9e-08,0.0,0.0,0.0,9e-08
1538768586118144807,2892,1538768586117921159,base_link,-0.0880867450529,-0.016725568293,-0.699500473308,-0.708985238601,1.0,0.0,0.0,0.0,1.0,0.0,0.0,0.0,1.0,-0.333311200142,0.0492380820215,-0.0769849121571,1.21846967915e-07,0.0,0.0,0.0,1.21846967915e-07,0.0,0.0,0.0,1.21846967915e-07,0.3726527,0.4118793,7.7276402,9e-08,0.0,0.0,0.0,9e-08,0.0,0.0,0.0,9e-08
1538768586473838247,2893,1538768586473582183,base_link,-0.0431330944115,0.0173956927159,-0.698218486617,-0.714372361579,1.0,0.0,0.0,0.0,1.0,0.0,0.0,0.0,1.0,-0.298950731754,0.0502677075565,0.0471463650465,1.21846967915e-07,0.0,0.0,0.0,1.21846967915e-07,0.0,0.0,0.0,1.21846967915e-07,0.5099458,0.44129925,10.2773692,9e-08,0.0,0.0,0.0,9e-08,0.0,0.0,0.0,9e-08
1538768587073809127,2894,1538768587073528775,base_link,0.0202943358835,0.0527179313975,-0.704641627349,-0.707311202121,1.0,0.0,0.0,0.0,1.0,0.0,0.0,0.0,1.0,-0.101529255509,0.0623784922063,0.0585358031094,1.21846967915e-07,0.0,0.0,0.0,1.21846967915e-07,0.0,0.0,0.0,1.21846967915e-07,0.3530394,0.30400615,9.218251,9e-08,0.0,0.0,0.0,9e-08,0.0,0.0,0.0,9e-08
1538768587401779303,2895,1538768587401255079,base_link,0.0390133752086,0.0555071831789,-0.714131950846,-0.696715484219,1.0,0.0,0.0,0.0,1.0,0.0,0.0,0.0,1.0,0.100351117551,0.0348052717745,0.0646131336689,1.21846967915e-07,0.0,0.0,0.0,1.21846967915e-07,0.0,0.0,0.0,1.21846967915e-07,0.48052585,0.44129925,9.99297635,9e-08,0.0,0.0,0.0,9e-08,0.0,0.0,0.0,9e-08
1538768587865109703,2896,1538768587864872359,base_link,0.0261279051677,0.0284811727926,-0.725921325033,-0.686690894967,1.0,0.0,0.0,0.0,1.0,0.0,0.0,0.0,1.0,0.019232917577,0.0197173487395,0.065652012825,1.21846967915e-07,0.0,0.0,0.0,1.21846967915e-07,0.0,0.0,0.0,1.21846967915e-07,0.6668522,0.08825985,10.5127288,9e-08,0.0,0.0,0.0,9e-08,0.0,0.0,0.0,9e-08
1538768588296874535,2897,1538768588296641095,base_link,0.0403386267651,0.0304207907495,-0.753722091877,-0.655248333762,1.0,0.0,0.0,0.0,1.0,0.0,0.0,0.0,1.0,-0.224308207631,0.0806731060147,0.151414185762,1.21846967915e-07,0.0,0.0,0.0,1.21846967915e-07,0.0,0.0,0.0,1.21846967915e-07,0.4314926,1.176798,9.2574776,9e-08,0.0,0.0,0.0,9e-08,0.0,0.0,0.0,9e-08
1538768588798195591,2898,1538768588797239399,base_link,0.0312805479918,0.00466733331455,-0.737770728594,-0.674310088422,1.0,0.0,0.0,0.0,1.0,0.0,0.0,0.0,1.0,0.458683073521,-0.00683711329475,-0.108861885965,1.21846967915e-07,0.0,0.0,0.0,1.21846967915e-07,0.0,0.0,0.0,1.21846967915e-07,0.1765197,0.0784532,9.4928372,9e-08,0.0,0.0,0.0,9e-08,0.0,0.0,0.0,9e-08
1538768589241798599,2899,1538768589241556071,base_link,-0.0537158439769,-0.0729779934278,-0.741594598186,-0.664700137297,1.0,0.0,0.0,0.0,1.0,0.0,0.0,0.0,1.0,0.32619458437,-0.0492572188377,0.068831384182,1.21846967915e-07,0.0,0.0,0.0,1.21846967915e-07,0.0,0.0,0.0,1.21846967915e-07,0.10787315,0.7649187,9.8851032,9e-08,0.0,0.0,0.0,9e-08,0.0,0.0,0.0,9e-08
1538768589650548231,2900,1538768589650074119,base_link,-0.104520233896,-0.11555356593,-0.72853798924,-0.667049692557,1.0,0.0,0.0,0.0,1.0,0.0,0.0,0.0,1.0,0.488268584013,-0.0292761009187,-0.160828858614,1.21846967915e-07,0.0,0.0,0.0,1.21846967915e-07,0.0,0.0,0.0,1.21846967915e-07,0.1765197,0.89240515,10.52253545,9e-08,0.0,0.0,0.0,9e-08,0.0,0.0,0.0,9e-08
1538768590011335303,2901,1538768590010831623,base_link,-0.158880001703,-0.167071859173,-0.684619066281,-0.691477312004,1.0,0.0,0.0,0.0,1.0,0.0,0.0,0.0,1.0,0.259611487389,-0.0812971964478,-0.261415362358,1.21846967915e-07,0.0,0.0,0.0,1.21846967915e-07,0.0,0.0,0.0,1.21846967915e-07,0.38245935,0.42168595,10.40485565,9e-08,0.0,0.0,0.0,9e-08,0.0,0.0,0.0,9e-08
1538768590457183079,2902,1538768590456636487,base_link,-0.225356922492,-0.201063039977,-0.637923515553,-0.708407721404,1.0,0.0,0.0,0.0,1.0,0.0,0.0,0.0,1.0,0.21370215714,-0.176527887583,-0.16097112,1.21846967915e-07,0.0,0.0,0.0,1.21846967915e-07,0.0,0.0,0.0,1.21846967915e-07,0.4314926,0.8433719,11.1207411,9e-08,0.0,0.0,0.0,9e-08,0.0,0.0,0.0,9e-08
1538768590802607591,2903,1538768590802390791,base_link,-0.25670420544,-0.205377056984,-0.592538009573,-0.735405957676,1.0,0.0,0.0,0.0,1.0,0.0,0.0,0.0,1.0,0.100893989205,-0.1841365695,-0.336246341467,1.21846967915e-07,0.0,0.0,0.0,1.21846967915e-07,0.0,0.0,0.0,1.21846967915e-07,0.5491724,1.1571847,11.30706745,9e-08,0.0,0.0,0.0,9e-08,0.0,0.0,0.0,9e-08
1538768591150271463,2904,1538768591149696647,base_link,-0.27172946816,-0.203388761924,-0.524184967509,-0.781041757843,1.0,0.0,0.0,0.0,1.0,0.0,0.0,0.0,1.0,-0.085851803422,-0.255987673998,-0.417330652475,1.21846967915e-07,0.0,0.0,0.0,1.21846967915e-07,0.0,0.0,0.0,1.21846967915e-07,0.5491724,0.89240515,10.50292215,9e-08,0.0,0.0,0.0,9e-08,0.0,0.0,0.0,9e-08
1538768591606406791,2905,1538768591605721991,base_link,-0.314385119265,-0.184654871809,-0.439827921704,-0.820741112892,1.0,0.0,0.0,0.0,1.0,0.0,0.0,0.0,1.0,0.102449163795,-0.344653517008,-0.295302838087,1.21846967915e-07,0.0,0.0,0.0,1.21846967915e-07,0.0,0.0,0.0,1.21846967915e-07,1.02969825,0.9218251,12.73883835,9e-08,0.0,0.0,0.0,9e-08,0.0,0.0,0.0,9e-08
1538768591985507751,2906,1538768591985159815,base_link,-0.334119957539,-0.146426196707,-0.370000806224,-0.854413615461,1.0,0.0,0.0,0.0,1.0,0.0,0.0,0.0,1.0,-0.198705285788,-0.323035687208,-0.366535484791,1.21846967915e-07,0.0,0.0,0.0,1.21846967915e-07,0.0,0.0,0.0,1.21846967915e-07,1.48080415,1.79461695,14.95514125,9e-08,0.0,0.0,0.0,9e-08,0.0,0.0,0.0,9e-08
1538768592439505575,2907,1538768592439206023,base_link,-0.356230967843,-0.108514121146,-0.258340666119,-0.891394572168,1.0,0.0,0.0,0.0,1.0,0.0,0.0,0.0,1.0,-0.0278307646513,-0.398170441389,-0.329695016146,1.21846967915e-07,0.0,0.0,0.0,1.21846967915e-07,0.0,0.0,0.0,1.21846967915e-07,1.38273765,0.81395195,13.8273765,9e-08,0.0,0.0,0.0,9e-08,0.0,0.0,0.0,9e-08
1538768592862847975,2908,1538768592862406311,base_link,-0.370025092487,-0.0582639001816,-0.165654052253,-0.912274894885,1.0,0.0,0.0,0.0,1.0,0.0,0.0,0.0,1.0,-0.0765938833356,-0.415571302176,-0.29841285944,1.21846967915e-07,0.0,0.0,0.0,1.21846967915e-07,0.0,0.0,0.0,1.21846967915e-07,1.46119085,0.9414384,14.71978165,9e-08,0.0,0.0,0.0,9e-08,0.0,0.0,0.0,9e-08
1538768593258714023,2909,1538768593258477063,base_link,-0.348885526202,0.00408759419759,-0.0878301182067,-0.933031645506,1.0,0.0,0.0,0.0,1.0,0.0,0.0,0.0,1.0,-0.297499626875,-0.336075752974,-0.301674336195,1.21846967915e-07,0.0,0.0,0.0,1.21846967915e-07,0.0,0.0,0.0,1.21846967915e-07,1.6867438,1.372931,16.0240661,9e-08,0.0,0.0,0.0,9e-08,0.0,0.0,0.0,9e-08
1538768593675895079,2910,1538768593675008263,base_link,-0.343823040583,0.0440748845611,0.0021418138559,-0.937997086322,1.0,0.0,0.0,0.0,1.0,0.0,0.0,0.0,1.0,-0.0190052874386,-0.326660007238,-0.332460910082,1.21846967915e-07,0.0,0.0,0.0,1.21846967915e-07,0.0,0.0,0.0,1.21846967915e-07,0.79433865,0.97085835,10.9442214,9e-08,0.0,0.0,0.0,9e-08,0.0,0.0,0.0,9e-08
1538768594047869575,2911,1538768594047472711,base_link,-0.347927500211,0.0859288014602,0.0784400040559,-0.930274078667,1.0,0.0,0.0,0.0,1.0,0.0,0.0,0.0,1.0,-0.0741979777813,-0.311993867159,-0.252137839794,1.21846967915e-07,0.0,0.0,0.0,1.21846967915e-07,0.0,0.0,0.0,1.21846967915e-07,1.0591182,0.91201845,13.18994425,9e-08,0.0,0.0,0.0,9e-08,0.0,0.0,0.0,9e-08
1538768594419914919,2912,1538768594419662023,base_link,-0.338457883181,0.115274924521,0.149412405953,-0.921864353382,1.0,0.0,0.0,0.0,1.0,0.0,0.0,0.0,1.0,-0.0389993488789,-0.274495989084,-0.332929462194,1.21846967915e-07,0.0,0.0,0.0,1.21846967915e-07,0.0,0.0,0.0,1.21846967915e-07,0.9414384,0.93163175,12.2583125,9e-08,0.0,0.0,0.0,9e-08,0.0,0.0,0.0,9e-08
1538768594823710791,2913,1538768594823393863,base_link,-0.310478701014,0.141140846874,0.222579788726,-0.913312911992,1.0,0.0,0.0,0.0,1.0,0.0,0.0,0.0,1.0,-0.306245177984,-0.223510488868,-0.232867956161,1.21846967915e-07,0.0,0.0,0.0,1.21846967915e-07,0.0,0.0,0.0,1.21846967915e-07,0.87279185,1.08853815,11.81701325,9e-08,0.0,0.0,0.0,9e-08,0.0,0.0,0.0,9e-08
1538768595162311559,2914,1538768595161990759,base_link,-0.264010104635,0.144464826718,0.281745392246,-0.911069762664,1.0,0.0,0.0,0.0,1.0,0.0,0.0,0.0,1.0,-0.27884632349,-0.139997914433,-0.338825345039,1.21846967915e-07,0.0,0.0,0.0,1.21846967915e-07,0.0,0.0,0.0,1.21846967915e-07,0.83356525,1.32389775,12.1210194,9e-08,0.0,0.0,0.0,9e-08,0.0,0.0,0.0,9e-08
1538768595657640871,2915,1538768595656150119,base_link,-0.173351473923,0.121774154412,0.371750009351,-0.903837514354,1.0,0.0,0.0,0.0,1.0,0.0,0.0,0.0,1.0,-0.52116382122,-0.10285256803,-0.224705085158,1.21846967915e-07,0.0,0.0,0.0,1.21846967915e-07,0.0,0.0,0.0,1.21846967915e-07,0.50013915,0.55897905,10.91480145,9e-08,0.0,0.0,0.0,9e-08,0.0,0.0,0.0,9e-08
1538768595968272263,2916,1538768595967822855,base_link,-0.11345565174,0.103932431733,0.402862120811,-0.902234989533,1.0,0.0,0.0,0.0,1.0,0.0,0.0,0.0,1.0,-0.381505608559,-0.0393755286932,-0.14238256216,1.21846967915e-07,0.0,0.0,0.0,1.21846967915e-07,0.0,0.0,0.0,1.21846967915e-07,0.51975245,0.6080123,10.7677017,9e-08,0.0,0.0,0.0,9e-08,0.0,0.0,0.0,9e-08
1538768596212824071,2917,1538768596212371591,base_link,-0.0775866965535,0.0846981895698,0.420136930793,-0.900161919093,1.0,0.0,0.0,0.0,1.0,0.0,0.0,0.0,1.0,-0.308836102486,0.033194411546,-0.0865030139685,1.21846967915e-07,0.0,0.0,0.0,1.21846967915e-07,0.0,0.0,0.0,1.21846967915e-07,0.4314926,0.71588545,9.5909037,9e-08,0.0,0.0,0.0,9e-08,0.0,0.0,0.0,9e-08
1538768596645177895,2918,1538768596644755751,base_link,-0.0377436801262,0.0524315113798,0.441477789234,-0.894943413204,1.0,0.0,0.0,0.0,1.0,0.0,0.0,0.0,1.0,-0.226821571589,0.0592053979635,-0.0973718091846,1.21846967915e-07,0.0,0.0,0.0,1.21846967915e-07,0.0,0.0,0.0,1.21846967915e-07,0.38245935,0.5099458,8.63965865,9e-08,0.0,0.0,0.0,9e-08,0.0,0.0,0.0,9e-08
1538768597009639495,2919,1538768597009278343,base_link,-0.0127401482789,0.0308979669464,0.448625878819,-0.893094521937,1.0,0.0,0.0,0.0,1.0,0.0,0.0,0.0,1.0,-0.118253700435,0.0466241128743,0.0226501487195,1.21846967915e-07,0.0,0.0,0.0,1.21846967915e-07,0.0,0.0,0.0,1.21846967915e-07,0.4118793,0.42168595,9.18883105,9e-08,0.0,0.0,0.0,9e-08,0.0,0.0,0.0,9e-08
1538768597305337031,2920,1538768597304733671,base_link,0.00444111945075,0.0155139628695,0.442961479947,-0.896395404215,1.0,0.0,0.0,0.0,1.0,0.0,0.0,0.0,1.0,-0.189143896103,0.0260979030281,0.0443242043257,1.21846967915e-07,0.0,0.0,0.0,1.21846967915e-07,0.0,0.0,0.0,1.21846967915e-07,0.4118793,0.51975245,10.22833595,9e-08,0.0,0.0,0.0,9e-08,0.0,0.0,0.0,9e-08
1538768597646879335,2921,1538768597646644231,base_link,0.0149841989019,0.00161832873405,0.435608852889,-0.900009878879,1.0,0.0,0.0,0.0,1.0,0.0,0.0,0.0,1.0,-0.0313571020961,0.059091437608,0.0347180739045,1.21846967915e-07,0.0,0.0,0.0,1.21846967915e-07,0.0,0.0,0.0,1.21846967915e-07,0.3138128,0.4314926,9.22805765,9e-08,0.0,0.0,0.0,9e-08,0.0,0.0,0.0,9e-08
1538768598060790631,2922,1538768598060533831,base_link,0.00375805760917,-0.00277771096589,0.426311634214,-0.904564288405,1.0,0.0,0.0,0.0,1.0,0.0,0.0,0.0,1.0,0.0469619557261,0.035163640976,0.0626957044005,1.21846967915e-07,0.0,0.0,0.0,1.21846967915e-07,0.0,0.0,0.0,1.21846967915e-07,0.4118793,0.5491724,9.610517,9e-08,0.0,0.0,0.0,9e-08,0.0,0.0,0.0,9e-08
1538768598540056519,2923,1538768598539658055,base_link,-0.00937580405365,-0.00644244444496,0.416970955394,-0.908848618619,1.0,0.0,0.0,0.0,1.0,0.0,0.0,0.0,1.0,-0.135462656617,0.00553622143343,0.00807637162507,1.21846967915e-07,0.0,0.0,0.0,1.21846967915e-07,0.0,0.0,0.0,1.21846967915e-07,0.4314926,0.67665885,9.32612415,9e-08,0.0,0.0,0.0,9e-08,0.0,0.0,0.0,9e-08
1538768598920679239,2924,1538768598915758087,base_link,0.0168494252987,-0.0210307461708,0.414258947588,-0.9097600392,1.0,0.0,0.0,0.0,1.0,0.0,0.0,0.0,1.0,-0.0793282166123,-0.000760108232498,0.0135098267347,1.21846967915e-07,0.0,0.0,0.0,1.21846967915e-07,0.0,0.0,0.0,1.21846967915e-07,0.50013915,0.4903325,9.63993695,9e-08,0.0,0.0,0.0,9e-08,0.0,0.0,0.0,9e-08
1538768599204706727,2925,1538768599204413095,base_link,0.0137140368341,-0.0159554433904,0.407021449851,-0.913176263588,1.0,0.0,0.0,0.0,1.0,0.0,0.0,0.0,1.0,0.0725319311023,-0.0301784034818,0.098692394793,1.21846967915e-07,0.0,0.0,0.0,1.21846967915e-07,0.0,0.0,0.0,1.21846967915e-07,0.59820565,0.24516625,10.64021525,9e-08,0.0,0.0,0.0,9e-08,0.0,0.0,0.0,9e-08
1538768599647085735,2926,1538768599646486471,base_link,0.0145202247764,-0.00994512733873,0.380175242775,-0.924747015294,1.0,0.0,0.0,0.0,1.0,0.0,0.0,0.0,1.0,0.00335952360183,-0.0368223264813,0.0789695978165,1.21846967915e-07,0.0,0.0,0.0,1.21846967915e-07,0.0,0.0,0.0,1.21846967915e-07,0.6276256,0.7060788,10.6304086,9e-08,0.0,0.0,0.0,9e-08,0.0,0.0,0.0,9e-08
1538768600131090439,2927,1538768600129137895,base_link,0.0334192879396,-0.0103577689948,0.372710101158,-0.927288007207,1.0,0.0,0.0,0.0,1.0,0.0,0.0,0.0,1.0,-0.00247461348772,-0.0324698276818,0.00824645254761,1.21846967915e-07,0.0,0.0,0.0,1.21846967915e-07,0.0,0.0,0.0,1.21846967915e-07,0.51975245,0.38245935,11.375714,9e-08,0.0,0.0,0.0,9e-08,0.0,0.0,0.0,9e-08
1538768600398135911,2928,1538768600397516583,base_link,0.0130235875213,0.00451227484715,0.365235960482,-0.930812934329,1.0,0.0,0.0,0.0,1.0,0.0,0.0,0.0,1.0,0.231099665165,-0.0592900775373,0.0771545916796,1.21846967915e-07,0.0,0.0,0.0,1.21846967915e-07,0.0,0.0,0.0,1.21846967915e-07,0.44129925,0.28439285,10.77750835,9e-08,0.0,0.0,0.0,9e-08,0.0,0.0,0.0,9e-08
1538768600671088775,2929,1538768600670815015,base_link,-0.00526365629799,0.0224850544049,0.350396774881,-0.936316621877,1.0,0.0,0.0,0.0,1.0,0.0,0.0,0.0,1.0,0.177306383848,-0.066397331655,0.116947464645,1.21846967915e-07,0.0,0.0,0.0,1.21846967915e-07,0.0,0.0,0.0,1.21846967915e-07,0.4707192,0.40207265,11.4933938,9e-08,0.0,0.0,0.0,9e-08,0.0,0.0,0.0,9e-08
1538768601063238919,2930,1538768601062881095,base_link,-0.0208953824213,0.0381660575514,0.33789677442,-0.940176847663,1.0,0.0,0.0,0.0,1.0,0.0,0.0,0.0,1.0,0.0869263261557,-0.023636803031,-0.0104654030874,1.21846967915e-07,0.0,0.0,0.0,1.21846967915e-07,0.0,0.0,0.0,1.21846967915e-07,0.51975245,0.79433865,10.83634825,9e-08,0.0,0.0,0.0,9e-08,0.0,0.0,0.0,9e-08
1538768601376119399,2931,1538768601374473799,base_link,-0.0293915825157,0.0419969822205,0.342024851952,-0.938291739817,1.0,0.0,0.0,0.0,1.0,0.0,0.0,0.0,1.0,0.0467336848378,0.0252667963505,-0.0500173456967,1.21846967915e-07,0.0,0.0,0.0,1.21846967915e-07,0.0,0.0,0.0,1.21846967915e-07,0.5295591,0.61781895,10.64021525,9e-08,0.0,0.0,0.0,9e-08,0.0,0.0,0.0,9e-08
1538768601800613703,2932,1538768601800310663,base_link,-0.0815353257511,0.0534679194295,0.347395307247,-0.932635873613,1.0,0.0,0.0,0.0,1.0,0.0,0.0,0.0,1.0,0.470369756222,-0.00174962216988,-0.0155060561374,1.21846967915e-07,0.0,0.0,0.0,1.21846967915e-07,0.0,0.0,0.0,1.21846967915e-07,0.5099458,0.46091255,10.16949605,9e-08,0.0,0.0,0.0,9e-08,0.0,0.0,0.0,9e-08
1538768602243275463,2933,1538768602242631079,base_link,-0.101222154823,0.0494324257717,0.338128327334,-0.934333850885,1.0,0.0,0.0,0.0,1.0,0.0,0.0,0.0,1.0,-0.257398098707,0.0524566993117,-0.00384209211916,1.21846967915e-07,0.0,0.0,0.0,1.21846967915e-07,0.0,0.0,0.0,1.21846967915e-07,0.38245935,0.91201845,8.041453,9e-08,0.0,0.0,0.0,9e-08,0.0,0.0,0.0,9e-08
1538768602561114663,2934,1538768602559776359,base_link,-0.0705695151544,0.0274739443182,0.351732207892,-0.933032464519,1.0,0.0,0.0,0.0,1.0,0.0,0.0,0.0,1.0,-0.175481468439,0.0327724143863,-0.128988951445,1.21846967915e-07,0.0,0.0,0.0,1.21846967915e-07,0.0,0.0,0.0,1.21846967915e-07,0.4511059,0.65704555,9.5320638,9e-08,0.0,0.0,0.0,9e-08,0.0,0.0,0.0,9e-08
1538768602881461479,2935,1538768602881117287,base_link,-0.0584175924758,0.0216282858713,0.367567646884,-0.927908199718,1.0,0.0,0.0,0.0,1.0,0.0,0.0,0.0,1.0,-0.0386636182666,-0.0148575324565,-0.0504587180912,1.21846967915e-07,0.0,0.0,0.0,1.21846967915e-07,0.0,0.0,0.0,1.21846967915e-07,0.42168595,0.2157463,10.22833595,9e-08,0.0,0.0,0.0,9e-08,0.0,0.0,0.0,9e-08
1538768603125751175,2936,1538768603125264807,base_link,-0.0539549744499,0.0232940878658,0.367847438229,-0.928027213174,1.0,0.0,0.0,0.0,1.0,0.0,0.0,0.0,1.0,0.0169078912586,-0.0421299561858,0.0221414975822,1.21846967915e-07,0.0,0.0,0.0,1.21846967915e-07,0.0,0.0,0.0,1.21846967915e-07,0.4707192,0.6080123,10.2773692,9e-08,0.0,0.0,0.0,9e-08,0.0,0.0,0.0,9e-08
1538768603528753735,2937,1538768603528246247,base_link,-0.0272658115588,0.0186777980707,0.366952043297,-0.929652576665,1.0,0.0,0.0,0.0,1.0,0.0,0.0,0.0,1.0,-0.117413431406,-0.00860298238695,-0.00582250300795,1.21846967915e-07,0.0,0.0,0.0,1.21846967915e-07,0.0,0.0,0.0,1.21846967915e-07,0.50013915,0.46091255,10.20872265,9e-08,0.0,0.0,0.0,9e-08,0.0,0.0,0.0,9e-08
1538768603865410087,2938,1538768603865049415,base_link,-0.0250680784791,0.0254833862404,0.362696302132,-0.931221553062,1.0,0.0,0.0,0.0,1.0,0.0,0.0,0.0,1.0,-0.212048739195,-0.0674980953336,0.0810036957264,1.21846967915e-07,0.0,0.0,0.0,1.21846967915e-07,0.0,0.0,0.0,1.21846967915e-07,0.77472535,0.5295591,11.89546645,9e-08,0.0,0.0,0.0,9e-08,0.0,0.0,0.0,9e-08
1538768604377629415,2939,1538768604375814279,base_link,0.0333504728009,-0.00339220709905,0.350997812001,-0.935776028153,1.0,0.0,0.0,0.0,1.0,0.0,0.0,0.0,1.0,0.165524452925,0.0527507886291,0.0185838751495,1.21846967915e-07,0.0,0.0,0.0,1.21846967915e-07,0.0,0.0,0.0,1.21846967915e-07,0.53936575,0.3530394,8.7867584,9e-08,0.0,0.0,0.0,9e-08,0.0,0.0,0.0,9e-08
1538768604784882599,2940,1538768604784546023,base_link,-0.0153313796586,0.00538844706638,0.34790066656,-0.937390548087,1.0,0.0,0.0,0.0,1.0,0.0,0.0,0.0,1.0,0.156636118889,0.0242239180952,0.0360213667154,1.21846967915e-07,0.0,0.0,0.0,1.21846967915e-07,0.0,0.0,0.0,1.21846967915e-07,0.4314926,0.42168595,9.022118,9e-08,0.0,0.0,0.0,9e-08,0.0,0.0,0.0,9e-08
1538768605090735207,2941,1538768605090174183,base_link,-0.0394358825675,0.0144662739381,0.346094661734,-0.937258781343,1.0,0.0,0.0,0.0,1.0,0.0,0.0,0.0,1.0,0.0983709022403,-0.0175213515759,0.0173601359129,1.21846967915e-07,0.0,0.0,0.0,1.21846967915e-07,0.0,0.0,0.0,1.21846967915e-07,0.53936575,0.46091255,9.4928372,9e-08,0.0,0.0,0.0,9e-08,0.0,0.0,0.0,9e-08
1538768605382037415,2942,1538768605381560423,base_link,-0.0431675695646,0.0186950741813,0.342396752383,-0.938377066587,1.0,0.0,0.0,0.0,1.0,0.0,0.0,0.0,1.0,0.0213099904358,-0.0227721538395,0.00906444527209,1.21846967915e-07,0.0,0.0,0.0,1.21846967915e-07,0.0,0.0,0.0,1.21846967915e-07,0.5099458,0.5491724,10.2577559,9e-08,0.0,0.0,0.0,9e-08,0.0,0.0,0.0,9e-08
1538768605638511079,2943,1538768605638231751,base_link,-0.0441303646732,0.0224165947852,0.342444778126,-0.938233223205,1.0,0.0,0.0,0.0,1.0,0.0,0.0,0.0,1.0,0.0434798114002,-0.0192710347474,-0.0312508754432,1.21846967915e-07,0.0,0.0,0.0,1.21846967915e-07,0.0,0.0,0.0,1.21846967915e-07,0.55897905,0.63743225,11.0815145,9e-08,0.0,0.0,0.0,9e-08,0.0,0.0,0.0,9e-08
1538768605988248487,2944,1538768605987139015,base_link,-0.0536936300513,0.029598704224,0.350744498296,-0.934461988374,1.0,0.0,0.0,0.0,1.0,0.0,0.0,0.0,1.0,0.157072335482,-0.0508431866765,-0.0122751202434,1.21846967915e-07,0.0,0.0,0.0,1.21846967915e-07,0.0,0.0,0.0,1.21846967915e-07,0.48052585,0.20593965,10.395049,9e-08,0.0,0.0,0.0,9e-08,0.0,0.0,0.0,9e-08
1538768606376782503,2945,1538768606376407687,base_link,-0.0470890308271,0.0348386734119,0.346792476569,-0.936111034123,1.0,0.0,0.0,0.0,1.0,0.0,0.0,0.0,1.0,-0.0443075224757,-0.024501228705,-0.0207736715674,1.21846967915e-07,0.0,0.0,0.0,1.21846967915e-07,0.0,0.0,0.0,1.21846967915e-07,0.51975245,0.65704555,10.83634825,9e-08,0.0,0.0,0.0,9e-08,0.0,0.0,0.0,9e-08
1538768606831762855,2946,1538768606831310471,base_link,-0.0784993097092,0.0432051204265,0.369971516942,-0.92471198359,1.0,0.0,0.0,0.0,1.0,0.0,0.0,0.0,1.0,-0.0280763637275,-0.0141332121566,-0.150190427899,1.21846967915e-07,0.0,0.0,0.0,1.21846967915e-07,0.0,0.0,0.0,1.21846967915e-07,0.46091255,0.5295591,8.60043205,9e-08,0.0,0.0,0.0,9e-08,0.0,0.0,0.0,9e-08
1538768607195752967,2947,1538768607191997447,base_link,-0.0689292778691,0.0426991110284,0.379137987904,-0.921780845265,1.0,0.0,0.0,0.0,1.0,0.0,0.0,0.0,1.0,-0.0454929620028,-0.0170132163912,-0.00153268128633,1.21846967915e-07,0.0,0.0,0.0,1.21846967915e-07,0.0,0.0,0.0,1.21846967915e-07,0.57859235,0.4903325,10.1204628,9e-08,0.0,0.0,0.0,9e-08,0.0,0.0,0.0,9e-08
1538768607592530183,2948,1538768607589008711,base_link,-0.0600502786835,0.0413019268795,0.376872608884,-0.923393281077,1.0,0.0,0.0,0.0,1.0,0.0,0.0,0.0,1.0,-0.26240581274,0.0182125475258,-0.0411487072706,1.21846967915e-07,0.0,0.0,0.0,1.21846967915e-07,0.0,0.0,0.0,1.21846967915e-07,0.5687857,0.7060788,9.3947707,9e-08,0.0,0.0,0.0,9e-08,0.0,0.0,0.0,9e-08
1538768608045626343,2949,1538768608045353767,base_link,-0.0233593391467,0.0313901166778,0.380681604283,-0.923877977879,1.0,0.0,0.0,0.0,1.0,0.0,0.0,0.0,1.0,-0.0944328457117,-0.00908261537552,0.0385273471475,1.21846967915e-07,0.0,0.0,0.0,1.21846967915e-07,0.0,0.0,0.0,1.21846967915e-07,0.79433865,0.6472389,9.7478101,9e-08,0.0,0.0,0.0,9e-08,0.0,0.0,0.0,9e-08
1538768608567340103,2950,1538768608566961671,base_link,-0.0286981804282,0.0298766829773,0.374461719482,-0.9263164788,1.0,0.0,0.0,0.0,1.0,0.0,0.0,0.0,1.0,0.229175999761,0.0101983845234,0.0121122058481,1.21846967915e-07,0.0,0.0,0.0,1.21846967915e-07,0.0,0.0,0.0,1.21846967915e-07,0.44129925,0.61781895,7.6688003,9e-08,0.0,0.0,0.0,9e-08,0.0,0.0,0.0,9e-08
1538768608841384263,2951,1538768608840819751,base_link,-0.0243809841568,0.0279232253699,0.375749931282,-0.925979400547,1.0,0.0,0.0,0.0,1.0,0.0,0.0,0.0,1.0,-0.285331398249,-0.0296179130673,-0.0071638408117,1.21846967915e-07,0.0,0.0,0.0,1.21846967915e-07,0.0,0.0,0.0,1.21846967915e-07,0.57859235,0.59820565,9.5320638,9e-08,0.0,0.0,0.0,9e-08,0.0,0.0,0.0,9e-08
1538768609241143271,2952,1538768609240820871,base_link,0.00486881341458,0.0178887782635,0.379409588422,-0.925043053312,1.0,0.0,0.0,0.0,1.0,0.0,0.0,0.0,1.0,-0.0171691589057,-0.0188254769892,-0.00907958205789,1.21846967915e-07,0.0,0.0,0.0,1.21846967915e-07,0.0,0.0,0.0,1.21846967915e-07,0.83356525,0.6472389,10.91480145,9e-08,0.0,0.0,0.0,9e-08,0.0,0.0,0.0,9e-08
1538768609776987079,2953,1538768609776550887,base_link,-0.026990649084,0.0396196706544,0.369484647659,-0.92799939747,1.0,0.0,0.0,0.0,1.0,0.0,0.0,0.0,1.0,0.141418009996,-0.0542302727699,0.085590697825,1.21846967915e-07,0.0,0.0,0.0,1.21846967915e-07,0.0,0.0,0.0,1.21846967915e-07,0.77472535,0.38245935,11.40513395,9e-08,0.0,0.0,0.0,9e-08,0.0,0.0,0.0,9e-08
1538768610094879143,2954,1538768610093789479,base_link,-0.0322354868884,0.0501809273835,0.353390182159,-0.933572775452,1.0,0.0,0.0,0.0,1.0,0.0,0.0,0.0,1.0,-0.0797334909439,-0.0282985307276,0.067140981555,1.21846967915e-07,0.0,0.0,0.0,1.21846967915e-07,0.0,0.0,0.0,1.21846967915e-07,0.69627215,0.61781895,11.38552065,9e-08,0.0,0.0,0.0,9e-08,0.0,0.0,0.0,9e-08
1538768610449326151,2955,1538768610449043111,base_link,-0.0436976416677,0.0523604673326,0.348521551831,-0.934816359229,1.0,0.0,0.0,0.0,1.0,0.0,0.0,0.0,1.0,0.0763792470098,0.0721627473831,-0.0477208942175,1.21846967915e-07,0.0,0.0,0.0,1.21846967915e-07,0.0,0.0,0.0,1.21846967915e-07,0.61781895,0.8041453,10.01258965,9e-08,0.0,0.0,0.0,9e-08,0.0,0.0,0.0,9e-08
1538768610745042439,2956,1538768610744589223,base_link,-0.0576194333826,0.0435584297102,0.359004285716,-0.930536719821,1.0,0.0,0.0,0.0,1.0,0.0,0.0,0.0,1.0,0.089396327734,0.107910297811,-0.119420111179,1.21846967915e-07,0.0,0.0,0.0,1.21846967915e-07,0.0,0.0,0.0,1.21846967915e-07,0.4118793,0.61781895,8.4533323,9e-08,0.0,0.0,0.0,9e-08,0.0,0.0,0.0,9e-08
1538768611127818023,2957,1538768611124473895,base_link,-0.081284553978,0.0436327260328,0.374364516631,-0.922680993188,1.0,0.0,0.0,0.0,1.0,0.0,0.0,0.0,1.0,0.121797561646,-0.0162907801569,-0.035189691931,1.21846967915e-07,0.0,0.0,0.0,1.21846967915e-07,0.0,0.0,0.0,1.21846967915e-07,0.5099458,0.20593965,9.1005712,9e-08,0.0,0.0,0.0,9e-08,0.0,0.0,0.0,9e-08
1538768611458967911,2958,1538768611458721447,base_link,-0.0838136416805,0.0493063576259,0.369039269923,-0.924312811672,1.0,0.0,0.0,0.0,1.0,0.0,0.0,0.0,1.0,-0.0329027399421,-0.0180168319494,0.0249381903559,1.21846967915e-07,0.0,0.0,0.0,1.21846967915e-07,0.0,0.0,0.0,1.21846967915e-07,0.5491724,0.588399,10.38524235,9e-08,0.0,0.0,0.0,9e-08,0.0,0.0,0.0,9e-08
1538768611877981063,2959,1538768611877350663,base_link,-0.0545958786752,0.0401946925549,0.373353106073,-0.925208698029,1.0,0.0,0.0,0.0,1.0,0.0,0.0,0.0,1.0,-0.249146983027,-0.0152027383447,-0.0211512856185,1.21846967915e-07,0.0,0.0,0.0,1.21846967915e-07,0.0,0.0,0.0,1.21846967915e-07,0.51975245,0.7060788,10.03220295,9e-08,0.0,0.0,0.0,9e-08,0.0,0.0,0.0,9e-08
1538768612319549863,2960,1538768612319263975,base_link,-0.033707505725,0.0284076378391,0.391085927018,-0.919297888532,1.0,0.0,0.0,0.0,1.0,0.0,0.0,0.0,1.0,0.0491855069995,0.0024262946099,-0.0771006271243,1.21846967915e-07,0.0,0.0,0.0,1.21846967915e-07,0.0,0.0,0.0,1.21846967915e-07,0.4314926,0.16671305,9.4536106,9e-08,0.0,0.0,0.0,9e-08,0.0,0.0,0.0,9e-08
1538768612579966087,2961,1538768612579653351,base_link,-0.0405411452874,0.0333932288973,0.388961340422,-0.919755610725,1.0,0.0,0.0,0.0,1.0,0.0,0.0,0.0,1.0,0.0466803647578,-0.0299267303199,0.0695486441255,1.21846967915e-07,0.0,0.0,0.0,1.21846967915e-07,0.0,0.0,0.0,1.21846967915e-07,0.44129925,0.24516625,9.3751574,9e-08,0.0,0.0,0.0,9e-08,0.0,0.0,0.0,9e-08
1538768613047432679,2962,1538768613047167655,base_link,-0.0313103498253,0.0322078231575,0.376924662026,-0.925154104611,1.0,0.0,0.0,0.0,1.0,0.0,0.0,0.0,1.0,0.0159399751574,0.020987642929,0.0274803116918,1.21846967915e-07,0.0,0.0,0.0,1.21846967915e-07,0.0,0.0,0.0,1.21846967915e-07,0.4903325,0.5491724,9.8851032,9e-08,0.0,0.0,0.0,9e-08,0.0,0.0,0.0,9e-08
1538768613422405191,2963,1538768613421342087,base_link,-0.0266176645486,0.0257539915811,0.372245290464,-0.927395102197,1.0,0.0,0.0,0.0,1.0,0.0,0.0,0.0,1.0,-0.100272648036,0.0287099834532,0.0244387965649,1.21846967915e-07,0.0,0.0,0.0,1.21846967915e-07,0.0,0.0,0.0,1.21846967915e-07,0.50013915,0.7060788,9.5712904,9e-08,0.0,0.0,0.0,9e-08,0.0,0.0,0.0,9e-08
1538768613766421799,2964,1538768613765377671,base_link,-0.0155983953113,0.0149076785459,0.372528404279,-0.92776992794,1.0,0.0,0.0,0.0,1.0,0.0,0.0,0.0,1.0,-0.0877998322248,0.0256348345429,0.00673081865534,1.21846967915e-07,0.0,0.0,0.0,1.21846967915e-07,0.0,0.0,0.0,1.21846967915e-07,0.46091255,0.5099458,9.52225715,9e-08,0.0,0.0,0.0,9e-08,0.0,0.0,0.0,9e-08
1538768614169890343,2965,1538768614169651879,base_link,-0.0127077919114,0.0128838809418,0.36677321606,-0.930134358906,1.0,0.0,0.0,0.0,1.0,0.0,0.0,0.0,1.0,0.068156093359,-0.00625360757113,0.0697114616632,1.21846967915e-07,0.0,0.0,0.0,1.21846967915e-07,0.0,0.0,0.0,1.21846967915e-07,0.5099458,0.3530394,9.7870367,9e-08,0.0,0.0,0.0,9e-08,0.0,0.0,0.0,9e-08
1538768614520837415,2966,1538768614520588615,base_link,-0.0177168077867,0.0214792491415,0.35824214879,-0.93321343722,1.0,0.0,0.0,0.0,1.0,0.0,0.0,0.0,1.0,0.176799073815,-0.041716273874,0.0332708396018,1.21846967915e-07,0.0,0.0,0.0,1.21846967915e-07,0.0,0.0,0.0,1.21846967915e-07,0.588399,0.46091255,10.42446895,9e-08,0.0,0.0,0.0,9e-08,0.0,0.0,0.0,9e-08
1538768614929576103,2967,1538768614928665671,base_link,-0.0126361633094,0.025677065959,0.354574231339,-0.934589819189,1.0,0.0,0.0,0.0,1.0,0.0,0.0,0.0,1.0,0.0263366829604,-0.0227692313492,0.00403561908752,1.21846967915e-07,0.0,0.0,0.0,1.21846967915e-07,0.0,0.0,0.0,1.21846967915e-07,0.5491724,0.4511059,9.7085835,9e-08,0.0,0.0,0.0,9e-08,0.0,0.0,0.0,9e-08
1538768615332218343,2968,1538768615327548487,base_link,0.00693817394825,0.0291791250602,0.344416558891,-0.938337718716,1.0,0.0,0.0,0.0,1.0,0.0,0.0,0.0,1.0,-0.120479673147,-0.0535076968372,0.103508532047,1.21846967915e-07,0.0,0.0,0.0,1.21846967915e-07,0.0,0.0,0.0,1.21846967915e-07,0.61781895,0.2353596,11.30706745,9e-08,0.0,0.0,0.0,9e-08,0.0,0.0,0.0,9e-08
1538768615776639367,2969,1538768615776414631,base_link,0.0265974010991,0.0336575464586,0.308596069045,-0.950225349057,1.0,0.0,0.0,0.0,1.0,0.0,0.0,0.0,1.0,-0.21892465651,-0.00905616767704,0.122892230749,1.21846967915e-07,0.0,0.0,0.0,1.21846967915e-07,0.0,0.0,0.0,1.21846967915e-07,0.53936575,0.8433719,10.81673495,9e-08,0.0,0.0,0.0,9e-08,0.0,0.0,0.0,9e-08
1538768616110267303,2970,1538768616109977287,base_link,0.0683115387906,0.0127703013667,0.298469796859,-0.951885619932,1.0,0.0,0.0,0.0,1.0,0.0,0.0,0.0,1.0,-0.163646668196,0.0575406998396,0.0642523616552,1.21846967915e-07,0.0,0.0,0.0,1.21846967915e-07,0.0,0.0,0.0,1.21846967915e-07,0.4903325,0.34323275,9.46341725,9e-08,0.0,0.0,0.0,9e-08,0.0,0.0,0.0,9e-08
1538768616488584295,2971,1538768616488164551,base_link,0.0806032952712,-0.00336150770007,0.28027050107,-0.956525093914,1.0,0.0,0.0,0.0,1.0,0.0,0.0,0.0,1.0,-0.288833081722,0.024171076715,0.16503277421,1.21846967915e-07,0.0,0.0,0.0,1.21846967915e-07,0.0,0.0,0.0,1.21846967915e-07,0.44129925,0.22555295,9.3163175,9e-08,0.0,0.0,0.0,9e-08,0.0,0.0,0.0,9e-08
1538768616994507079,2972,1538768616994266119,base_link,0.127682828511,-0.0229389522108,0.235733198192,-0.963120324282,1.0,0.0,0.0,0.0,1.0,0.0,0.0,0.0,1.0,-0.133970290422,-0.00885555334389,0.16139665246,1.21846967915e-07,0.0,0.0,0.0,1.21846967915e-07,0.0,0.0,0.0,1.21846967915e-07,0.42168595,0.26477955,6.9431082,9e-08,0.0,0.0,0.0,9e-08,0.0,0.0,0.0,9e-08
1538768617451291495,2973,1538768617450699655,base_link,0.173946300163,-0.026363310157,0.183609969606,-0.967127209626,1.0,0.0,0.0,0.0,1.0,0.0,0.0,0.0,1.0,-0.19311593473,-0.108447663486,0.26255518198,1.21846967915e-07,0.0,0.0,0.0,1.21846967915e-07,0.0,0.0,0.0,1.21846967915e-07,0.6668522,0.22555295,9.80665,9e-08,0.0,0.0,0.0,9e-08,0.0,0.0,0.0,9e-08
1538768617772338151,2974,1538768617765566119,base_link,0.217272282395,-0.0186422888515,0.13636503149,-0.966359042259,1.0,0.0,0.0,0.0,1.0,0.0,0.0,0.0,1.0,-0.24639827013,-0.194923460484,0.30652987957,1.21846967915e-07,0.0,0.0,0.0,1.21846967915e-07,0.0,0.0,0.0,1.21846967915e-07,0.77472535,0.18632635,11.50320045,9e-08,0.0,0.0,0.0,9e-08,0.0,0.0,0.0,9e-08
1538768618196730695,2975,1538768618196335879,base_link,0.261834362334,0.00896293754213,0.0582208881736,-0.963313428035,1.0,0.0,0.0,0.0,1.0,0.0,0.0,0.0,1.0,-0.143271207809,-0.282384932041,0.301279932261,1.21846967915e-07,0.0,0.0,0.0,1.21846967915e-07,0.0,0.0,0.0,1.21846967915e-07,0.8629852,0.44129925,11.87585315,9e-08,0.0,0.0,0.0,9e-08,0.0,0.0,0.0,9e-08
1538768618568726599,2976,1538768618568378663,base_link,0.296595658836,0.0445590940191,-0.00968278110649,-0.95391390914,1.0,0.0,0.0,0.0,1.0,0.0,0.0,0.0,1.0,-0.162824288011,-0.327823460102,0.333555221558,1.21846967915e-07,0.0,0.0,0.0,1.21846967915e-07,0.0,0.0,0.0,1.21846967915e-07,1.16699135,0.0980665,12.7290317,9e-08,0.0,0.0,0.0,9e-08,0.0,0.0,0.0,9e-08
1538768618928423143,2977,1538768618928181447,base_link,0.312005298831,0.082230147424,-0.0910229447151,-0.942128292692,1.0,0.0,0.0,0.0,1.0,0.0,0.0,0.0,1.0,-0.126035585999,-0.358231365681,0.351903825998,1.21846967915e-07,0.0,0.0,0.0,1.21846967915e-07,0.0,0.0,0.0,1.21846967915e-07,1.57887065,0.6276256,13.36646395,9e-08,0.0,0.0,0.0,9e-08,0.0,0.0,0.0,9e-08
1538768619195631175,2978,1538768619195418791,base_link,0.321783050444,0.114142773777,-0.147849338025,-0.928206695132,1.0,0.0,0.0,0.0,1.0,0.0,0.0,0.0,1.0,-0.013036346063,-0.346380114555,0.324493378401,1.21846967915e-07,0.0,0.0,0.0,1.21846967915e-07,0.0,0.0,0.0,1.21846967915e-07,1.6279039,0.1765197,12.77806495,9e-08,0.0,0.0,0.0,9e-08,0.0,0.0,0.0,9e-08
1538768619629822759,2979,1538768619629536135,base_link,0.316730875322,0.15942875228,-0.255943670407,-0.899309103225,1.0,0.0,0.0,0.0,1.0,0.0,0.0,0.0,1.0,-0.00781745091081,-0.421161293983,0.495440095663,1.21846967915e-07,0.0,0.0,0.0,1.21846967915e-07,0.0,0.0,0.0,1.21846967915e-07,1.85345685,0.04903325,14.40596885,9e-08,0.0,0.0,0.0,9e-08,0.0,0.0,0.0,9e-08
1538768619866715239,2980,1538768619864656999,base_link,0.300024270768,0.187046662375,-0.327050990057,-0.876376992479,1.0,0.0,0.0,0.0,1.0,0.0,0.0,0.0,1.0,0.114606894553,-0.497257709503,0.479982286692,1.21846967915e-07,0.0,0.0,0.0,1.21846967915e-07,0.0,0.0,0.0,1.21846967915e-07,2.48108245,0.0392266,18.15210915,9e-08,0.0,0.0,0.0,9e-08,0.0,0.0,0.0,9e-08
1538768620216684871,2981,1538768620216367591,base_link,0.293222093744,0.236473608096,-0.433466209411,-0.818662373457,1.0,0.0,0.0,0.0,1.0,0.0,0.0,0.0,1.0,-0.261217027903,-0.493891954422,0.503565371037,1.21846967915e-07,0.0,0.0,0.0,1.21846967915e-07,0.0,0.0,0.0,1.21846967915e-07,2.3732093,0.46091255,17.62255005,9e-08,0.0,0.0,0.0,9e-08,0.0,0.0,0.0,9e-08
1538768620606026279,2982,1538768620605613031,base_link,0.25434996672,0.275355649223,-0.52459929222,-0.764382720549,1.0,0.0,0.0,0.0,1.0,0.0,0.0,0.0,1.0,0.450996130705,-0.401233434677,0.277020365,1.21846967915e-07,0.0,0.0,0.0,1.21846967915e-07,0.0,0.0,0.0,1.21846967915e-07,2.08881645,-0.4707192,14.32751565,9e-08,0.0,0.0,0.0,9e-08,0.0,0.0,0.0,9e-08
1538768621095087975,2983,1538768621093146375,base_link,0.144772814741,0.233802705605,-0.648096893246,-0.710174305315,1.0,0.0,0.0,0.0,1.0,0.0,0.0,0.0,1.0,0.548589348793,-0.232552528381,0.484490305185,1.21846967915e-07,0.0,0.0,0.0,1.21846967915e-07,0.0,0.0,0.0,1.21846967915e-07,1.53964405,-0.18632635,13.62143685,9e-08,0.0,0.0,0.0,9e-08,0.0,0.0,0.0,9e-08
1538768621440094791,2984,1538768621439742471,base_link,0.0939911713402,0.206329788271,-0.710538950076,-0.666129175616,1.0,0.0,0.0,0.0,1.0,0.0,0.0,0.0,1.0,0.329926282167,-0.189559191465,0.261910140514,1.21846967915e-07,0.0,0.0,0.0,1.21846967915e-07,0.0,0.0,0.0,1.21846967915e-07,1.12776475,0.44129925,12.3367657,9e-08,0.0,0.0,0.0,9e-08,0.0,0.0,0.0,9e-08
1538768621784768455,2985,1538768621782541895,base_link,-0.00254292226757,0.122557746277,-0.750536369018,-0.649359908799,1.0,0.0,0.0,0.0,1.0,0.0,0.0,0.0,1.0,0.600572645664,-0.0443376563489,-0.015623351559,1.21846967915e-07,0.0,0.0,0.0,1.21846967915e-07,0.0,0.0,0.0,1.21846967915e-07,0.784532,1.14737805,11.2384209,9e-08,0.0,0.0,0.0,9e-08,0.0,0.0,0.0,9e-08
1538768622145274311,2986,1538768622144522247,base_link,-0.0516235601895,0.0550828982655,-0.749724413891,-0.657429985297,1.0,0.0,0.0,0.0,1.0,0.0,0.0,0.0,1.0,0.450010001659,0.104968592525,-0.0622615218163,1.21846967915e-07,0.0,0.0,0.0,1.21846967915e-07,0.0,0.0,0.0,1.21846967915e-07,0.48052585,0.26477955,9.54187045,9e-08,0.0,0.0,0.0,9e-08,0.0,0.0,0.0,9e-08
1538768622547305447,2987,1538768622547039239,base_link,-0.0848755645358,-0.0240173240086,-0.74929285016,-0.656337970402,1.0,0.0,0.0,0.0,1.0,0.0,0.0,0.0,1.0,0.404982239008,0.16289074719,-0.00306114787236,1.21846967915e-07,0.0,0.0,0.0,1.21846967915e-07,0.0,0.0,0.0,1.21846967915e-07,0.1569064,-0.10787315,6.9431082,9e-08,0.0,0.0,0.0,9e-08,0.0,0.0,0.0,9e-08
1538768622955936519,2988,1538768622955701223,base_link,-0.0979777338649,-0.0741054627023,-0.758301400755,-0.640224749347,1.0,0.0,0.0,0.0,1.0,0.0,0.0,0.0,1.0,0.0893623232841,0.0913344994187,0.0785473510623,1.21846967915e-07,0.0,0.0,0.0,1.21846967915e-07,0.0,0.0,0.0,1.21846967915e-07,0.20593965,0.50013915,9.8654899,9e-08,0.0,0.0,0.0,9e-08,0.0,0.0,0.0,9e-08
1538768623333098503,2989,1538768623329989831,base_link,-0.0888700653481,-0.0948794438536,-0.754875043637,-0.642855871182,1.0,0.0,0.0,0.0,1.0,0.0,0.0,0.0,1.0,-0.0920523554087,0.115943521261,-0.153108090162,1.21846967915e-07,0.0,0.0,0.0,1.21846967915e-07,0.0,0.0,0.0,1.21846967915e-07,-0.0392266,0.73549875,9.18883105,9e-08,0.0,0.0,0.0,9e-08,0.0,0.0,0.0,9e-08
1538768623656000967,2990,1538768623655752007,base_link,-0.0744727635026,-0.116690310768,-0.735305723651,-0.663447565099,1.0,0.0,0.0,0.0,1.0,0.0,0.0,0.0,1.0,0.202412545681,0.0921296328306,-0.147819653153,1.21846967915e-07,0.0,0.0,0.0,1.21846967915e-07,0.0,0.0,0.0,1.21846967915e-07,-0.06864655,0.16671305,7.2765343,9e-08,0.0,0.0,0.0,9e-08,0.0,0.0,0.0,9e-08
1538768623967850599,2991,1538768623967414695,base_link,-0.07986763216,-0.142009427977,-0.725582843687,-0.668568635703,1.0,0.0,0.0,0.0,1.0,0.0,0.0,0.0,1.0,0.20687314868,0.0522407181561,-0.0326990112662,1.21846967915e-07,0.0,0.0,0.0,1.21846967915e-07,0.0,0.0,0.0,1.21846967915e-07,0.0,0.28439285,8.09048625,9e-08,0.0,0.0,0.0,9e-08,0.0,0.0,0.0,9e-08
1538768624301165959,2992,1538768624300822279,base_link,-0.0769120019226,-0.145111609173,-0.723665249837,-0.670325123371,1.0,0.0,0.0,0.0,1.0,0.0,0.0,0.0,1.0,-0.0881811827421,0.0315760672092,-0.0319359451532,1.21846967915e-07,0.0,0.0,0.0,1.21846967915e-07,0.0,0.0,0.0,1.21846967915e-07,0.0392266,0.69627215,9.52225715,9e-08,0.0,0.0,0.0,9e-08,0.0,0.0,0.0,9e-08
1538768624565126855,2993,1538768624564859655,base_link,-0.0597835184836,-0.136409254587,-0.71736291186,-0.680594518689,1.0,0.0,0.0,0.0,1.0,0.0,0.0,0.0,1.0,-0.0960840582848,0.0244011878967,-0.131465747952,1.21846967915e-07,0.0,0.0,0.0,1.21846967915e-07,0.0,0.0,0.0,1.21846967915e-07,-0.0588399,0.77472535,9.83606995,9e-08,0.0,0.0,0.0,9e-08,0.0,0.0,0.0,9e-08
1538768624986177383,2994,1538768624985940263,base_link,-0.0324433616662,-0.112221572614,-0.701024326791,-0.703504541685,1.0,0.0,0.0,0.0,1.0,0.0,0.0,0.0,1.0,-0.162173062563,-0.026498451829,-0.109337165952,1.21846967915e-07,0.0,0.0,0.0,1.21846967915e-07,0.0,0.0,0.0,1.21846967915e-07,-0.0980665,0.53936575,10.1008495,9e-08,0.0,0.0,0.0,9e-08,0.0,0.0,0.0,9e-08
1538768625386942055,2995,1538768625386720775,base_link,-0.00502219379342,-0.0747874995291,-0.698889607237,-0.7112910265,1.0,0.0,0.0,0.0,1.0,0.0,0.0,0.0,1.0,-0.168980523944,-0.0470885671675,0.0264782197773,1.21846967915e-07,0.0,0.0,0.0,1.21846967915e-07,0.0,0.0,0.0,1.21846967915e-07,-0.28439285,0.38245935,10.13026945,9e-08,0.0,0.0,0.0,9e-08,0.0,0.0,0.0,9e-08
1538768625764869575,2996,1538768625764586375,base_link,0.0253453367058,-0.0253070973795,-0.712609218991,-0.700646320006,1.0,0.0,0.0,0.0,1.0,0.0,0.0,0.0,1.0,-0.375192224979,-0.0633517205715,0.136804819107,1.21846967915e-07,0.0,0.0,0.0,1.21846967915e-07,0.0,0.0,0.0,1.21846967915e-07,-0.08825985,0.5099458,11.75817335,9e-08,0.0,0.0,0.0,9e-08,0.0,0.0,0.0,9e-08
1538768626094372263,2997,1538768626094047751,base_link,0.0713035690502,0.036723791141,-0.728643782315,-0.680180419226,1.0,0.0,0.0,0.0,1.0,0.0,0.0,0.0,1.0,-0.556441366673,-0.0663572326303,0.160811364651,1.21846967915e-07,0.0,0.0,0.0,1.21846967915e-07,0.0,0.0,0.0,1.21846967915e-07,-0.04903325,0.6080123,11.571847,9e-08,0.0,0.0,0.0,9e-08,0.0,0.0,0.0,9e-08
1538768626490450343,2998,1538768626490160615,base_link,0.131444533863,0.114087945676,-0.739310936543,-0.650481063734,1.0,0.0,0.0,0.0,1.0,0.0,0.0,0.0,1.0,-0.412579864264,-0.0395082756877,0.132207691669,1.21846967915e-07,0.0,0.0,0.0,1.21846967915e-07,0.0,0.0,0.0,1.21846967915e-07,-0.18632635,0.3530394,9.36535075,9e-08,0.0,0.0,0.0,9e-08,0.0,0.0,0.0,9e-08
1538768626835615335,2999,1538768626831941159,base_link,0.157365324074,0.157848583268,-0.753835060189,-0.618104102533,1.0,0.0,0.0,0.0,1.0,0.0,0.0,0.0,1.0,-0.257096230984,-0.1205381006,0.256043821573,1.21846967915e-07,0.0,0.0,0.0,1.21846967915e-07,0.0,0.0,0.0,1.21846967915e-07,-0.08825985,0.0392266,10.56176205,9e-08,0.0,0.0,0.0,9e-08,0.0,0.0,0.0,9e-08
1538768627235484231,3000,1538768627235244807,base_link,0.175223712988,0.203335974528,-0.787570909465,-0.554691981583,1.0,0.0,0.0,0.0,1.0,0.0,0.0,0.0,1.0,-0.219275563955,-0.173229619861,0.351334035397,1.21846967915e-07,0.0,0.0,0.0,1.21846967915e-07,0.0,0.0,0.0,1.21846967915e-07,-0.00980665,0.30400615,11.1403544,9e-08,0.0,0.0,0.0,9e-08,0.0,0.0,0.0,9e-08
1538768627554371367,3001,1538768627554081703,base_link,0.172391267502,0.226582114196,-0.815957427212,-0.503145379978,1.0,0.0,0.0,0.0,1.0,0.0,0.0,0.0,1.0,-0.0836083590984,-0.248162016273,0.350521236658,1.21846967915e-07,0.0,0.0,0.0,1.21846967915e-07,0.0,0.0,0.0,1.21846967915e-07,0.2549729,0.53936575,14.121576,9e-08,0.0,0.0,0.0,9e-08,0.0,0.0,0.0,9e-08
1538768627839735239,3002,1538768627838931879,base_link,0.1664205687,0.260181132816,-0.838548545351,-0.448827705841,1.0,0.0,0.0,0.0,1.0,0.0,0.0,0.0,1.0,-0.17867398262,-0.266218841076,0.315706640482,1.21846967915e-07,0.0,0.0,0.0,1.21846967915e-07,0.0,0.0,0.0,1.21846967915e-07,0.22555295,0.22555295,13.30762405,9e-08,0.0,0.0,0.0,9e-08,0.0,0.0,0.0,9e-08
1538768628303919015,3003,1538768628303639783,base_link,0.152273807363,0.322797970318,-0.867898527299,-0.345494289768,1.0,0.0,0.0,0.0,1.0,0.0,0.0,0.0,1.0,-0.0340880937874,-0.352694690228,0.366611033678,1.21846967915e-07,0.0,0.0,0.0,1.21846967915e-07,0.0,0.0,0.0,1.21846967915e-07,0.69627215,0.14709975,14.44519545,9e-08,0.0,0.0,0.0,9e-08,0.0,0.0,0.0,9e-08
1538768628715482087,3004,1538768628715199879,base_link,0.114370770896,0.33354316258,-0.901274130833,-0.251740395154,1.0,0.0,0.0,0.0,1.0,0.0,0.0,0.0,1.0,0.045575208962,-0.366341859102,0.414584904909,1.21846967915e-07,0.0,0.0,0.0,1.21846967915e-07,0.0,0.0,0.0,1.21846967915e-07,0.51975245,0.1765197,12.552512,9e-08,0.0,0.0,0.0,9e-08,0.0,0.0,0.0,9e-08
1538768629144302727,3005,1538768629143862855,base_link,0.0677653406493,0.37791504461,-0.912810922961,-0.139155655968,1.0,0.0,0.0,0.0,1.0,0.0,0.0,0.0,1.0,-0.187694638968,-0.457517623901,0.312703937292,1.21846967915e-07,0.0,0.0,0.0,1.21846967915e-07,0.0,0.0,0.0,1.21846967915e-07,0.8433719,0.53936575,14.7492016,9e-08,0.0,0.0,0.0,9e-08,0.0,0.0,0.0,9e-08
1538768629513269255,3006,1538768629512235175,base_link,0.0128462978675,0.393262658649,-0.917403258296,-0.0595878814177,1.0,0.0,0.0,0.0,1.0,0.0,0.0,0.0,1.0,0.0322392508388,-0.481682479382,0.309830248356,1.21846967915e-07,0.0,0.0,0.0,1.21846967915e-07,0.0,0.0,0.0,1.21846967915e-07,1.22583125,0.00980665,15.3572139,9e-08,0.0,0.0,0.0,9e-08,0.0,0.0,0.0,9e-08
1538768629903057543,3007,1538768629902578183,base_link,-0.0485362389757,0.389665594666,-0.918341646241,0.0495336110141,1.0,0.0,0.0,0.0,1.0,0.0,0.0,0.0,1.0,0.0611789822578,-0.507609069347,0.375249087811,1.21846967915e-07,0.0,0.0,0.0,1.21846967915e-07,0.0,0.0,0.0,1.21846967915e-07,1.3337044,0.2549729,16.8085981,9e-08,0.0,0.0,0.0,9e-08,0.0,0.0,0.0,9e-08
1538768630203889127,3008,1538768630203633447,base_link,-0.0952169230452,0.35618793297,-0.92063389536,0.128441133155,1.0,0.0,0.0,0.0,1.0,0.0,0.0,0.0,1.0,0.428105890751,-0.496124446392,0.281344175339,1.21846967915e-07,0.0,0.0,0.0,1.21846967915e-07,0.0,0.0,0.0,1.21846967915e-07,1.4906108,0.0980665,17.0047311,9e-08,0.0,0.0,0.0,9e-08,0.0,0.0,0.0,9e-08
1538768630645008583,3009,1538768630644799623,base_link,-0.140944197078,0.277689944912,-0.920272423365,0.236900178553,1.0,0.0,0.0,0.0,1.0,0.0,0.0,0.0,1.0,0.392419368029,-0.359684199095,0.367940694094,1.21846967915e-07,0.0,0.0,0.0,1.21846967915e-07,0.0,0.0,0.0,1.21846967915e-07,1.0591182,0.1765197,16.1025193,9e-08,0.0,0.0,0.0,9e-08,0.0,0.0,0.0,9e-08
1538768631043733351,3010,1538768631043458919,base_link,-0.156766431348,0.178238461293,-0.920371640354,0.310759361163,1.0,0.0,0.0,0.0,1.0,0.0,0.0,0.0,1.0,0.551444292068,-0.178967922926,0.120263457298,1.21846967915e-07,0.0,0.0,0.0,1.21846967915e-07,0.0,0.0,0.0,1.21846967915e-07,0.51975245,0.2549729,13.7881499,9e-08,0.0,0.0,0.0,9e-08,0.0,0.0,0.0,9e-08
1538768631639668679,3011,1538768631639437543,base_link,-0.0976152369444,0.000487773884795,-0.918444013109,0.383316608533,1.0,0.0,0.0,0.0,1.0,0.0,0.0,0.0,1.0,0.595049321651,0.0502065867186,0.204286441207,1.21846967915e-07,0.0,0.0,0.0,1.21846967915e-07,0.0,0.0,0.0,1.21846967915e-07,-0.0588399,-0.16671305,9.48303055,9e-08,0.0,0.0,0.0,9e-08,0.0,0.0,0.0,9e-08
1538768632061978535,3012,1538768632061709447,base_link,-0.0489747594679,-0.0703485947314,-0.908396799154,0.409228302345,1.0,0.0,0.0,0.0,1.0,0.0,0.0,0.0,1.0,0.306009948254,0.106899745762,-0.0356291942298,1.21846967915e-07,0.0,0.0,0.0,1.21846967915e-07,0.0,0.0,0.0,1.21846967915e-07,-0.18632635,0.4903325,8.89463155,9e-08,0.0,0.0,0.0,9e-08,0.0,0.0,0.0,9e-08
1538768632445387015,3013,1538768632444333767,base_link,0.00191395792105,-0.110663621362,-0.911727703888,0.395603960591,1.0,0.0,0.0,0.0,1.0,0.0,0.0,0.0,1.0,0.295891135931,0.1508397609,-0.113710142672,1.21846967915e-07,0.0,0.0,0.0,1.21846967915e-07,0.0,0.0,0.0,1.21846967915e-07,-0.2353596,0.10787315,6.1585762,9e-08,0.0,0.0,0.0,9e-08,0.0,0.0,0.0,9e-08
1538768632894597223,3014,1538768632894387175,base_link,0.0560790987192,-0.159972117096,-0.908701058312,0.38147928261,1.0,0.0,0.0,0.0,1.0,0.0,0.0,0.0,1.0,0.193207085133,0.107165418565,-0.0664744079113,1.21846967915e-07,0.0,0.0,0.0,1.21846967915e-07,0.0,0.0,0.0,1.21846967915e-07,-0.12748645,0.38245935,7.89435325,9e-08,0.0,0.0,0.0,9e-08,0.0,0.0,0.0,9e-08
1538768633260627175,3015,1538768633259896487,base_link,0.0777469431777,-0.16019279805,-0.911006108684,0.371969824341,1.0,0.0,0.0,0.0,1.0,0.0,0.0,0.0,1.0,-0.119081392884,0.0779306441545,-0.107736706734,1.21846967915e-07,0.0,0.0,0.0,1.21846967915e-07,0.0,0.0,0.0,1.21846967915e-07,-0.26477955,0.588399,7.060788,9e-08,0.0,0.0,0.0,9e-08,0.0,0.0,0.0,9e-08
1538768633710443975,3016,1538768633710183271,base_link,0.0860127481514,-0.151705744316,-0.920709822283,0.349114017835,1.0,0.0,0.0,0.0,1.0,0.0,0.0,0.0,1.0,-0.156061023474,-0.00952179916203,-0.0766780376434,1.21846967915e-07,0.0,0.0,0.0,1.21846967915e-07,0.0,0.0,0.0,1.21846967915e-07,-0.22555295,0.6080123,9.3947707,9e-08,0.0,0.0,0.0,9e-08,0.0,0.0,0.0,9e-08
1538768633967549223,3017,1538768633967250599,base_link,0.0762567963986,-0.129584462447,-0.927789770763,0.341465824589,1.0,0.0,0.0,0.0,1.0,0.0,0.0,0.0,1.0,-0.265407711267,-0.0177232082933,-0.0952187776566,1.21846967915e-07,0.0,0.0,0.0,1.21846967915e-07,0.0,0.0,0.0,1.21846967915e-07,-0.00980665,0.89240515,10.7284751,9e-08,0.0,0.0,0.0,9e-08,0.0,0.0,0.0,9e-08
1538768634238839047,3018,1538768634238638407,base_link,0.0690038248805,-0.0950280321434,-0.93956773711,0.321590753352,1.0,0.0,0.0,0.0,1.0,0.0,0.0,0.0,1.0,-0.249172851443,0.011711393483,-0.200918138027,1.21846967915e-07,0.0,0.0,0.0,1.21846967915e-07,0.0,0.0,0.0,1.21846967915e-07,0.02941995,0.7060788,11.22861425,9e-08,0.0,0.0,0.0,9e-08,0.0,0.0,0.0,9e-08
1538768634609726471,3019,1538768634607806247,base_link,0.0603856825897,-0.0770921397004,-0.948140931456,0.302389063017,1.0,0.0,0.0,0.0,1.0,0.0,0.0,0.0,1.0,-0.0942388996482,-0.0512935519218,-0.0571268498898,1.21846967915e-07,0.0,0.0,0.0,1.21846967915e-07,0.0,0.0,0.0,1.21846967915e-07,-0.1372931,0.50013915,10.87557485,9e-08,0.0,0.0,0.0,9e-08,0.0,0.0,0.0,9e-08
1538768634970107655,3020,1538768634968912327,base_link,0.0457119621271,-0.0579035014797,-0.953032176183,0.293746952657,1.0,0.0,0.0,0.0,1.0,0.0,0.0,0.0,1.0,-0.10820825398,-0.054310284555,-0.0322095267475,1.21846967915e-07,0.0,0.0,0.0,1.21846967915e-07,0.0,0.0,0.0,1.21846967915e-07,-0.0980665,0.6276256,10.40485565,9e-08,0.0,0.0,0.0,9e-08,0.0,0.0,0.0,9e-08
1538768635377134311,3021,1538768635376796007,base_link,0.0259159150819,-0.0354853358758,-0.957138597005,0.286277596759,1.0,0.0,0.0,0.0,1.0,0.0,0.0,0.0,1.0,-0.185952395201,-0.061704043299,-0.0324117578566,1.21846967915e-07,0.0,0.0,0.0,1.21846967915e-07,0.0,0.0,0.0,1.21846967915e-07,0.0,0.6276256,11.8464332,9e-08,0.0,0.0,0.0,9e-08,0.0,0.0,0.0,9e-08
1538768635870872231,3022,1538768635870646855,base_link,0.00357550237441,-0.0151631649368,-0.955149063017,0.295715338849,1.0,0.0,0.0,0.0,1.0,0.0,0.0,0.0,1.0,-0.0746142491698,-0.0327395536005,0.149204075336,1.21846967915e-07,0.0,0.0,0.0,1.21846967915e-07,0.0,0.0,0.0,1.21846967915e-07,0.16671305,0.08825985,11.20900095,9e-08,0.0,0.0,0.0,9e-08,0.0,0.0,0.0,9e-08
1538768636262012775,3023,1538768636261832551,base_link,-0.00338962726574,-0.00012120284695,-0.946979939653,0.321274788353,1.0,0.0,0.0,0.0,1.0,0.0,0.0,0.0,1.0,-0.0912262201309,0.014255461283,0.0686227157712,1.21846967915e-07,0.0,0.0,0.0,1.21846967915e-07,0.0,0.0,0.0,1.21846967915e-07,0.04903325,0.71588545,9.9635564,9e-08,0.0,0.0,0.0,9e-08,0.0,0.0,0.0,9e-08
1538768636836831367,3024,1538768636836574311,base_link,-0.00708897473245,0.0219391964858,-0.948730665674,0.315243623416,1.0,0.0,0.0,0.0,1.0,0.0,0.0,0.0,1.0,0.0179713889956,0.0187068022788,-0.0373391732574,1.21846967915e-07,0.0,0.0,0.0,1.21846967915e-07,0.0,0.0,0.0,1.21846967915e-07,0.10787315,0.5295591,8.99269805,9e-08,0.0,0.0,0.0,9e-08,0.0,0.0,0.0,9e-08
1538768637223636455,3025,1538768637223179335,base_link,-0.00586137069907,0.00980478077376,-0.945479370915,0.325481596685,1.0,0.0,0.0,0.0,1.0,0.0,0.0,0.0,1.0,-0.023445751518,-0.0146954618394,0.196327999234,1.21846967915e-07,0.0,0.0,0.0,1.21846967915e-07,0.0,0.0,0.0,1.21846967915e-07,0.0588399,0.30400615,10.79712165,9e-08,0.0,0.0,0.0,9e-08,0.0,0.0,0.0,9e-08
1538768637640205447,3026,1538768637639562311,base_link,-0.0138677594492,0.0179959318316,-0.93660648218,0.349645719586,1.0,0.0,0.0,0.0,1.0,0.0,0.0,0.0,1.0,-0.0840420424938,-0.0703591033816,0.170978322625,1.21846967915e-07,0.0,0.0,0.0,1.21846967915e-07,0.0,0.0,0.0,1.21846967915e-07,0.48052585,0.1176798,14.34712895,9e-08,0.0,0.0,0.0,9e-08,0.0,0.0,0.0,9e-08
1538768638019530119,3027,1538768638014636263,base_link,-0.0130710145835,0.0197616031195,-0.929038087689,0.369224673122,1.0,0.0,0.0,0.0,1.0,0.0,0.0,0.0,1.0,0.0490778461099,0.0320053696632,0.0245744735003,1.21846967915e-07,0.0,0.0,0.0,1.21846967915e-07,0.0,0.0,0.0,1.21846967915e-07,-0.04903325,0.53936575,9.1397978,9e-08,0.0,0.0,0.0,9e-08,0.0,0.0,0.0,9e-08
1538768638491233799,3028,1538768638491001063,base_link,0.00108431267251,0.0111156270726,-0.932483389659,0.361040157201,1.0,0.0,0.0,0.0,1.0,0.0,0.0,0.0,1.0,0.126760572195,0.023219268769,-0.0535887889564,1.21846967915e-07,0.0,0.0,0.0,1.21846967915e-07,0.0,0.0,0.0,1.21846967915e-07,-0.06864655,0.16671305,7.58054045,9e-08,0.0,0.0,0.0,9e-08,0.0,0.0,0.0,9e-08
1538768638820251271,3029,1538768638819956295,base_link,0.0122420261013,-0.0145116655237,-0.93243934112,0.360827409562,1.0,0.0,0.0,0.0,1.0,0.0,0.0,0.0,1.0,0.214888498187,0.00474783359095,0.0833054184914,1.21846967915e-07,0.0,0.0,0.0,1.21846967915e-07,0.0,0.0,0.0,1.21846967915e-07,0.00980665,0.02941995,9.07115125,9e-08,0.0,0.0,0.0,9e-08,0.0,0.0,0.0,9e-08
1538768639241174855,3030,1538768639240946407,base_link,0.0100680830606,-0.0204594184603,-0.924683991915,0.380052050376,1.0,0.0,0.0,0.0,1.0,0.0,0.0,0.0,1.0,0.0157541576773,-0.00532911578193,0.0360885895789,1.21846967915e-07,0.0,0.0,0.0,1.21846967915e-07,0.0,0.0,0.0,1.21846967915e-07,0.18632635,0.6080123,9.85568325,9e-08,0.0,0.0,0.0,9e-08,0.0,0.0,0.0,9e-08
1538768639636478023,3031,1538768639636215975,base_link,0.00534119544514,-0.0199940127474,-0.926203337628,0.376455958183,1.0,0.0,0.0,0.0,1.0,0.0,0.0,0.0,1.0,0.106081806123,-0.0290602836758,-0.044298324734,1.21846967915e-07,0.0,0.0,0.0,1.21846967915e-07,0.0,0.0,0.0,1.21846967915e-07,0.30400615,0.4903325,10.7677017,9e-08,0.0,0.0,0.0,9e-08,0.0,0.0,0.0,9e-08
1538768640125870247,3032,1538768640125550631,base_link,0.00512924349981,-0.0360749875301,-0.925157463178,0.377830589633,1.0,0.0,0.0,0.0,1.0,0.0,0.0,0.0,1.0,0.132592052221,-0.0321747511625,0.0180661473423,1.21846967915e-07,0.0,0.0,0.0,1.21846967915e-07,0.0,0.0,0.0,1.21846967915e-07,0.36284605,0.50013915,9.9635564,9e-08,0.0,0.0,0.0,9e-08,0.0,0.0,0.0,9e-08
