%time,field.header.seq,field.header.stamp,field.header.frame_id,field.orientation.x,field.orientation.y,field.orientation.z,field.orientation.w,field.orientation_covariance0,field.orientation_covariance1,field.orientation_covariance2,field.orientation_covariance3,field.orientation_covariance4,field.orientation_covariance5,field.orientation_covariance6,field.orientation_covariance7,field.orientation_covariance8,field.angular_velocity.x,field.angular_velocity.y,field.angular_velocity.z,field.angular_velocity_covariance0,field.angular_velocity_covariance1,field.angular_velocity_covariance2,field.angular_velocity_covariance3,field.angular_velocity_covariance4,field.angular_velocity_covariance5,field.angular_velocity_covariance6,field.angular_velocity_covariance7,field.angular_velocity_covariance8,field.linear_acceleration.x,field.linear_acceleration.y,field.linear_acceleration.z,field.linear_acceleration_covariance0,field.linear_acceleration_covariance1,field.linear_acceleration_covariance2,field.linear_acceleration_covariance3,field.linear_acceleration_covariance4,field.linear_acceleration_covariance5,field.linear_acceleration_covariance6,field.linear_acceleration_covariance7,field.linear_acceleration_covariance8
1538770094658998464,2573,1538770094658711776,base_link,0.220874448579,0.0599577160322,-0.218901017117,-0.948526169886,1.0,0.0,0.0,0.0,1.0,0.0,0.0,0.0,1.0,-0.419432401657,-0.0496856942773,0.0760241672397,1.21846967915e-07,0.0,0.0,0.0,1.21846967915e-07,0.0,0.0,0.0,1.21846967915e-07,0.30400615,1.61809725,13.5527903,9e-08,0.0,0.0,0.0,9e-08,0.0,0.0,0.0,9e-08
1538770095104323296,2574,1538770095103824704,base_link,0.308331106635,0.077020139302,-0.249787517634,-0.914661698585,1.0,0.0,0.0,0.0,1.0,0.0,0.0,0.0,1.0,-0.127515599132,-0.122721493244,0.288088858128,1.21846967915e-07,0.0,0.0,0.0,1.21846967915e-07,0.0,0.0,0.0,1.21846967915e-07,-0.9022118,0.53936575,9.022118,9e-08,0.0,0.0,0.0,9e-08,0.0,0.0,0.0,9e-08
1538770095511215744,2575,1538770095510829504,base_link,0.332782660396,0.095475350731,-0.299915815881,-0.888926690862,1.0,0.0,0.0,0.0,1.0,0.0,0.0,0.0,1.0,-0.08291772753,-0.144946530461,0.193948060274,1.21846967915e-07,0.0,0.0,0.0,1.21846967915e-07,0.0,0.0,0.0,1.21846967915e-07,-0.81395195,-0.2353596,10.71866845,9e-08,0.0,0.0,0.0,9e-08,0.0,0.0,0.0,9e-08
1538770095931800224,2576,1538770095931543232,base_link,0.300161939306,0.0928576453985,-0.375099734129,-0.872112640282,1.0,0.0,0.0,0.0,1.0,0.0,0.0,0.0,1.0,-0.0366841331124,-0.184162333608,0.41183501482,1.21846967915e-07,0.0,0.0,0.0,1.21846967915e-07,0.0,0.0,0.0,1.21846967915e-07,-0.6472389,0.14709975,11.4541672,9e-08,0.0,0.0,0.0,9e-08,0.0,0.0,0.0,9e-08
1538770096243260032,2577,1538770096243019712,base_link,0.308434313935,0.105680550927,-0.427525868887,-0.843161625417,1.0,0.0,0.0,0.0,1.0,0.0,0.0,0.0,1.0,-0.255640238523,-0.171903029084,0.221714317799,1.21846967915e-07,0.0,0.0,0.0,1.21846967915e-07,0.0,0.0,0.0,1.21846967915e-07,-0.7649187,0.40207265,11.85623985,9e-08,0.0,0.0,0.0,9e-08,0.0,0.0,0.0,9e-08
1538770096664464768,2578,1538770096664156032,base_link,0.304387718012,0.131120901289,-0.487209754346,-0.807949306354,1.0,0.0,0.0,0.0,1.0,0.0,0.0,0.0,1.0,-0.0391955077648,-0.233724534512,0.325638890266,1.21846967915e-07,0.0,0.0,0.0,1.21846967915e-07,0.0,0.0,0.0,1.21846967915e-07,-0.5099458,-0.02941995,11.8464332,9e-08,0.0,0.0,0.0,9e-08,0.0,0.0,0.0,9e-08
1538770096973923072,2579,1538770096970441440,base_link,0.293542952903,0.149239375599,-0.529623301105,-0.781702822368,1.0,0.0,0.0,0.0,1.0,0.0,0.0,0.0,1.0,-0.0619713030756,-0.266060203314,0.250082612038,1.21846967915e-07,0.0,0.0,0.0,1.21846967915e-07,0.0,0.0,0.0,1.21846967915e-07,-0.7649187,-0.12748645,9.9439431,9e-08,0.0,0.0,0.0,9e-08,0.0,0.0,0.0,9e-08
1538770097323359456,2580,1538770097323072448,base_link,0.264837035498,0.163043960831,-0.592618329247,-0.743021888847,1.0,0.0,0.0,0.0,1.0,0.0,0.0,0.0,1.0,0.116653382778,-0.302732110023,0.364793002605,1.21846967915e-07,0.0,0.0,0.0,1.21846967915e-07,0.0,0.0,0.0,1.21846967915e-07,-0.4511059,-0.02941995,14.17060925,9e-08,0.0,0.0,0.0,9e-08,0.0,0.0,0.0,9e-08
1538770097762197376,2581,1538770097761872352,base_link,0.255971371922,0.216829228736,-0.661362895452,-0.670867246809,1.0,0.0,0.0,0.0,1.0,0.0,0.0,0.0,1.0,-0.170609146357,-0.313756167889,0.1909250319,1.21846967915e-07,0.0,0.0,0.0,1.21846967915e-07,0.0,0.0,0.0,1.21846967915e-07,-0.4314926,0.5295591,16.19077915,9e-08,0.0,0.0,0.0,9e-08,0.0,0.0,0.0,9e-08
1538770098171656896,2582,1538770098171419264,base_link,0.208076095668,0.240574421434,-0.710120316443,-0.628138059935,1.0,0.0,0.0,0.0,1.0,0.0,0.0,0.0,1.0,-0.0689894706011,-0.352168977261,0.302597403526,1.21846967915e-07,0.0,0.0,0.0,1.21846967915e-07,0.0,0.0,0.0,1.21846967915e-07,-0.2353596,-0.1372931,15.8475464,9e-08,0.0,0.0,0.0,9e-08,0.0,0.0,0.0,9e-08
1538770098542072032,2583,1538770098541422176,base_link,0.195804252936,0.275479318179,-0.749907305274,-0.568692248307,1.0,0.0,0.0,0.0,1.0,0.0,0.0,0.0,1.0,-0.0417661629617,-0.299877345562,0.267579495907,1.21846967915e-07,0.0,0.0,0.0,1.21846967915e-07,0.0,0.0,0.0,1.21846967915e-07,-0.3530394,0.42168595,12.85651815,9e-08,0.0,0.0,0.0,9e-08,0.0,0.0,0.0,9e-08
1538770099037887200,2584,1538770099037696960,base_link,0.159546051702,0.312607765773,-0.794253197978,-0.495967034859,1.0,0.0,0.0,0.0,1.0,0.0,0.0,0.0,1.0,0.0811548084021,-0.313979208469,0.327421844006,1.21846967915e-07,0.0,0.0,0.0,1.21846967915e-07,0.0,0.0,0.0,1.21846967915e-07,0.0392266,-0.3530394,14.1804159,9e-08,0.0,0.0,0.0,9e-08,0.0,0.0,0.0,9e-08
1538770099480809184,2585,1538770099480397184,base_link,0.116686823773,0.302000798074,-0.8517630244,-0.411921659281,1.0,0.0,0.0,0.0,1.0,0.0,0.0,0.0,1.0,0.247259199619,-0.24745310843,0.294088721275,1.21846967915e-07,0.0,0.0,0.0,1.21846967915e-07,0.0,0.0,0.0,1.21846967915e-07,0.1176798,0.30400615,14.3569356,9e-08,0.0,0.0,0.0,9e-08,0.0,0.0,0.0,9e-08
1538770099836533824,2586,1538770099836127360,base_link,0.0574984672999,0.226055666097,-0.896397649873,-0.376913803656,1.0,0.0,0.0,0.0,1.0,0.0,0.0,0.0,1.0,0.787017226219,-0.127069205046,0.201523780823,1.21846967915e-07,0.0,0.0,0.0,1.21846967915e-07,0.0,0.0,0.0,1.21846967915e-07,-0.0196133,-0.34323275,11.13054775,9e-08,0.0,0.0,0.0,9e-08,0.0,0.0,0.0,9e-08
1538770100207783648,2587,1538770100207307616,base_link,0.00710404870205,0.119826081642,-0.935461877731,-0.332418889298,1.0,0.0,0.0,0.0,1.0,0.0,0.0,0.0,1.0,0.482855141163,-0.060309458524,0.209890186787,1.21846967915e-07,0.0,0.0,0.0,1.21846967915e-07,0.0,0.0,0.0,1.21846967915e-07,-0.0980665,0.3726527,11.26784085,9e-08,0.0,0.0,0.0,9e-08,0.0,0.0,0.0,9e-08
1538770100468374496,2588,1538770100467085152,base_link,-0.0123026890373,0.0697818478075,-0.947322485696,-0.312344754485,1.0,0.0,0.0,0.0,1.0,0.0,0.0,0.0,1.0,0.356464833021,-0.0157455168664,0.0944125577807,1.21846967915e-07,0.0,0.0,0.0,1.21846967915e-07,0.0,0.0,0.0,1.21846967915e-07,-0.0980665,0.588399,11.50320045,9e-08,0.0,0.0,0.0,9e-08,0.0,0.0,0.0,9e-08
1538770100761988864,2589,1538770100759765728,base_link,-0.0270243778638,0.023921624394,-0.950879958214,-0.307448766388,1.0,0.0,0.0,0.0,1.0,0.0,0.0,0.0,1.0,0.423524022102,0.0468939170241,-0.0284349806607,1.21846967915e-07,0.0,0.0,0.0,1.21846967915e-07,0.0,0.0,0.0,1.21846967915e-07,0.0,0.4511059,10.36562905,9e-08,0.0,0.0,0.0,9e-08,0.0,0.0,0.0,9e-08
1538770101207288320,2590,1538770101206968960,base_link,-0.0424152790311,-0.0581463300368,-0.950140607154,-0.303402002375,1.0,0.0,0.0,0.0,1.0,0.0,0.0,0.0,1.0,0.183305457234,0.0349169075489,0.128212049603,1.21846967915e-07,0.0,0.0,0.0,1.21846967915e-07,0.0,0.0,0.0,1.21846967915e-07,0.08825985,-0.12748645,10.8461549,9e-08,0.0,0.0,0.0,9e-08,0.0,0.0,0.0,9e-08
1538770101651562624,2591,1538770101650571488,base_link,-0.0339708791597,-0.0627096470007,-0.957056675267,-0.280991102831,1.0,0.0,0.0,0.0,1.0,0.0,0.0,0.0,1.0,-0.111001811922,0.0894627571106,-0.0421285107732,1.21846967915e-07,0.0,0.0,0.0,1.21846967915e-07,0.0,0.0,0.0,1.21846967915e-07,0.0392266,0.83356525,8.8063717,9e-08,0.0,0.0,0.0,9e-08,0.0,0.0,0.0,9e-08
1538770102105048640,2592,1538770102104585184,base_link,-0.0150641301762,-0.0688765266743,-0.949453201211,-0.305888402471,1.0,0.0,0.0,0.0,1.0,0.0,0.0,0.0,1.0,0.000508582219481,0.0539339669049,-0.0752525255084,1.21846967915e-07,0.0,0.0,0.0,1.21846967915e-07,0.0,0.0,0.0,1.21846967915e-07,0.04903325,0.0980665,8.0610663,9e-08,0.0,0.0,0.0,9e-08,0.0,0.0,0.0,9e-08
1538770102569174560,2593,1538770102568865664,base_link,-0.00989090590927,-0.0554771996994,-0.951264696999,-0.303182991835,1.0,0.0,0.0,0.0,1.0,0.0,0.0,0.0,1.0,-0.12915225327,0.00732097355649,0.0537379533052,1.21846967915e-07,0.0,0.0,0.0,1.21846967915e-07,0.0,0.0,0.0,1.21846967915e-07,0.2157463,0.4903325,10.46369555,9e-08,0.0,0.0,0.0,9e-08,0.0,0.0,0.0,9e-08
1538770102953186592,2594,1538770102952767072,base_link,0.000541578147466,-0.0311686303743,-0.951280814384,-0.306745880752,1.0,0.0,0.0,0.0,1.0,0.0,0.0,0.0,1.0,-0.169864520431,0.0253280922771,-0.0646330341697,1.21846967915e-07,0.0,0.0,0.0,1.21846967915e-07,0.0,0.0,0.0,1.21846967915e-07,0.20593965,0.67665885,9.91452315,9e-08,0.0,0.0,0.0,9e-08,0.0,0.0,0.0,9e-08
1538770103328348032,2595,1538770103326793472,base_link,0.00995308950977,0.00333755730982,-0.948294736288,-0.317217417315,1.0,0.0,0.0,0.0,1.0,0.0,0.0,0.0,1.0,-0.171870574355,-0.027375921607,-0.0240068025887,1.21846967915e-07,0.0,0.0,0.0,1.21846967915e-07,0.0,0.0,0.0,1.21846967915e-07,0.28439285,0.3138128,10.3362091,9e-08,0.0,0.0,0.0,9e-08,0.0,0.0,0.0,9e-08
1538770103855014560,2596,1538770103854622912,base_link,-0.00290366396332,-0.000904162712324,-0.950535901376,-0.310599825211,1.0,0.0,0.0,0.0,1.0,0.0,0.0,0.0,1.0,0.0417051874101,-0.0574489049613,0.0521034896374,1.21846967915e-07,0.0,0.0,0.0,1.21846967915e-07,0.0,0.0,0.0,1.21846967915e-07,0.40207265,0.34323275,11.79739995,9e-08,0.0,0.0,0.0,9e-08,0.0,0.0,0.0,9e-08
1538770104304731392,2597,1538770104304398528,base_link,-0.0144044547168,-0.00305740221088,-0.954664047855,-0.297320903586,1.0,0.0,0.0,0.0,1.0,0.0,0.0,0.0,1.0,-0.0580097511411,-0.0227686800063,0.0712105259299,1.21846967915e-07,0.0,0.0,0.0,1.21846967915e-07,0.0,0.0,0.0,1.21846967915e-07,0.18632635,0.61781895,9.67916355,9e-08,0.0,0.0,0.0,9e-08,0.0,0.0,0.0,9e-08
1538770104674846336,2598,1538770104674580960,base_link,-0.0249581728823,-0.0118374601137,-0.954551222161,-0.296764095564,1.0,0.0,0.0,0.0,1.0,0.0,0.0,0.0,1.0,0.104760065675,-0.0369940511882,-0.0242185201496,1.21846967915e-07,0.0,0.0,0.0,1.21846967915e-07,0.0,0.0,0.0,1.21846967915e-07,0.24516625,0.5687857,10.4735022,9e-08,0.0,0.0,0.0,9e-08,0.0,0.0,0.0,9e-08
1538770105042303328,2599,1538770105041857056,base_link,-0.0395812375857,-0.0327904620632,-0.952792326049,-0.299240529759,1.0,0.0,0.0,0.0,1.0,0.0,0.0,0.0,1.0,0.169376969337,-0.0192049648613,-0.00406139902771,1.21846967915e-07,0.0,0.0,0.0,1.21846967915e-07,0.0,0.0,0.0,1.21846967915e-07,0.3726527,0.4707192,10.85596155,9e-08,0.0,0.0,0.0,9e-08,0.0,0.0,0.0,9e-08
1538770105530291072,2600,1538770105529997344,base_link,-0.0518540750353,-0.0601646407638,-0.951272603819,-0.297945975182,1.0,0.0,0.0,0.0,1.0,0.0,0.0,0.0,1.0,0.139857590199,0.0066852979362,-0.0140173360705,1.21846967915e-07,0.0,0.0,0.0,1.21846967915e-07,0.0,0.0,0.0,1.21846967915e-07,0.30400615,0.6864655,10.8853815,9e-08,0.0,0.0,0.0,9e-08,0.0,0.0,0.0,9e-08
1538770106034187456,2601,1538770106033797664,base_link,-0.068992411362,-0.13667553997,-0.934584801497,-0.321109160192,1.0,0.0,0.0,0.0,1.0,0.0,0.0,0.0,1.0,0.606582045555,0.0191801823676,-0.203435629606,1.21846967915e-07,0.0,0.0,0.0,1.21846967915e-07,0.0,0.0,0.0,1.21846967915e-07,0.1569064,0.53936575,8.20816605,9e-08,0.0,0.0,0.0,9e-08,0.0,0.0,0.0,9e-08
1538770106510716192,2602,1538770106510340704,base_link,-0.114543028417,-0.268897363081,-0.887653104301,-0.355873670273,1.0,0.0,0.0,0.0,1.0,0.0,0.0,0.0,1.0,0.47646677494,-0.0736918151379,-0.237148538232,1.21846967915e-07,0.0,0.0,0.0,1.21846967915e-07,0.0,0.0,0.0,1.21846967915e-07,0.2745862,0.87279185,8.20816605,9e-08,0.0,0.0,0.0,9e-08,0.0,0.0,0.0,9e-08
1538770106972308928,2603,1538770106971860320,base_link,-0.134911984427,-0.300528026477,-0.841344722763,-0.428509882311,1.0,0.0,0.0,0.0,1.0,0.0,0.0,0.0,1.0,0.166941270232,-0.208252727985,-0.407974690199,1.21846967915e-07,0.0,0.0,0.0,1.21846967915e-07,0.0,0.0,0.0,1.21846967915e-07,0.784532,0.9218251,10.60098865,9e-08,0.0,0.0,0.0,9e-08,0.0,0.0,0.0,9e-08
1538770107353325408,2604,1538770107353048512,base_link,-0.174241344758,-0.316370329002,-0.790644614619,-0.494399496438,1.0,0.0,0.0,0.0,1.0,0.0,0.0,0.0,1.0,0.0635857656598,-0.321230441332,-0.27132114768,1.21846967915e-07,0.0,0.0,0.0,1.21846967915e-07,0.0,0.0,0.0,1.21846967915e-07,1.0591182,0.7060788,12.24850585,9e-08,0.0,0.0,0.0,9e-08,0.0,0.0,0.0,9e-08
1538770107753938912,2605,1538770107753579136,base_link,-0.222887484591,-0.295604644647,-0.745520721718,-0.554200249698,1.0,0.0,0.0,0.0,1.0,0.0,0.0,0.0,1.0,-0.0769211649895,-0.396521240473,-0.278079241514,1.21846967915e-07,0.0,0.0,0.0,1.21846967915e-07,0.0,0.0,0.0,1.21846967915e-07,1.71616375,1.57887065,14.83746145,9e-08,0.0,0.0,0.0,9e-08,0.0,0.0,0.0,9e-08
1538770108149593440,2606,1538770108149309600,base_link,-0.25850060255,-0.266816947816,-0.688117207335,-0.623282330737,1.0,0.0,0.0,0.0,1.0,0.0,0.0,0.0,1.0,0.174640208483,-0.382279604673,-0.336397320032,1.21846967915e-07,0.0,0.0,0.0,1.21846967915e-07,0.0,0.0,0.0,1.21846967915e-07,1.61809725,1.06892485,13.9646696,9e-08,0.0,0.0,0.0,9e-08,0.0,0.0,0.0,9e-08
1538770108573530144,2607,1538770108572990208,base_link,-0.308139030323,-0.236434059532,-0.619291303354,-0.682369075409,1.0,0.0,0.0,0.0,1.0,0.0,0.0,0.0,1.0,0.0345609746873,-0.434257179499,-0.250532507896,1.21846967915e-07,0.0,0.0,0.0,1.21846967915e-07,0.0,0.0,0.0,1.21846967915e-07,2.0201699,1.2552512,16.2594257,9e-08,0.0,0.0,0.0,9e-08,0.0,0.0,0.0,9e-08
1538770108838629376,2608,1538770108838262048,base_link,-0.336250825427,-0.216254585997,-0.571162940255,-0.716897644098,1.0,0.0,0.0,0.0,1.0,0.0,0.0,0.0,1.0,-0.0260914657265,-0.390231132507,-0.358624607325,1.21846967915e-07,0.0,0.0,0.0,1.21846967915e-07,0.0,0.0,0.0,1.21846967915e-07,1.9221034,1.4906108,14.13138265,9e-08,0.0,0.0,0.0,9e-08,0.0,0.0,0.0,9e-08
1538770109227247040,2609,1538770109225223200,base_link,-0.35124903154,-0.169395942602,-0.494524232593,-0.776772113203,1.0,0.0,0.0,0.0,1.0,0.0,0.0,0.0,1.0,0.0723526775837,-0.427525997162,-0.332490831614,1.21846967915e-07,0.0,0.0,0.0,1.21846967915e-07,0.0,0.0,0.0,1.21846967915e-07,2.0397832,0.980665,15.42586045,9e-08,0.0,0.0,0.0,9e-08,0.0,0.0,0.0,9e-08
1538770109610849408,2610,1538770109604736992,base_link,-0.381912598666,-0.129264553129,-0.408433119611,-0.818911368275,1.0,0.0,0.0,0.0,1.0,0.0,0.0,0.0,1.0,0.0181618668139,-0.452661126852,-0.357967734337,1.21846967915e-07,0.0,0.0,0.0,1.21846967915e-07,0.0,0.0,0.0,1.21846967915e-07,1.75539035,0.89240515,15.15127425,9e-08,0.0,0.0,0.0,9e-08,0.0,0.0,0.0,9e-08
1538770109966293568,2611,1538770109965973888,base_link,-0.412002327786,-0.0790701564674,-0.326763074248,-0.846893077999,1.0,0.0,0.0,0.0,1.0,0.0,0.0,0.0,1.0,0.111268728971,-0.48091378808,-0.227221384645,1.21846967915e-07,0.0,0.0,0.0,1.21846967915e-07,0.0,0.0,0.0,1.21846967915e-07,1.7063571,0.784532,14.95514125,9e-08,0.0,0.0,0.0,9e-08,0.0,0.0,0.0,9e-08
1538770110435729568,2612,1538770110435504960,base_link,-0.419805016208,-0.0232512471306,-0.229575229871,-0.877791741647,1.0,0.0,0.0,0.0,1.0,0.0,0.0,0.0,1.0,-0.146392300725,-0.340933948755,-0.364373445511,1.21846967915e-07,0.0,0.0,0.0,1.21846967915e-07,0.0,0.0,0.0,1.21846967915e-07,1.55925735,0.9022118,13.9646696,9e-08,0.0,0.0,0.0,9e-08,0.0,0.0,0.0,9e-08
1538770110837575904,2613,1538770110836563168,base_link,-0.409564162297,0.017646626783,-0.141714977099,-0.901034216216,1.0,0.0,0.0,0.0,1.0,0.0,0.0,0.0,1.0,-0.145653262734,-0.298035353422,-0.305242836475,1.21846967915e-07,0.0,0.0,0.0,1.21846967915e-07,0.0,0.0,0.0,1.21846967915e-07,0.99047165,0.95124505,12.1014061,9e-08,0.0,0.0,0.0,9e-08,0.0,0.0,0.0,9e-08
1538770111244920384,2614,1538770111244710176,base_link,-0.387317230526,0.0423202359523,-0.0594311055103,-0.919055114922,1.0,0.0,0.0,0.0,1.0,0.0,0.0,0.0,1.0,-0.207054644823,-0.194675073028,-0.371239513159,1.21846967915e-07,0.0,0.0,0.0,1.21846967915e-07,0.0,0.0,0.0,1.21846967915e-07,0.63743225,1.0395049,11.6503002,9e-08,0.0,0.0,0.0,9e-08,0.0,0.0,0.0,9e-08
1538770111819428288,2615,1538770111818942048,base_link,-0.377301990295,0.0607875728662,0.0638386561895,-0.921885407781,1.0,0.0,0.0,0.0,1.0,0.0,0.0,0.0,1.0,-0.0585367083549,-0.221178859472,-0.320424407721,1.21846967915e-07,0.0,0.0,0.0,1.21846967915e-07,0.0,0.0,0.0,1.21846967915e-07,0.4707192,0.784532,11.40513395,9e-08,0.0,0.0,0.0,9e-08,0.0,0.0,0.0,9e-08
1538770112239065920,2616,1538770112237805024,base_link,-0.378604716159,0.079180533666,0.146210104787,-0.910500695908,1.0,0.0,0.0,0.0,1.0,0.0,0.0,0.0,1.0,-0.0317359343171,-0.216660529375,-0.346449792385,1.21846967915e-07,0.0,0.0,0.0,1.21846967915e-07,0.0,0.0,0.0,1.21846967915e-07,0.30400615,0.9610517,10.2969825,9e-08,0.0,0.0,0.0,9e-08,0.0,0.0,0.0,9e-08
1538770112630824000,2617,1538770112630510368,base_link,-0.371005979113,0.0991387626574,0.233946563142,-0.893193749864,1.0,0.0,0.0,0.0,1.0,0.0,0.0,0.0,1.0,-0.108239606023,-0.30342566967,-0.357194393873,1.21846967915e-07,0.0,0.0,0.0,1.21846967915e-07,0.0,0.0,0.0,1.21846967915e-07,0.2745862,0.59820565,11.64049355,9e-08,0.0,0.0,0.0,9e-08,0.0,0.0,0.0,9e-08
1538770113023476032,2618,1538770113022673056,base_link,-0.346330603143,0.130472315422,0.312096826069,-0.875001519652,1.0,0.0,0.0,0.0,1.0,0.0,0.0,0.0,1.0,-0.117528423667,-0.333702206612,-0.306319981813,1.21846967915e-07,0.0,0.0,0.0,1.21846967915e-07,0.0,0.0,0.0,1.21846967915e-07,0.4118793,0.6668522,14.01370285,9e-08,0.0,0.0,0.0,9e-08,0.0,0.0,0.0,9e-08
1538770113446176256,2619,1538770113442259776,base_link,-0.309181820425,0.155609298943,0.395197793849,-0.850888389707,1.0,0.0,0.0,0.0,1.0,0.0,0.0,0.0,1.0,-0.233022496104,-0.296223104,-0.319361746311,1.21846967915e-07,0.0,0.0,0.0,1.21846967915e-07,0.0,0.0,0.0,1.21846967915e-07,0.4314926,0.8237586,13.337044,9e-08,0.0,0.0,0.0,9e-08,0.0,0.0,0.0,9e-08
1538770113872000928,2620,1538770113871651168,base_link,-0.200940415685,0.133791519437,0.472904266087,-0.847398568436,1.0,0.0,0.0,0.0,1.0,0.0,0.0,0.0,1.0,-0.979260504246,-0.181652516127,-0.200825303793,1.21846967915e-07,0.0,0.0,0.0,1.21846967915e-07,0.0,0.0,0.0,1.21846967915e-07,0.14709975,0.87279185,13.6116302,9e-08,0.0,0.0,0.0,9e-08,0.0,0.0,0.0,9e-08
1538770114303467264,2621,1538770114303119808,base_link,-0.203618641135,0.138868948599,0.523939249281,-0.815317439505,1.0,0.0,0.0,0.0,1.0,0.0,0.0,0.0,1.0,0.549006819725,-0.0462481081486,-0.275767952204,1.21846967915e-07,0.0,0.0,0.0,1.21846967915e-07,0.0,0.0,0.0,1.21846967915e-07,-0.14709975,0.46091255,10.1204628,9e-08,0.0,0.0,0.0,9e-08,0.0,0.0,0.0,9e-08
1538770114739501408,2622,1538770114739223872,base_link,-0.257076122743,0.183529008783,0.552993135826,-0.770991285152,1.0,0.0,0.0,0.0,1.0,0.0,0.0,0.0,1.0,0.281426429749,-0.133222281933,-0.220343232155,1.21846967915e-07,0.0,0.0,0.0,1.21846967915e-07,0.0,0.0,0.0,1.21846967915e-07,-0.18632635,0.5687857,9.63993695,9e-08,0.0,0.0,0.0,9e-08,0.0,0.0,0.0,9e-08
1538770115145579360,2623,1538770115145294880,base_link,-0.280624498878,0.220418127238,0.595365274519,-0.719865216351,1.0,0.0,0.0,0.0,1.0,0.0,0.0,0.0,1.0,0.0858382955194,-0.18676070869,-0.350969523191,1.21846967915e-07,0.0,0.0,0.0,1.21846967915e-07,0.0,0.0,0.0,1.21846967915e-07,-0.10787315,1.20621795,11.48358715,9e-08,0.0,0.0,0.0,9e-08,0.0,0.0,0.0,9e-08
1538770115544481856,2624,1538770115544185344,base_link,-0.287375010346,0.245777674085,0.655169427045,-0.654035136836,1.0,0.0,0.0,0.0,1.0,0.0,0.0,0.0,1.0,0.0350129418075,-0.267446309328,-0.342390060425,1.21846967915e-07,0.0,0.0,0.0,1.21846967915e-07,0.0,0.0,0.0,1.21846967915e-07,0.06864655,0.5687857,11.1991943,9e-08,0.0,0.0,0.0,9e-08,0.0,0.0,0.0,9e-08
1538770115864626176,2625,1538770115862419488,base_link,0.268843759879,-0.256581897498,-0.696139726694,0.614229797037,1.0,0.0,0.0,0.0,1.0,0.0,0.0,0.0,1.0,-0.110399223864,-0.310819655657,-0.335111290216,1.21846967915e-07,0.0,0.0,0.0,1.21846967915e-07,0.0,0.0,0.0,1.21846967915e-07,0.196133,0.8629852,12.26811915,9e-08,0.0,0.0,0.0,9e-08,0.0,0.0,0.0,9e-08
1538770116294045216,2626,1538770116293590944,base_link,0.238864931198,-0.284621732167,-0.756071176089,0.538786034441,1.0,0.0,0.0,0.0,1.0,0.0,0.0,0.0,1.0,0.0171857941896,-0.341665893793,-0.317668676376,1.21846967915e-07,0.0,0.0,0.0,1.21846967915e-07,0.0,0.0,0.0,1.21846967915e-07,0.24516625,0.8237586,13.32723735,9e-08,0.0,0.0,0.0,9e-08,0.0,0.0,0.0,9e-08
1538770116691111392,2627,1538770116690866784,base_link,0.208735184382,-0.310595253159,-0.800632561236,0.467918490129,1.0,0.0,0.0,0.0,1.0,0.0,0.0,0.0,1.0,0.031360771507,-0.338344544172,-0.329055458307,1.21846967915e-07,0.0,0.0,0.0,1.21846967915e-07,0.0,0.0,0.0,1.21846967915e-07,0.24516625,0.93163175,13.03303785,9e-08,0.0,0.0,0.0,9e-08,0.0,0.0,0.0,9e-08
1538770117065572032,2628,1538770117065377216,base_link,0.172343854071,-0.322708767792,-0.842846041819,0.394673532104,1.0,0.0,0.0,0.0,1.0,0.0,0.0,0.0,1.0,-0.0350401289761,-0.371906459332,-0.306250274181,1.21846967915e-07,0.0,0.0,0.0,1.21846967915e-07,0.0,0.0,0.0,1.21846967915e-07,0.3334261,0.4707192,12.54270535,9e-08,0.0,0.0,0.0,9e-08,0.0,0.0,0.0,9e-08
1538770117439175360,2629,1538770117438952768,base_link,0.12588575556,-0.339275645772,-0.870705176167,0.333042503188,1.0,0.0,0.0,0.0,1.0,0.0,0.0,0.0,1.0,-0.0905434936285,-0.407329559326,-0.227075919509,1.21846967915e-07,0.0,0.0,0.0,1.21846967915e-07,0.0,0.0,0.0,1.21846967915e-07,0.40207265,1.0002783,15.40624715,9e-08,0.0,0.0,0.0,9e-08,0.0,0.0,0.0,9e-08
1538770117852385792,2630,1538770117850996064,base_link,0.071758584898,-0.341669672947,-0.900938068233,0.257726865674,1.0,0.0,0.0,0.0,1.0,0.0,0.0,0.0,1.0,-0.0264564454556,-0.346725672483,-0.300763040781,1.21846967915e-07,0.0,0.0,0.0,1.21846967915e-07,0.0,0.0,0.0,1.21846967915e-07,0.4707192,0.99047165,14.6903617,9e-08,0.0,0.0,0.0,9e-08,0.0,0.0,0.0,9e-08
1538770118206520064,2631,1538770118206180192,base_link,0.0329300733524,-0.354872129587,-0.913130381567,0.197924955908,1.0,0.0,0.0,0.0,1.0,0.0,0.0,0.0,1.0,0.0304152183235,-0.329237699509,-0.184990376234,1.21846967915e-07,0.0,0.0,0.0,1.21846967915e-07,0.0,0.0,0.0,1.21846967915e-07,0.6864655,1.0395049,13.95486295,9e-08,0.0,0.0,0.0,9e-08,0.0,0.0,0.0,9e-08
1538770118502197664,2632,1538770118501786912,base_link,0.0120324177063,-0.358481532207,-0.922611762394,0.141893438479,1.0,0.0,0.0,0.0,1.0,0.0,0.0,0.0,1.0,0.0334182754159,-0.206237405539,-0.383632212877,1.21846967915e-07,0.0,0.0,0.0,1.21846967915e-07,0.0,0.0,0.0,1.21846967915e-07,0.57859235,1.0787315,12.4740588,9e-08,0.0,0.0,0.0,9e-08,0.0,0.0,0.0,9e-08
1538770118907634080,2633,1538770118907357024,base_link,-0.00181460517996,-0.361887147161,-0.930313745165,0.0595880481702,1.0,0.0,0.0,0.0,1.0,0.0,0.0,0.0,1.0,-0.125578552485,-0.209831312299,-0.342145770788,1.21846967915e-07,0.0,0.0,0.0,1.21846967915e-07,0.0,0.0,0.0,1.21846967915e-07,0.42168595,0.97085835,10.6107953,9e-08,0.0,0.0,0.0,9e-08,0.0,0.0,0.0,9e-08
1538770119313868832,2634,1538770119310875296,base_link,-0.0168763813665,-0.369322643699,-0.928705360747,-0.0286762187751,1.0,0.0,0.0,0.0,1.0,0.0,0.0,0.0,1.0,-0.00227456726134,-0.286780387163,-0.36842033267,1.21846967915e-07,0.0,0.0,0.0,1.21846967915e-07,0.0,0.0,0.0,1.21846967915e-07,0.42168595,0.85317855,12.4348322,9e-08,0.0,0.0,0.0,9e-08,0.0,0.0,0.0,9e-08
1538770119726714752,2635,1538770119724833312,base_link,-0.0520905682476,-0.37465991154,-0.918806506812,-0.112743631411,1.0,0.0,0.0,0.0,1.0,0.0,0.0,0.0,1.0,-0.0170588120818,-0.331030398607,-0.297955870628,1.21846967915e-07,0.0,0.0,0.0,1.21846967915e-07,0.0,0.0,0.0,1.21846967915e-07,0.57859235,0.91201845,13.1801376,9e-08,0.0,0.0,0.0,9e-08,0.0,0.0,0.0,9e-08
1538770120119315584,2636,1538770120119077824,base_link,-0.0895233573058,-0.351925838644,-0.911580845406,-0.192754078765,1.0,0.0,0.0,0.0,1.0,0.0,0.0,0.0,1.0,-0.187621846795,-0.343281567097,-0.273732423782,1.21846967915e-07,0.0,0.0,0.0,1.21846967915e-07,0.0,0.0,0.0,1.21846967915e-07,0.5687857,0.8825985,13.6116302,9e-08,0.0,0.0,0.0,9e-08,0.0,0.0,0.0,9e-08
1538770120637001056,2637,1538770120636730080,base_link,-0.109305474707,-0.246020303457,-0.917207163892,-0.293696002682,1.0,0.0,0.0,0.0,1.0,0.0,0.0,0.0,1.0,-0.592459976673,-0.194608733058,-0.313417464495,1.21846967915e-07,0.0,0.0,0.0,1.21846967915e-07,0.0,0.0,0.0,1.21846967915e-07,0.46091255,1.0787315,13.7685366,9e-08,0.0,0.0,0.0,9e-08,0.0,0.0,0.0,9e-08
1538770121038471168,2638,1538770121035394912,base_link,-0.0924723923341,-0.144118998234,-0.917123673706,-0.359948243686,1.0,0.0,0.0,0.0,1.0,0.0,0.0,0.0,1.0,-0.617327332497,-0.117121517658,-0.204537600279,1.21846967915e-07,0.0,0.0,0.0,1.21846967915e-07,0.0,0.0,0.0,1.21846967915e-07,0.0,0.63743225,11.571847,9e-08,0.0,0.0,0.0,9e-08,0.0,0.0,0.0,9e-08
1538770121319378528,2639,1538770121318718784,base_link,-0.0619488117973,-0.0510179114899,-0.917489695188,-0.389579486944,1.0,0.0,0.0,0.0,1.0,0.0,0.0,0.0,1.0,-0.743009269238,-0.0585567206144,-0.110344924033,1.21846967915e-07,0.0,0.0,0.0,1.21846967915e-07,0.0,0.0,0.0,1.21846967915e-07,-0.1765197,0.36284605,10.28717585,9e-08,0.0,0.0,0.0,9e-08,0.0,0.0,0.0,9e-08
1538770121834050176,2640,1538770121825530304,base_link,0.0131670928119,0.12727059789,-0.912085328723,-0.389524294117,1.0,0.0,0.0,0.0,1.0,0.0,0.0,0.0,1.0,-0.947526395321,-0.0171675793827,0.129974901676,1.21846967915e-07,0.0,0.0,0.0,1.21846967915e-07,0.0,0.0,0.0,1.21846967915e-07,-0.14709975,0.22555295,9.6497436,9e-08,0.0,0.0,0.0,9e-08,0.0,0.0,0.0,9e-08
1538770122210569472,2641,1538770122210168384,base_link,0.0716781360347,0.262942483968,-0.89745708644,-0.346834647833,1.0,0.0,0.0,0.0,1.0,0.0,0.0,0.0,1.0,-0.456778079271,-0.0549838133156,0.271109610796,1.21846967915e-07,0.0,0.0,0.0,1.21846967915e-07,0.0,0.0,0.0,1.21846967915e-07,-0.02941995,0.06864655,9.5124505,9e-08,0.0,0.0,0.0,9e-08,0.0,0.0,0.0,9e-08
1538770122563831616,2642,1538770122563409920,base_link,0.0894652518573,0.316552999625,-0.898353295378,-0.291121149733,1.0,0.0,0.0,0.0,1.0,0.0,0.0,0.0,1.0,-0.340665340424,-0.149699509144,0.285661965609,1.21846967915e-07,0.0,0.0,0.0,1.21846967915e-07,0.0,0.0,0.0,1.21846967915e-07,0.00980665,0.18632635,9.40457735,9e-08,0.0,0.0,0.0,9e-08,0.0,0.0,0.0,9e-08
1538770122858505280,2643,1538770122858105824,base_link,0.0900450760663,0.351298194666,-0.899797053587,-0.24258343937,1.0,0.0,0.0,0.0,1.0,0.0,0.0,0.0,1.0,-0.256399095058,-0.228376090527,0.319339245558,1.21846967915e-07,0.0,0.0,0.0,1.21846967915e-07,0.0,0.0,0.0,1.21846967915e-07,0.16671305,-0.04903325,10.6500219,9e-08,0.0,0.0,0.0,9e-08,0.0,0.0,0.0,9e-08
1538770123322116192,2644,1538770123321834912,base_link,0.0627058659771,0.372889618474,-0.916680696497,-0.12929736067,1.0,0.0,0.0,0.0,1.0,0.0,0.0,0.0,1.0,-0.0654202327132,-0.354805141687,0.448485404253,1.21846967915e-07,0.0,0.0,0.0,1.21846967915e-07,0.0,0.0,0.0,1.21846967915e-07,0.5099458,-0.24516625,12.3171524,9e-08,0.0,0.0,0.0,9e-08,0.0,0.0,0.0,9e-08
1538770123624299968,2645,1538770123623997888,base_link,0.0371441109751,0.387023071026,-0.920506436944,-0.0387473490541,1.0,0.0,0.0,0.0,1.0,0.0,0.0,0.0,1.0,-0.114544123411,-0.409986466169,0.4515658319,1.21846967915e-07,0.0,0.0,0.0,1.21846967915e-07,0.0,0.0,0.0,1.21846967915e-07,0.6668522,0.1569064,13.20955755,9e-08,0.0,0.0,0.0,9e-08,0.0,0.0,0.0,9e-08
1538770124139913600,2646,1538770124139668480,base_link,-0.030949180359,0.414055736794,-0.904459846216,0.0977362862307,1.0,0.0,0.0,0.0,1.0,0.0,0.0,0.0,1.0,-0.0384203642607,-0.490888834,0.329693853855,1.21846967915e-07,0.0,0.0,0.0,1.21846967915e-07,0.0,0.0,0.0,1.21846967915e-07,1.1571847,-0.0196133,14.6119085,9e-08,0.0,0.0,0.0,9e-08,0.0,0.0,0.0,9e-08
1538770124496190208,2647,1538770124495781312,base_link,-0.0848797488556,0.387526500509,-0.894258035015,0.207174338296,1.0,0.0,0.0,0.0,1.0,0.0,0.0,0.0,1.0,0.399075299501,-0.542770385742,0.434767246246,1.21846967915e-07,0.0,0.0,0.0,1.21846967915e-07,0.0,0.0,0.0,1.21846967915e-07,1.5886773,0.20593965,17.26951065,9e-08,0.0,0.0,0.0,9e-08,0.0,0.0,0.0,9e-08
1538770124944141728,2648,1538770124943880000,base_link,-0.123982347011,0.260157701911,-0.894013516521,0.343054194032,1.0,0.0,0.0,0.0,1.0,0.0,0.0,0.0,1.0,0.837632119656,-0.414960354567,0.348701775074,1.21846967915e-07,0.0,0.0,0.0,1.21846967915e-07,0.0,0.0,0.0,1.21846967915e-07,1.14737805,0.3726527,16.75956485,9e-08,0.0,0.0,0.0,9e-08,0.0,0.0,0.0,9e-08
1538770125255518016,2649,1538770125255146976,base_link,-0.109350881346,0.132835734994,-0.894047087943,0.413614381759,1.0,0.0,0.0,0.0,1.0,0.0,0.0,0.0,1.0,0.899365901947,-0.218331977725,0.247904911637,1.21846967915e-07,0.0,0.0,0.0,1.21846967915e-07,0.0,0.0,0.0,1.21846967915e-07,0.7060788,0.65704555,15.60238015,9e-08,0.0,0.0,0.0,9e-08,0.0,0.0,0.0,9e-08
1538770125714539136,2650,1538770125713805984,base_link,-0.0377486231703,-0.0615141402344,-0.885408631473,0.459176009078,1.0,0.0,0.0,0.0,1.0,0.0,0.0,0.0,1.0,0.684572100639,0.00996579416096,0.0546027459204,1.21846967915e-07,0.0,0.0,0.0,1.21846967915e-07,0.0,0.0,0.0,1.21846967915e-07,0.20593965,0.6276256,10.75789505,9e-08,0.0,0.0,0.0,9e-08,0.0,0.0,0.0,9e-08
1538770126132950624,2651,1538770126131598528,base_link,0.0205149867417,-0.146368046837,-0.882162445736,0.447152042953,1.0,0.0,0.0,0.0,1.0,0.0,0.0,0.0,1.0,0.418847382069,0.120109550655,-0.258350551128,1.21846967915e-07,0.0,0.0,0.0,1.21846967915e-07,0.0,0.0,0.0,1.21846967915e-07,0.24516625,0.7453054,7.67860695,9e-08,0.0,0.0,0.0,9e-08,0.0,0.0,0.0,9e-08
1538770126563505664,2652,1538770126563230560,base_link,0.0750868636671,-0.200658690938,-0.888598272821,0.405575100562,1.0,0.0,0.0,0.0,1.0,0.0,0.0,0.0,1.0,-0.0289337262511,0.0320485383272,-0.162876471877,1.21846967915e-07,0.0,0.0,0.0,1.21846967915e-07,0.0,0.0,0.0,1.21846967915e-07,0.0980665,0.392266,6.61948875,9e-08,0.0,0.0,0.0,9e-08,0.0,0.0,0.0,9e-08
1538770126979342848,2653,1538770126978906400,base_link,0.0835613783614,-0.170538199911,-0.909391348578,0.37005620323,1.0,0.0,0.0,0.0,1.0,0.0,0.0,0.0,1.0,0.114781834185,0.0362255834043,-0.28455966711,1.21846967915e-07,0.0,0.0,0.0,1.21846967915e-07,0.0,0.0,0.0,1.21846967915e-07,0.2157463,0.7060788,7.71783355,9e-08,0.0,0.0,0.0,9e-08,0.0,0.0,0.0,9e-08
1538770127353219392,2654,1538770127352990048,base_link,0.100370743168,-0.189561911848,-0.921183770318,0.324672845793,1.0,0.0,0.0,0.0,1.0,0.0,0.0,0.0,1.0,0.0545028671622,-0.0429126396775,-0.226319044828,1.21846967915e-07,0.0,0.0,0.0,1.21846967915e-07,0.0,0.0,0.0,1.21846967915e-07,0.10787315,0.4511059,8.81617835,9e-08,0.0,0.0,0.0,9e-08,0.0,0.0,0.0,9e-08
1538770127657711872,2655,1538770127657401600,base_link,0.0908670001743,-0.18801573921,-0.930266410305,0.301658210476,1.0,0.0,0.0,0.0,1.0,0.0,0.0,0.0,1.0,-0.203000098467,-0.108367525041,-0.0877363532782,1.21846967915e-07,0.0,0.0,0.0,1.21846967915e-07,0.0,0.0,0.0,1.21846967915e-07,-0.00980665,0.3334261,8.93385815,9e-08,0.0,0.0,0.0,9e-08,0.0,0.0,0.0,9e-08
1538770127858042880,2656,1538770127857725856,base_link,0.0707667653306,-0.169692293087,-0.938366716104,0.292684978602,1.0,0.0,0.0,0.0,1.0,0.0,0.0,0.0,1.0,-0.212659478188,-0.145837202668,-0.107540883124,1.21846967915e-07,0.0,0.0,0.0,1.21846967915e-07,0.0,0.0,0.0,1.21846967915e-07,0.1372931,0.6276256,11.6503002,9e-08,0.0,0.0,0.0,9e-08,0.0,0.0,0.0,9e-08
1538770128264797088,2657,1538770128264488640,base_link,0.0391683536774,-0.123284567974,-0.954720554001,0.26790934873,1.0,0.0,0.0,0.0,1.0,0.0,0.0,0.0,1.0,-0.349105060101,-0.0663466453552,-0.165912657976,1.21846967915e-07,0.0,0.0,0.0,1.21846967915e-07,0.0,0.0,0.0,1.21846967915e-07,0.22555295,0.85317855,11.32668075,9e-08,0.0,0.0,0.0,9e-08,0.0,0.0,0.0,9e-08
1538770128648390592,2658,1538770128647875840,base_link,0.017891225846,-0.0779792240051,-0.96585188223,0.246433127346,1.0,0.0,0.0,0.0,1.0,0.0,0.0,0.0,1.0,-0.125311166048,-0.0505573526025,-0.106731459498,1.21846967915e-07,0.0,0.0,0.0,1.21846967915e-07,0.0,0.0,0.0,1.21846967915e-07,0.12748645,0.46091255,11.50320045,9e-08,0.0,0.0,0.0,9e-08,0.0,0.0,0.0,9e-08
1538770129011684128,2659,1538770129011351808,base_link,0.00179980860079,-0.0504621736878,-0.97171220862,0.230706985881,1.0,0.0,0.0,0.0,1.0,0.0,0.0,0.0,1.0,-0.237110033631,-0.0894224792719,-0.0226429328322,1.21846967915e-07,0.0,0.0,0.0,1.21846967915e-07,0.0,0.0,0.0,1.21846967915e-07,0.24516625,0.0784532,13.925443,9e-08,0.0,0.0,0.0,9e-08,0.0,0.0,0.0,9e-08
1538770129463723072,2660,1538770129456039584,base_link,-0.0247529446604,0.0309270222954,-0.966075490607,0.255203756772,1.0,0.0,0.0,0.0,1.0,0.0,0.0,0.0,1.0,-0.247071102262,0.0102946925908,0.166221946478,1.21846967915e-07,0.0,0.0,0.0,1.21846967915e-07,0.0,0.0,0.0,1.21846967915e-07,-0.0784532,0.2549729,10.60098865,9e-08,0.0,0.0,0.0,9e-08,0.0,0.0,0.0,9e-08
1538770129950074272,2661,1538770129948761376,base_link,-0.013596143056,0.062429494434,-0.963728983871,0.259121880136,1.0,0.0,0.0,0.0,1.0,0.0,0.0,0.0,1.0,0.0465182848275,0.0441451258957,-0.042427919805,1.21846967915e-07,0.0,0.0,0.0,1.21846967915e-07,0.0,0.0,0.0,1.21846967915e-07,-0.44129925,0.3726527,6.8842683,9e-08,0.0,0.0,0.0,9e-08,0.0,0.0,0.0,9e-08
1538770130304969120,2662,1538770130301203072,base_link,-0.00291725261133,0.049957994815,-0.964066039326,0.260906803686,1.0,0.0,0.0,0.0,1.0,0.0,0.0,0.0,1.0,0.135245233774,0.0170626752079,0.0811937451363,1.21846967915e-07,0.0,0.0,0.0,1.21846967915e-07,0.0,0.0,0.0,1.21846967915e-07,-0.67665885,0.20593965,8.7279185,9e-08,0.0,0.0,0.0,9e-08,0.0,0.0,0.0,9e-08
1538770130709982880,2663,1538770130709281120,base_link,0.00103354149188,0.0285802519371,-0.960082240982,0.27825202882,1.0,0.0,0.0,0.0,1.0,0.0,0.0,0.0,1.0,-0.0951454564929,-0.0289150923491,0.0927719771862,1.21846967915e-07,0.0,0.0,0.0,1.21846967915e-07,0.0,0.0,0.0,1.21846967915e-07,-0.40207265,0.2941995,8.93385815,9e-08,0.0,0.0,0.0,9e-08,0.0,0.0,0.0,9e-08
1538770131216641920,2664,1538770131216336864,base_link,0.0031128231381,0.0438747161299,-0.954578055127,0.2946965495,1.0,0.0,0.0,0.0,1.0,0.0,0.0,0.0,1.0,-0.308187365532,0.0305449236184,0.0131992474198,1.21846967915e-07,0.0,0.0,0.0,1.21846967915e-07,0.0,0.0,0.0,1.21846967915e-07,-0.392266,0.50013915,9.30651085,9e-08,0.0,0.0,0.0,9e-08,0.0,0.0,0.0,9e-08
1538770131508750528,2665,1538770131508327360,base_link,-0.000323866934895,0.0640620130879,-0.952719064414,0.297022453514,1.0,0.0,0.0,0.0,1.0,0.0,0.0,0.0,1.0,0.136527329683,0.00405129790306,0.105181731284,1.21846967915e-07,0.0,0.0,0.0,1.21846967915e-07,0.0,0.0,0.0,1.21846967915e-07,-0.2745862,-0.57859235,6.4527757,9e-08,0.0,0.0,0.0,9e-08,0.0,0.0,0.0,9e-08
1538770131814648992,2666,1538770131814087904,base_link,0.0177430205511,-0.00107873198613,-0.9444927588,0.328050987094,1.0,0.0,0.0,0.0,1.0,0.0,0.0,0.0,1.0,0.341336637735,-0.0353210754693,0.262144774199,1.21846967915e-07,0.0,0.0,0.0,1.21846967915e-07,0.0,0.0,0.0,1.21846967915e-07,-0.08825985,0.1569064,10.46369555,9e-08,0.0,0.0,0.0,9e-08,0.0,0.0,0.0,9e-08
1538770132068269888,2667,1538770132067898176,base_link,0.0198809205307,-0.0135879367196,-0.936172365526,0.350715581349,1.0,0.0,0.0,0.0,1.0,0.0,0.0,0.0,1.0,-0.0523146316409,0.00780338095501,0.103422574699,1.21846967915e-07,0.0,0.0,0.0,1.21846967915e-07,0.0,0.0,0.0,1.21846967915e-07,-0.0784532,0.9218251,9.7870367,9e-08,0.0,0.0,0.0,9e-08,0.0,0.0,0.0,9e-08
1538770132502881792,2668,1538770132502455520,base_link,0.0201197170113,-0.0200397064332,-0.942317494837,0.333513637018,1.0,0.0,0.0,0.0,1.0,0.0,0.0,0.0,1.0,0.123710669577,-0.0274669174105,-0.14939904213,1.21846967915e-07,0.0,0.0,0.0,1.21846967915e-07,0.0,0.0,0.0,1.21846967915e-07,-0.14709975,0.61781895,11.83662655,9e-08,0.0,0.0,0.0,9e-08,0.0,0.0,0.0,9e-08
1538770132788696832,2669,1538770132787855328,base_link,0.0193584658384,-0.0421750172558,-0.944834754533,0.324243433777,1.0,0.0,0.0,0.0,1.0,0.0,0.0,0.0,1.0,0.208749353886,-0.0867710113525,0.0216916389763,1.21846967915e-07,0.0,0.0,0.0,1.21846967915e-07,0.0,0.0,0.0,1.21846967915e-07,0.0,0.24516625,10.79712165,9e-08,0.0,0.0,0.0,9e-08,0.0,0.0,0.0,9e-08
1538770133161882368,2670,1538770133161279712,base_link,0.00824170373967,-0.0542592623686,-0.939645394288,0.337719617079,1.0,0.0,0.0,0.0,1.0,0.0,0.0,0.0,1.0,-0.00858724303544,-0.11198361218,0.182322651148,1.21846967915e-07,0.0,0.0,0.0,1.21846967915e-07,0.0,0.0,0.0,1.21846967915e-07,-0.00980665,0.0980665,11.64049355,9e-08,0.0,0.0,0.0,9e-08,0.0,0.0,0.0,9e-08
1538770133623473728,2671,1538770133623096128,base_link,0.00296408964105,-0.0513605377349,-0.938009504991,0.34277029901,1.0,0.0,0.0,0.0,1.0,0.0,0.0,0.0,1.0,0.0660705268383,0.0174133144319,-0.0800291523337,1.21846967915e-07,0.0,0.0,0.0,1.21846967915e-07,0.0,0.0,0.0,1.21846967915e-07,-0.04903325,0.4314926,9.9047165,9e-08,0.0,0.0,0.0,9e-08,0.0,0.0,0.0,9e-08
1538770134035776704,2672,1538770134035497728,base_link,-0.000432806374062,-0.0399292728159,-0.941506836413,0.33461969882,1.0,0.0,0.0,0.0,1.0,0.0,0.0,0.0,1.0,-0.0951613932848,0.029830198735,-0.0230267196894,1.21846967915e-07,0.0,0.0,0.0,1.21846967915e-07,0.0,0.0,0.0,1.21846967915e-07,0.0196133,0.3334261,8.89463155,9e-08,0.0,0.0,0.0,9e-08,0.0,0.0,0.0,9e-08
1538770134405792768,2673,1538770134405346080,base_link,0.00167771834785,-0.0311681549523,-0.94383378331,0.32894303589,1.0,0.0,0.0,0.0,1.0,0.0,0.0,0.0,1.0,0.0213973652571,0.0316649749875,-0.0251927673817,1.21846967915e-07,0.0,0.0,0.0,1.21846967915e-07,0.0,0.0,0.0,1.21846967915e-07,0.06864655,0.196133,9.14960445,9e-08,0.0,0.0,0.0,9e-08,0.0,0.0,0.0,9e-08
1538770134851186688,2674,1538770134850632128,base_link,0.00351404489943,-0.0219309181517,-0.943490099085,0.330655590073,1.0,0.0,0.0,0.0,1.0,0.0,0.0,0.0,1.0,-0.0794754251838,0.0166977867484,-0.00460767652839,1.21846967915e-07,0.0,0.0,0.0,1.21846967915e-07,0.0,0.0,0.0,1.21846967915e-07,-0.0196133,0.42168595,9.62032365,9e-08,0.0,0.0,0.0,9e-08,0.0,0.0,0.0,9e-08
1538770135150385216,2675,1538770135150080064,base_link,0.00426271695874,-0.0188215374325,-0.943132430863,0.331856590754,1.0,0.0,0.0,0.0,1.0,0.0,0.0,0.0,1.0,0.0905378982425,0.00303118769079,0.0261968076229,1.21846967915e-07,0.0,0.0,0.0,1.21846967915e-07,0.0,0.0,0.0,1.21846967915e-07,0.0196133,0.38245935,9.01231135,9e-08,0.0,0.0,0.0,9e-08,0.0,0.0,0.0,9e-08
1538770135530257440,2676,1538770135526332224,base_link,0.0116992791174,-0.0279888431467,-0.945198919724,0.325082687449,1.0,0.0,0.0,0.0,1.0,0.0,0.0,0.0,1.0,0.29150223732,0.00577283417806,-0.0926567018032,1.21846967915e-07,0.0,0.0,0.0,1.21846967915e-07,0.0,0.0,0.0,1.21846967915e-07,0.06864655,0.2549729,9.85568325,9e-08,0.0,0.0,0.0,9e-08,0.0,0.0,0.0,9e-08
1538770135881404960,2677,1538770135880937568,base_link,0.0215437893908,-0.0734823506242,-0.939887836614,0.332786814448,1.0,0.0,0.0,0.0,1.0,0.0,0.0,0.0,1.0,0.204325869679,-0.0214292928576,0.147799432278,1.21846967915e-07,0.0,0.0,0.0,1.21846967915e-07,0.0,0.0,0.0,1.21846967915e-07,0.22555295,0.4118793,12.77806495,9e-08,0.0,0.0,0.0,9e-08,0.0,0.0,0.0,9e-08
1538770136321202080,2678,1538770136320729120,base_link,0.0265671553483,-0.0803738906173,-0.941947094561,0.324915212036,1.0,0.0,0.0,0.0,1.0,0.0,0.0,0.0,1.0,0.220004796982,0.0465747900307,-0.175933659077,1.21846967915e-07,0.0,0.0,0.0,1.21846967915e-07,0.0,0.0,0.0,1.21846967915e-07,0.0980665,0.8629852,9.2770909,9e-08,0.0,0.0,0.0,9e-08,0.0,0.0,0.0,9e-08
1538770136723642592,2679,1538770136722164288,base_link,0.0319516465567,-0.0695799475846,-0.953314509576,0.292111569452,1.0,0.0,0.0,0.0,1.0,0.0,0.0,0.0,1.0,-0.263975024223,0.00121617969126,-0.0301196053624,1.21846967915e-07,0.0,0.0,0.0,1.21846967915e-07,0.0,0.0,0.0,1.21846967915e-07,0.08825985,0.00980665,8.22777935,9e-08,0.0,0.0,0.0,9e-08,0.0,0.0,0.0,9e-08
1538770137212699808,2680,1538770137210220320,base_link,0.0153529909116,-0.0153368531112,-0.952437467807,0.303960419336,1.0,0.0,0.0,0.0,1.0,0.0,0.0,0.0,1.0,-0.345385581255,0.00373376067728,-0.00791497621685,1.21846967915e-07,0.0,0.0,0.0,1.21846967915e-07,0.0,0.0,0.0,1.21846967915e-07,0.06864655,0.93163175,10.6696352,9e-08,0.0,0.0,0.0,9e-08,0.0,0.0,0.0,9e-08
1538770137558422016,2681,1538770137557292000,base_link,0.00705901430482,0.0143831218223,-0.955522562735,0.294482475249,1.0,0.0,0.0,0.0,1.0,0.0,0.0,0.0,1.0,0.0110083268955,-0.00861456990242,-0.0421257168055,1.21846967915e-07,0.0,0.0,0.0,1.21846967915e-07,0.0,0.0,0.0,1.21846967915e-07,0.0784532,0.4511059,10.89518815,9e-08,0.0,0.0,0.0,9e-08,0.0,0.0,0.0,9e-08
1538770137991384864,2682,1538770137987189152,base_link,0.00159081548422,0.0250047752693,-0.949399688701,0.313069419801,1.0,0.0,0.0,0.0,1.0,0.0,0.0,0.0,1.0,-0.0799818783998,-0.0316473320127,0.139624997973,1.21846967915e-07,0.0,0.0,0.0,1.21846967915e-07,0.0,0.0,0.0,1.21846967915e-07,0.0392266,0.2157463,9.75761675,9e-08,0.0,0.0,0.0,9e-08,0.0,0.0,0.0,9e-08
1538770138248548768,2683,1538770138248160224,base_link,-0.000484099259881,0.0265829003918,-0.943485807727,0.33034473762,1.0,0.0,0.0,0.0,1.0,0.0,0.0,0.0,1.0,-0.013682467863,-0.0185083970428,0.125951394439,1.21846967915e-07,0.0,0.0,0.0,1.21846967915e-07,0.0,0.0,0.0,1.21846967915e-07,0.08825985,0.32361945,9.7674234,9e-08,0.0,0.0,0.0,9e-08,0.0,0.0,0.0,9e-08
1538770138680888384,2684,1538770138680523552,base_link,-0.001432634962,0.0247192367487,-0.937892053431,0.346042487279,1.0,0.0,0.0,0.0,1.0,0.0,0.0,0.0,1.0,0.10037022084,-0.0148971611634,0.0431867465377,1.21846967915e-07,0.0,0.0,0.0,1.21846967915e-07,0.0,0.0,0.0,1.21846967915e-07,0.1569064,0.51975245,9.79684335,9e-08,0.0,0.0,0.0,9e-08,0.0,0.0,0.0,9e-08
1538770139060629920,2685,1538770139060213568,base_link,0.00438469353383,0.000296136839994,-0.936827263367,0.349764728606,1.0,0.0,0.0,0.0,1.0,0.0,0.0,0.0,1.0,0.139786183834,0.00663638394326,0.02369967103,1.21846967915e-07,0.0,0.0,0.0,1.21846967915e-07,0.0,0.0,0.0,1.21846967915e-07,0.2549729,0.42168595,9.71839015,9e-08,0.0,0.0,0.0,9e-08,0.0,0.0,0.0,9e-08
1538770139316516704,2686,1538770139316217152,base_link,0.00515854155311,-0.00881579700661,-0.936482077588,0.350566669164,1.0,0.0,0.0,0.0,1.0,0.0,0.0,0.0,1.0,0.0820550173521,-0.0226042661816,-0.00225170515478,1.21846967915e-07,0.0,0.0,0.0,1.21846967915e-07,0.0,0.0,0.0,1.21846967915e-07,0.30400615,0.4314926,10.36562905,9e-08,0.0,0.0,0.0,9e-08,0.0,0.0,0.0,9e-08
1538770139638510592,2687,1538770139637979968,base_link,0.00592409830618,-0.0197240199117,-0.936016508803,0.351353046587,1.0,0.0,0.0,0.0,1.0,0.0,0.0,0.0,1.0,0.0700903311372,-0.0315470062196,0.0154657354578,1.21846967915e-07,0.0,0.0,0.0,1.21846967915e-07,0.0,0.0,0.0,1.21846967915e-07,0.30400615,0.4314926,10.2577559,9e-08,0.0,0.0,0.0,9e-08,0.0,0.0,0.0,9e-08
1538770140016652064,2688,1538770140015684768,base_link,0.00255340345559,-0.032899989843,-0.935104851846,0.352831385866,1.0,0.0,0.0,0.0,1.0,0.0,0.0,0.0,1.0,0.065397799015,-0.0438053496182,0.00748147675768,1.21846967915e-07,0.0,0.0,0.0,1.21846967915e-07,0.0,0.0,0.0,1.21846967915e-07,0.44129925,0.6472389,10.93441475,9e-08,0.0,0.0,0.0,9e-08,0.0,0.0,0.0,9e-08
1538770140367955232,2689,1538770140366007040,base_link,-0.000136179517822,-0.0413210335335,-0.937297760162,0.34607147013,1.0,0.0,0.0,0.0,1.0,0.0,0.0,0.0,1.0,-0.00732088461518,-0.0477916114032,-0.0784308314323,1.21846967915e-07,0.0,0.0,0.0,1.21846967915e-07,0.0,0.0,0.0,1.21846967915e-07,0.42168595,0.6864655,11.58165365,9e-08,0.0,0.0,0.0,9e-08,0.0,0.0,0.0,9e-08
1538770140788845152,2690,1538770140788475360,base_link,-0.00585355169332,-0.0456601278854,-0.940783656953,0.335867532615,1.0,0.0,0.0,0.0,1.0,0.0,0.0,0.0,1.0,0.108293116093,0.0152437631041,-0.0487574264407,1.21846967915e-07,0.0,0.0,0.0,1.21846967915e-07,0.0,0.0,0.0,1.21846967915e-07,0.4118793,0.4707192,9.3751574,9e-08,0.0,0.0,0.0,9e-08,0.0,0.0,0.0,9e-08
1538770141284928704,2691,1538770141284534016,base_link,0.00542497190174,-0.0642244041695,-0.941170861534,0.331727606611,1.0,0.0,0.0,0.0,1.0,0.0,0.0,0.0,1.0,-0.0821143239737,0.0192937515676,0.0280998274684,1.21846967915e-07,0.0,0.0,0.0,1.21846967915e-07,0.0,0.0,0.0,1.21846967915e-07,0.4903325,0.4707192,10.58137535,9e-08,0.0,0.0,0.0,9e-08,0.0,0.0,0.0,9e-08
1538770141630262880,2692,1538770141625681856,base_link,0.00609010042688,-0.0583355412409,-0.942489022122,0.329050632097,1.0,0.0,0.0,0.0,1.0,0.0,0.0,0.0,1.0,0.0463746264577,-0.0175158418715,-0.0598617754877,1.21846967915e-07,0.0,0.0,0.0,1.21846967915e-07,0.0,0.0,0.0,1.21846967915e-07,0.5491724,0.71588545,10.11065615,9e-08,0.0,0.0,0.0,9e-08,0.0,0.0,0.0,9e-08
1538770141860809824,2693,1538770141860276800,base_link,-0.00177061101923,-0.0471399273216,-0.945391939754,0.32250391073,1.0,0.0,0.0,0.0,1.0,0.0,0.0,0.0,1.0,-0.213760823011,-0.041958052665,-0.0575050599873,1.21846967915e-07,0.0,0.0,0.0,1.21846967915e-07,0.0,0.0,0.0,1.21846967915e-07,0.6668522,0.9218251,11.76798,9e-08,0.0,0.0,0.0,9e-08,0.0,0.0,0.0,9e-08
1538770142283779872,2694,1538770142282572864,base_link,-0.0102185174791,-0.0337189284188,-0.95115525749,0.306695764426,1.0,0.0,0.0,0.0,1.0,0.0,0.0,0.0,1.0,0.00180154107511,-0.00199940614402,-0.0960448011756,1.21846967915e-07,0.0,0.0,0.0,1.21846967915e-07,0.0,0.0,0.0,1.21846967915e-07,0.5295591,0.9022118,12.22889255,9e-08,0.0,0.0,0.0,9e-08,0.0,0.0,0.0,9e-08
1538770142585106016,2695,1538770142584808416,base_link,-0.0128530785685,-0.026366331515,-0.955839765894,0.292420855735,1.0,0.0,0.0,0.0,1.0,0.0,0.0,0.0,1.0,-0.105845198035,0.00275169219822,-0.0820622742176,1.21846967915e-07,0.0,0.0,0.0,1.21846967915e-07,0.0,0.0,0.0,1.21846967915e-07,0.2353596,0.42168595,9.89490985,9e-08,0.0,0.0,0.0,9e-08,0.0,0.0,0.0,9e-08
1538770143041691104,2696,1538770143041239360,base_link,-0.00940067974455,-0.0468102260602,-0.957599916863,0.284117632645,1.0,0.0,0.0,0.0,1.0,0.0,0.0,0.0,1.0,0.0127858556807,-0.0177975781262,0.00112027674913,1.21846967915e-07,0.0,0.0,0.0,1.21846967915e-07,0.0,0.0,0.0,1.21846967915e-07,0.20593965,0.2941995,9.46341725,9e-08,0.0,0.0,0.0,9e-08,0.0,0.0,0.0,9e-08
1538770143526239584,2697,1538770143524290784,base_link,-0.00287057202592,-0.0725467413905,-0.955945129121,0.284425104798,1.0,0.0,0.0,0.0,1.0,0.0,0.0,0.0,1.0,0.299217104912,-0.00118653569371,0.0169482268393,1.21846967915e-07,0.0,0.0,0.0,1.21846967915e-07,0.0,0.0,0.0,1.21846967915e-07,0.32361945,0.2549729,10.01258965,9e-08,0.0,0.0,0.0,9e-08,0.0,0.0,0.0,9e-08
1538770143817484000,2698,1538770143816901440,base_link,0.00905852942185,-0.10941437969,-0.952528418365,0.283964872419,1.0,0.0,0.0,0.0,1.0,0.0,0.0,0.0,1.0,0.28001973033,0.00629045534879,-0.0338470861316,1.21846967915e-07,0.0,0.0,0.0,1.21846967915e-07,0.0,0.0,0.0,1.21846967915e-07,0.28439285,0.4314926,9.85568325,9e-08,0.0,0.0,0.0,9e-08,0.0,0.0,0.0,9e-08
1538770144173592928,2699,1538770144172285056,base_link,0.0212619000055,-0.142703995103,-0.95122570583,0.272677754791,1.0,0.0,0.0,0.0,1.0,0.0,0.0,0.0,1.0,0.21938508749,0.0128439096734,-0.109443455935,1.21846967915e-07,0.0,0.0,0.0,1.21846967915e-07,0.0,0.0,0.0,1.21846967915e-07,0.2549729,0.6080123,9.1790244,9e-08,0.0,0.0,0.0,9e-08,0.0,0.0,0.0,9e-08
1538770144444567296,2700,1538770144443732416,base_link,0.0259912468647,-0.152229825061,-0.954686201585,0.254410675782,1.0,0.0,0.0,0.0,1.0,0.0,0.0,0.0,1.0,0.0700383931398,-0.00925128534436,-0.178927406669,1.21846967915e-07,0.0,0.0,0.0,1.21846967915e-07,0.0,0.0,0.0,1.21846967915e-07,0.4314926,0.81395195,9.9047165,9e-08,0.0,0.0,0.0,9e-08,0.0,0.0,0.0,9e-08
1538770144783432480,2701,1538770144783176608,base_link,0.033808215238,-0.177085387846,-0.957623528269,0.224621789014,1.0,0.0,0.0,0.0,1.0,0.0,0.0,0.0,1.0,0.18300126493,-0.0342206172645,-0.177928835154,1.21846967915e-07,0.0,0.0,0.0,1.21846967915e-07,0.0,0.0,0.0,1.21846967915e-07,0.50013915,1.16699135,9.3555441,9e-08,0.0,0.0,0.0,9e-08,0.0,0.0,0.0,9e-08
1538770145410768128,2702,1538770145410413568,base_link,0.0221552723688,-0.224082453409,-0.962102491262,0.153801801963,1.0,0.0,0.0,0.0,1.0,0.0,0.0,0.0,1.0,0.124152764678,-0.173596531153,-0.0539162904024,1.21846967915e-07,0.0,0.0,0.0,1.21846967915e-07,0.0,0.0,0.0,1.21846967915e-07,0.5099458,0.6472389,9.80665,9e-08,0.0,0.0,0.0,9e-08,0.0,0.0,0.0,9e-08
1538770145771859872,2703,1538770145771639264,base_link,-0.00176677105129,-0.220940069059,-0.968147958267,0.117779010468,1.0,0.0,0.0,0.0,1.0,0.0,0.0,0.0,1.0,-0.176179841161,-0.120472028852,-0.316636234522,1.21846967915e-07,0.0,0.0,0.0,1.21846967915e-07,0.0,0.0,0.0,1.21846967915e-07,1.06892485,1.57887065,13.9450563,9e-08,0.0,0.0,0.0,9e-08,0.0,0.0,0.0,9e-08
1538770146181202464,2704,1538770146175816064,base_link,-0.0164612847765,-0.209874826323,-0.976392171916,0.0483726162355,1.0,0.0,0.0,0.0,1.0,0.0,0.0,0.0,1.0,0.0698057189584,-0.149887233973,-0.32674485445,1.21846967915e-07,0.0,0.0,0.0,1.21846967915e-07,0.0,0.0,0.0,1.21846967915e-07,1.22583125,0.9022118,12.75845165,9e-08,0.0,0.0,0.0,9e-08,0.0,0.0,0.0,9e-08
1538770146544978688,2705,1538770146544670784,base_link,-0.0411326052522,-0.259982851039,-0.964735967981,-0.00124017545218,1.0,0.0,0.0,0.0,1.0,0.0,0.0,0.0,1.0,0.039079464972,-0.174237519503,-0.143180727959,1.21846967915e-07,0.0,0.0,0.0,1.21846967915e-07,0.0,0.0,0.0,1.21846967915e-07,1.10815145,0.87279185,12.2190859,9e-08,0.0,0.0,0.0,9e-08,0.0,0.0,0.0,9e-08
1538770146770803840,2706,1538770146770430208,base_link,-0.0507386023484,-0.25233882956,-0.966023406832,-0.023441134379,1.0,0.0,0.0,0.0,1.0,0.0,0.0,0.0,1.0,0.0386109650135,-0.13374350965,-0.193528011441,1.21846967915e-07,0.0,0.0,0.0,1.21846967915e-07,0.0,0.0,0.0,1.21846967915e-07,0.8629852,0.7453054,10.38524235,9e-08,0.0,0.0,0.0,9e-08,0.0,0.0,0.0,9e-08
1538770147063096032,2707,1538770147062813536,base_link,-0.0636692274395,-0.261343244565,-0.961651358827,-0.0535966609363,1.0,0.0,0.0,0.0,1.0,0.0,0.0,0.0,1.0,-0.0217791888863,-0.109430283308,-0.185118928552,1.21846967915e-07,0.0,0.0,0.0,1.21846967915e-07,0.0,0.0,0.0,1.21846967915e-07,0.9218251,0.79433865,11.6699135,9e-08,0.0,0.0,0.0,9e-08,0.0,0.0,0.0,9e-08
1538770147401189440,2708,1538770147400840224,base_link,-0.0703437668408,-0.250728468328,-0.96047929516,-0.0983184275998,1.0,0.0,0.0,0.0,1.0,0.0,0.0,0.0,1.0,-0.159428656101,-0.0916187763214,-0.267637073994,1.21846967915e-07,0.0,0.0,0.0,1.21846967915e-07,0.0,0.0,0.0,1.21846967915e-07,0.97085835,1.0591182,10.87557485,9e-08,0.0,0.0,0.0,9e-08,0.0,0.0,0.0,9e-08
1538770147798502432,2709,1538770147798234816,base_link,-0.0643422362162,-0.229149767991,-0.958680933545,-0.155824671105,1.0,0.0,0.0,0.0,1.0,0.0,0.0,0.0,1.0,0.0183394532651,-0.0338956825435,-0.312838613987,1.21846967915e-07,0.0,0.0,0.0,1.21846967915e-07,0.0,0.0,0.0,1.21846967915e-07,0.8825985,0.8237586,9.69877685,9e-08,0.0,0.0,0.0,9e-08,0.0,0.0,0.0,9e-08
1538770148356897280,2710,1538770148356448992,base_link,-0.0652415383554,-0.2511321547,-0.937620686597,-0.231394966701,1.0,0.0,0.0,0.0,1.0,0.0,0.0,0.0,1.0,0.0149321882054,-0.0669370740652,-0.328844845295,1.21846967915e-07,0.0,0.0,0.0,1.21846967915e-07,0.0,0.0,0.0,1.21846967915e-07,0.51975245,1.2356379,9.36535075,9e-08,0.0,0.0,0.0,9e-08,0.0,0.0,0.0,9e-08
1538770148685338816,2711,1538770148684858240,base_link,-0.0714387149986,-0.2593081501,-0.916789582893,-0.295216283409,1.0,0.0,0.0,0.0,1.0,0.0,0.0,0.0,1.0,0.151145473123,-0.169441580772,-0.395345985889,1.21846967915e-07,0.0,0.0,0.0,1.21846967915e-07,0.0,0.0,0.0,1.21846967915e-07,0.6668522,0.85317855,11.40513395,9e-08,0.0,0.0,0.0,9e-08,0.0,0.0,0.0,9e-08
1538770149062050368,2712,1538770149061758496,base_link,-0.110228112292,-0.289792073857,-0.884964705064,-0.347430263478,1.0,0.0,0.0,0.0,1.0,0.0,0.0,0.0,1.0,0.21170386672,-0.276845812798,-0.140069067478,1.21846967915e-07,0.0,0.0,0.0,1.21846967915e-07,0.0,0.0,0.0,1.21846967915e-07,0.5099458,0.22555295,10.52253545,9e-08,0.0,0.0,0.0,9e-08,0.0,0.0,0.0,9e-08
1538770149381644000,2713,1538770149381283648,base_link,-0.146514332315,-0.256441361114,-0.879972337735,-0.372048469366,1.0,0.0,0.0,0.0,1.0,0.0,0.0,0.0,1.0,-0.125560641289,-0.224915608764,-0.0623950883746,1.21846967915e-07,0.0,0.0,0.0,1.21846967915e-07,0.0,0.0,0.0,1.21846967915e-07,1.0787315,0.8433719,14.6511351,9e-08,0.0,0.0,0.0,9e-08,0.0,0.0,0.0,9e-08
1538770149664867488,2714,1538770149664436672,base_link,-0.150537739087,-0.242958568959,-0.867728233918,-0.406641408297,1.0,0.0,0.0,0.0,1.0,0.0,0.0,0.0,1.0,-0.119819991291,-0.0851075425744,-0.345589548349,1.21846967915e-07,0.0,0.0,0.0,1.21846967915e-07,0.0,0.0,0.0,1.21846967915e-07,0.7060788,1.3337044,11.81701325,9e-08,0.0,0.0,0.0,9e-08,0.0,0.0,0.0,9e-08
1538770150150847968,2715,1538770150150525184,base_link,-0.15862250567,-0.251214564046,-0.824551118124,-0.481503475694,1.0,0.0,0.0,0.0,1.0,0.0,0.0,0.0,1.0,-0.194764897227,-0.134758397937,-0.297543644905,1.21846967915e-07,0.0,0.0,0.0,1.21846967915e-07,0.0,0.0,0.0,1.21846967915e-07,0.4903325,0.61781895,10.46369555,9e-08,0.0,0.0,0.0,9e-08,0.0,0.0,0.0,9e-08
1538770150429860864,2716,1538770150429539872,base_link,-0.143126750386,-0.207184471887,-0.812456328972,-0.525836515893,1.0,0.0,0.0,0.0,1.0,0.0,0.0,0.0,1.0,-0.106058008969,-0.134316831827,-0.237483069301,1.21846967915e-07,0.0,0.0,0.0,1.21846967915e-07,0.0,0.0,0.0,1.21846967915e-07,0.5687857,0.63743225,11.7091401,9e-08,0.0,0.0,0.0,9e-08,0.0,0.0,0.0,9e-08
1538770150774968992,2717,1538770150774625568,base_link,-0.141482392836,-0.184469220406,-0.794147940915,-0.561500567391,1.0,0.0,0.0,0.0,1.0,0.0,0.0,0.0,1.0,-0.0881837457418,-0.101172201335,-0.225117102265,1.21846967915e-07,0.0,0.0,0.0,1.21846967915e-07,0.0,0.0,0.0,1.21846967915e-07,0.4314926,0.89240515,11.75817335,9e-08,0.0,0.0,0.0,9e-08,0.0,0.0,0.0,9e-08
1538770151070110592,2718,1538770151069671968,base_link,-0.141155252906,-0.177768274677,-0.771895132085,-0.593844710474,1.0,0.0,0.0,0.0,1.0,0.0,0.0,0.0,1.0,-0.0500858575106,-0.0673472955823,-0.257979512215,1.21846967915e-07,0.0,0.0,0.0,1.21846967915e-07,0.0,0.0,0.0,1.21846967915e-07,0.3334261,0.8041453,10.85596155,9e-08,0.0,0.0,0.0,9e-08,0.0,0.0,0.0,9e-08
1538770151408422976,2719,1538770151408133376,base_link,-0.129090290267,-0.158231685591,-0.751201095645,-0.627690484663,1.0,0.0,0.0,0.0,1.0,0.0,0.0,0.0,1.0,-0.179885581136,-0.0782418623567,-0.169074460864,1.21846967915e-07,0.0,0.0,0.0,1.21846967915e-07,0.0,0.0,0.0,1.21846967915e-07,0.26477955,0.59820565,9.71839015,9e-08,0.0,0.0,0.0,9e-08,0.0,0.0,0.0,9e-08
1538770151641039552,2720,1538770151640785952,base_link,-0.121152756662,-0.145316862405,-0.741515770252,-0.643707527936,1.0,0.0,0.0,0.0,1.0,0.0,0.0,0.0,1.0,-0.0876007378101,-0.0354846827686,-0.144704073668,1.21846967915e-07,0.0,0.0,0.0,1.21846967915e-07,0.0,0.0,0.0,1.21846967915e-07,0.2353596,0.61781895,9.2378643,9e-08,0.0,0.0,0.0,9e-08,0.0,0.0,0.0,9e-08
1538770152163179712,2721,1538770152162800064,base_link,-0.105974614619,-0.133799247255,-0.719693415368,-0.672984792077,1.0,0.0,0.0,0.0,1.0,0.0,0.0,0.0,1.0,-0.330948472023,0.0143808620051,-0.140411227942,1.21846967915e-07,0.0,0.0,0.0,1.21846967915e-07,0.0,0.0,0.0,1.21846967915e-07,0.06864655,0.77472535,8.5906254,9e-08,0.0,0.0,0.0,9e-08,0.0,0.0,0.0,9e-08
1538770152521224640,2722,1538770152521004480,base_link,-0.0590326336078,-0.102660901647,-0.701542653531,-0.702718857523,1.0,0.0,0.0,0.0,1.0,0.0,0.0,0.0,1.0,-0.165160268545,0.0481609925628,-0.249367028475,1.21846967915e-07,0.0,0.0,0.0,1.21846967915e-07,0.0,0.0,0.0,1.21846967915e-07,-0.02941995,0.6668522,7.01175475,9e-08,0.0,0.0,0.0,9e-08,0.0,0.0,0.0,9e-08
1538770152995284704,2723,1538770152994948480,base_link,-0.0192243364871,-0.05346196035,-0.684057309451,-0.727212376867,1.0,0.0,0.0,0.0,1.0,0.0,0.0,0.0,1.0,-0.312182307243,-0.0800348520279,-0.00709176715463,1.21846967915e-07,0.0,0.0,0.0,1.21846967915e-07,0.0,0.0,0.0,1.21846967915e-07,0.3726527,0.2549729,11.9248864,9e-08,0.0,0.0,0.0,9e-08,0.0,0.0,0.0,9e-08
1538770153445318624,2724,1538770153444925984,base_link,0.00367285217182,-0.0144501541472,-0.689499799103,-0.72413239828,1.0,0.0,0.0,0.0,1.0,0.0,0.0,0.0,1.0,-0.158719569445,-0.0268047563732,-0.0105375302956,1.21846967915e-07,0.0,0.0,0.0,1.21846967915e-07,0.0,0.0,0.0,1.21846967915e-07,0.00980665,0.3530394,9.5320638,9e-08,0.0,0.0,0.0,9e-08,0.0,0.0,0.0,9e-08
1538770153709838912,2725,1538770153709058240,base_link,0.0115744448791,0.000399861435201,-0.690322929649,-0.723408684726,1.0,0.0,0.0,0.0,1.0,0.0,0.0,0.0,1.0,-0.0219376739115,-0.0123927909881,0.0274390690029,1.21846967915e-07,0.0,0.0,0.0,1.21846967915e-07,0.0,0.0,0.0,1.21846967915e-07,0.1176798,0.4118793,9.14960445,9e-08,0.0,0.0,0.0,9e-08,0.0,0.0,0.0,9e-08
1538770154158870176,2726,1538770154156153216,base_link,0.00278672956241,0.00337495596322,-0.69577479725,-0.718246667463,1.0,0.0,0.0,0.0,1.0,0.0,0.0,0.0,1.0,-0.0866497978568,-0.0196869857609,0.0276670157909,1.21846967915e-07,0.0,0.0,0.0,1.21846967915e-07,0.0,0.0,0.0,1.21846967915e-07,0.30400615,0.8041453,10.9638347,9e-08,0.0,0.0,0.0,9e-08,0.0,0.0,0.0,9e-08
1538770154588877312,2727,1538770154585156992,base_link,-0.00555279951357,-0.00638742848063,-0.688255939238,-0.725418589008,1.0,0.0,0.0,0.0,1.0,0.0,0.0,0.0,1.0,-0.0906166136265,0.00604102481157,-0.00876091327518,1.21846967915e-07,0.0,0.0,0.0,1.21846967915e-07,0.0,0.0,0.0,1.21846967915e-07,0.3138128,0.196133,8.5513988,9e-08,0.0,0.0,0.0,9e-08,0.0,0.0,0.0,9e-08
1538770154974705376,2728,1538770154973344096,base_link,-0.00681871861993,-0.000639174456462,-0.693592334007,-0.720335179441,1.0,0.0,0.0,0.0,1.0,0.0,0.0,0.0,1.0,0.217216923833,-0.00889265537262,0.0351996049285,1.21846967915e-07,0.0,0.0,0.0,1.21846967915e-07,0.0,0.0,0.0,1.21846967915e-07,0.4511059,0.57859235,10.28717585,9e-08,0.0,0.0,0.0,9e-08,0.0,0.0,0.0,9e-08
1538770155419467520,2729,1538770155419169184,base_link,-0.054382760003,-0.0389636219952,-0.687112013534,-0.723464879889,1.0,0.0,0.0,0.0,1.0,0.0,0.0,0.0,1.0,0.363730102777,-0.00448649935424,-0.198924720287,1.21846967915e-07,0.0,0.0,0.0,1.21846967915e-07,0.0,0.0,0.0,1.21846967915e-07,0.44129925,1.176798,11.11093445,9e-08,0.0,0.0,0.0,9e-08,0.0,0.0,0.0,9e-08
1538770155851331648,2730,1538770155850421952,base_link,-0.135489261225,-0.0976970271347,-0.650433302686,-0.740968602397,1.0,0.0,0.0,0.0,1.0,0.0,0.0,0.0,1.0,0.27496856451,-0.067170329392,-0.207951560616,1.21846967915e-07,0.0,0.0,0.0,1.21846967915e-07,0.0,0.0,0.0,1.21846967915e-07,0.65704555,1.4121576,12.56231865,9e-08,0.0,0.0,0.0,9e-08,0.0,0.0,0.0,9e-08
1538770156210452544,2731,1538770156209867904,base_link,-0.192759953245,-0.141842678156,-0.601126685728,-0.762476860491,1.0,0.0,0.0,0.0,1.0,0.0,0.0,0.0,1.0,0.754810035229,-0.081559419632,-0.227289304137,1.21846967915e-07,0.0,0.0,0.0,1.21846967915e-07,0.0,0.0,0.0,1.21846967915e-07,0.4511059,0.34323275,11.11093445,9e-08,0.0,0.0,0.0,9e-08,0.0,0.0,0.0,9e-08
1538770156618879200,2732,1538770156618543840,base_link,-0.255688487593,-0.170663426834,-0.549256899631,-0.777054856662,1.0,0.0,0.0,0.0,1.0,0.0,0.0,0.0,1.0,0.0472194030881,-0.110861413181,-0.275424480438,1.21846967915e-07,0.0,0.0,0.0,1.21846967915e-07,0.0,0.0,0.0,1.21846967915e-07,0.67665885,0.93163175,10.9442214,9e-08,0.0,0.0,0.0,9e-08,0.0,0.0,0.0,9e-08
1538770157054730176,2733,1538770157054486976,base_link,-0.262328385771,-0.163406348453,-0.491501716319,-0.814191774805,1.0,0.0,0.0,0.0,1.0,0.0,0.0,0.0,1.0,0.0200076196343,-0.176375225186,-0.303073853254,1.21846967915e-07,0.0,0.0,0.0,1.21846967915e-07,0.0,0.0,0.0,1.21846967915e-07,0.588399,0.784532,9.97336305,9e-08,0.0,0.0,0.0,9e-08,0.0,0.0,0.0,9e-08
1538770157517078432,2734,1538770157516807808,base_link,-0.278748043313,-0.141377997049,-0.430871647927,-0.846558570515,1.0,0.0,0.0,0.0,1.0,0.0,0.0,0.0,1.0,-0.119061872363,-0.198409751058,-0.216310083866,1.21846967915e-07,0.0,0.0,0.0,1.21846967915e-07,0.0,0.0,0.0,1.21846967915e-07,0.67665885,0.65704555,11.30706745,9e-08,0.0,0.0,0.0,9e-08,0.0,0.0,0.0,9e-08
1538770157903511456,2735,1538770157903232288,base_link,-0.280977281353,-0.110469819018,-0.379401051764,-0.874587347479,1.0,0.0,0.0,0.0,1.0,0.0,0.0,0.0,1.0,0.0572625622153,-0.212436541915,-0.340684682131,1.21846967915e-07,0.0,0.0,0.0,1.21846967915e-07,0.0,0.0,0.0,1.21846967915e-07,0.9022118,1.01008495,12.48386545,9e-08,0.0,0.0,0.0,9e-08,0.0,0.0,0.0,9e-08
1538770158412421120,2736,1538770158411929344,base_link,-0.322981148322,-0.0914968025755,-0.292102881036,-0.895537503312,1.0,0.0,0.0,0.0,1.0,0.0,0.0,0.0,1.0,0.183048531413,-0.283679246902,-0.210438773036,1.21846967915e-07,0.0,0.0,0.0,1.21846967915e-07,0.0,0.0,0.0,1.21846967915e-07,0.9414384,0.8629852,13.15071765,9e-08,0.0,0.0,0.0,9e-08,0.0,0.0,0.0,9e-08
1538770158745816672,2737,1538770158745461728,base_link,-0.346490050481,-0.062225114498,-0.241112433964,-0.904398957447,1.0,0.0,0.0,0.0,1.0,0.0,0.0,0.0,1.0,-0.147625476122,-0.304788947105,-0.270219862461,1.21846967915e-07,0.0,0.0,0.0,1.21846967915e-07,0.0,0.0,0.0,1.21846967915e-07,0.97085835,1.1571847,14.42558215,9e-08,0.0,0.0,0.0,9e-08,0.0,0.0,0.0,9e-08
1538770159158550688,2738,1538770159158002496,base_link,-0.363210498538,-0.0393229803779,-0.152425143386,-0.918312807615,1.0,0.0,0.0,0.0,1.0,0.0,0.0,0.0,1.0,-0.0350958108902,-0.26695856452,-0.450597941875,1.21846967915e-07,0.0,0.0,0.0,1.21846967915e-07,0.0,0.0,0.0,1.21846967915e-07,1.1179581,1.176798,13.20955755,9e-08,0.0,0.0,0.0,9e-08,0.0,0.0,0.0,9e-08
1538770159504670496,2739,1538770159504356800,base_link,-0.384539645824,-0.0121919714086,-0.0754034610559,-0.919942897512,1.0,0.0,0.0,0.0,1.0,0.0,0.0,0.0,1.0,0.114337846637,-0.330000907183,-0.250385403633,1.21846967915e-07,0.0,0.0,0.0,1.21846967915e-07,0.0,0.0,0.0,1.21846967915e-07,1.14737805,0.6668522,12.944778,9e-08,0.0,0.0,0.0,9e-08,0.0,0.0,0.0,9e-08
1538770159945910080,2740,1538770159943017440,base_link,-0.388107844742,0.0290514359782,0.00628892991601,-0.921134498473,1.0,0.0,0.0,0.0,1.0,0.0,0.0,0.0,1.0,-0.0955716222525,-0.292061626911,-0.320983320475,1.21846967915e-07,0.0,0.0,0.0,1.21846967915e-07,0.0,0.0,0.0,1.21846967915e-07,1.4513842,1.3533177,12.38579895,9e-08,0.0,0.0,0.0,9e-08,0.0,0.0,0.0,9e-08
1538770160300281344,2741,1538770160299878400,base_link,-0.370707464241,0.0485899229754,0.0903421403727,-0.923067328538,1.0,0.0,0.0,0.0,1.0,0.0,0.0,0.0,1.0,-0.0960787981749,-0.305499255657,-0.41289293766,1.21846967915e-07,0.0,0.0,0.0,1.21846967915e-07,0.0,0.0,0.0,1.21846967915e-07,1.06892485,0.9022118,11.2776475,9e-08,0.0,0.0,0.0,9e-08,0.0,0.0,0.0,9e-08
1538770160748421568,2742,1538770160748077760,base_link,-0.354704979743,0.0990218171079,0.200637707001,-0.907812517875,1.0,0.0,0.0,0.0,1.0,0.0,0.0,0.0,1.0,-0.13857755065,-0.420928120613,-0.269084006548,1.21846967915e-07,0.0,0.0,0.0,1.21846967915e-07,0.0,0.0,0.0,1.21846967915e-07,1.04931155,0.6276256,13.9646696,9e-08,0.0,0.0,0.0,9e-08,0.0,0.0,0.0,9e-08
1538770161092317120,2743,1538770161092108288,base_link,-0.302679747158,0.136552418006,0.266377372953,-0.904865461257,1.0,0.0,0.0,0.0,1.0,0.0,0.0,0.0,1.0,-0.338873744011,-0.333338409662,-0.270810455084,1.21846967915e-07,0.0,0.0,0.0,1.21846967915e-07,0.0,0.0,0.0,1.21846967915e-07,1.0395049,0.89240515,13.30762405,9e-08,0.0,0.0,0.0,9e-08,0.0,0.0,0.0,9e-08
1538770161591606688,2744,1538770161590132800,base_link,-0.235643470708,0.17613457229,0.351805867296,-0.888640196532,1.0,0.0,0.0,0.0,1.0,0.0,0.0,0.0,1.0,-0.529644787312,-0.258677899837,-0.200332194567,1.21846967915e-07,0.0,0.0,0.0,1.21846967915e-07,0.0,0.0,0.0,1.21846967915e-07,1.06892485,1.16699135,14.70016835,9e-08,0.0,0.0,0.0,9e-08,0.0,0.0,0.0,9e-08
1538770162007014304,2745,1538770162006460480,base_link,-0.119596865799,0.147208595768,0.415068631575,-0.889800118064,1.0,0.0,0.0,0.0,1.0,0.0,0.0,0.0,1.0,-0.72841489315,-0.049693018198,-0.176718086004,1.21846967915e-07,0.0,0.0,0.0,1.21846967915e-07,0.0,0.0,0.0,1.21846967915e-07,0.5099458,1.0983448,12.5721253,9e-08,0.0,0.0,0.0,9e-08,0.0,0.0,0.0,9e-08
1538770162382970208,2746,1538770162382689664,base_link,-0.0190952750439,0.0874740380331,0.466981592353,-0.879722601474,1.0,0.0,0.0,0.0,1.0,0.0,0.0,0.0,1.0,-0.459973424673,0.0324011258781,-0.141829147935,1.21846967915e-07,0.0,0.0,0.0,1.21846967915e-07,0.0,0.0,0.0,1.21846967915e-07,-0.04903325,0.14709975,11.11093445,9e-08,0.0,0.0,0.0,9e-08,0.0,0.0,0.0,9e-08
1538770162653330880,2747,1538770162649043328,base_link,0.0211561717502,0.05934229732,0.475331886774,-0.877548007554,1.0,0.0,0.0,0.0,1.0,0.0,0.0,0.0,1.0,-0.367950081825,0.0578839406371,-0.00282116979361,1.21846967915e-07,0.0,0.0,0.0,1.21846967915e-07,0.0,0.0,0.0,1.21846967915e-07,-0.12748645,0.3726527,9.83606995,9e-08,0.0,0.0,0.0,9e-08,0.0,0.0,0.0,9e-08
1538770163180706752,2748,1538770163180467744,base_link,0.0646359827984,0.000838763626678,0.467622016924,-0.881561759318,1.0,0.0,0.0,0.0,1.0,0.0,0.0,0.0,1.0,-0.181255072355,0.129985779524,0.111943267286,1.21846967915e-07,0.0,0.0,0.0,1.21846967915e-07,0.0,0.0,0.0,1.21846967915e-07,-0.32361945,0.20593965,7.1588545,9e-08,0.0,0.0,0.0,9e-08,0.0,0.0,0.0,9e-08
1538770163551620736,2749,1538770163551143680,base_link,0.0724934566541,-0.0310610052631,0.449154790823,-0.889966227772,1.0,0.0,0.0,0.0,1.0,0.0,0.0,0.0,1.0,-0.0858260542154,0.0930705145001,0.135200619698,1.21846967915e-07,0.0,0.0,0.0,1.21846967915e-07,0.0,0.0,0.0,1.21846967915e-07,-0.4118793,0.0196133,7.79628675,9e-08,0.0,0.0,0.0,9e-08,0.0,0.0,0.0,9e-08
1538770163942924448,2750,1538770163942591776,base_link,0.0650889818526,-0.0579714837352,0.438659892302,-0.894416139389,1.0,0.0,0.0,0.0,1.0,0.0,0.0,0.0,1.0,0.124509349465,0.128949359059,0.007357257884,1.21846967915e-07,0.0,0.0,0.0,1.21846967915e-07,0.0,0.0,0.0,1.21846967915e-07,-0.42168595,0.20593965,6.0016698,9e-08,0.0,0.0,0.0,9e-08,0.0,0.0,0.0,9e-08
1538770164322051360,2751,1538770164321741984,base_link,0.0274915842067,-0.0533064950768,0.440334369523,-0.895828261106,1.0,0.0,0.0,0.0,1.0,0.0,0.0,0.0,1.0,0.118349008262,0.0594644397497,-0.00167335476726,1.21846967915e-07,0.0,0.0,0.0,1.21846967915e-07,0.0,0.0,0.0,1.21846967915e-07,-0.55897905,0.18632635,7.8845466,9e-08,0.0,0.0,0.0,9e-08,0.0,0.0,0.0,9e-08
1538770164798925440,2752,1538770164798658080,base_link,-0.00956413025922,-0.0469067607112,0.427962420958,-0.902527810906,1.0,0.0,0.0,0.0,1.0,0.0,0.0,0.0,1.0,0.0956220626831,0.0181490555406,0.15241356194,1.21846967915e-07,0.0,0.0,0.0,1.21846967915e-07,0.0,0.0,0.0,1.21846967915e-07,-0.3530394,0.2941995,9.46341725,9e-08,0.0,0.0,0.0,9e-08,0.0,0.0,0.0,9e-08
1538770165204823968,2753,1538770165204559616,base_link,-0.0246193198708,-0.0354195756203,0.39812470068,-0.916316574913,1.0,0.0,0.0,0.0,1.0,0.0,0.0,0.0,1.0,-0.130510091782,0.00617430871353,0.145428583026,1.21846967915e-07,0.0,0.0,0.0,1.21846967915e-07,0.0,0.0,0.0,1.21846967915e-07,0.2353596,1.18660465,13.9842829,9e-08,0.0,0.0,0.0,9e-08,0.0,0.0,0.0,9e-08
1538770165725281376,2754,1538770165724995968,base_link,-0.000305056103887,-0.0567186682821,0.398649944161,-0.915347541445,1.0,0.0,0.0,0.0,1.0,0.0,0.0,0.0,1.0,0.0219411887228,0.0306232552975,0.0667349919677,1.21846967915e-07,0.0,0.0,0.0,1.21846967915e-07,0.0,0.0,0.0,1.21846967915e-07,-0.55897905,-0.0784532,7.5903471,9e-08,0.0,0.0,0.0,9e-08,0.0,0.0,0.0,9e-08
1538770166113729632,2755,1538770166113297184,base_link,0.00450815072953,-0.0563453904566,0.38418897662,-0.921522492289,1.0,0.0,0.0,0.0,1.0,0.0,0.0,0.0,1.0,-0.124642759562,-0.0172488391399,0.0343432016671,1.21846967915e-07,0.0,0.0,0.0,1.21846967915e-07,0.0,0.0,0.0,1.21846967915e-07,-0.4707192,0.53936575,9.5909037,9e-08,0.0,0.0,0.0,9e-08,0.0,0.0,0.0,9e-08
1538770166335809696,2756,1538770166335486336,base_link,0.0164952930865,-0.0582067254496,0.383449463982,-0.92157820666,1.0,0.0,0.0,0.0,1.0,0.0,0.0,0.0,1.0,-0.0842069685459,-0.0208646506071,-0.03591420874,1.21846967915e-07,0.0,0.0,0.0,1.21846967915e-07,0.0,0.0,0.0,1.21846967915e-07,-0.38245935,0.4511059,9.89490985,9e-08,0.0,0.0,0.0,9e-08,0.0,0.0,0.0,9e-08
1538770166749941376,2757,1538770166747917056,base_link,0.00459246540416,-0.0438040349501,0.385787423414,-0.921535772349,1.0,0.0,0.0,0.0,1.0,0.0,0.0,0.0,1.0,0.171347275376,-0.0585547462106,0.0387851111591,1.21846967915e-07,0.0,0.0,0.0,1.21846967915e-07,0.0,0.0,0.0,1.21846967915e-07,-0.38245935,0.1176798,11.44436055,9e-08,0.0,0.0,0.0,9e-08,0.0,0.0,0.0,9e-08
1538770167048667392,2758,1538770167048361056,base_link,-0.00677845806105,-0.0294823655702,0.369716185491,-0.92865213337,1.0,0.0,0.0,0.0,1.0,0.0,0.0,0.0,1.0,0.111510902643,-0.0630393102765,0.164220184088,1.21846967915e-07,0.0,0.0,0.0,1.21846967915e-07,0.0,0.0,0.0,1.21846967915e-07,-0.34323275,0.1765197,11.05209455,9e-08,0.0,0.0,0.0,9e-08,0.0,0.0,0.0,9e-08
1538770167474485344,2759,1538770167473926368,base_link,-0.0127273613984,-0.0162211621082,0.34789096707,-0.937308254099,1.0,0.0,0.0,0.0,1.0,0.0,0.0,0.0,1.0,0.0832128971815,-0.0317401736975,0.00172276468948,1.21846967915e-07,0.0,0.0,0.0,1.21846967915e-07,0.0,0.0,0.0,1.21846967915e-07,-0.20593965,0.73549875,10.7088618,9e-08,0.0,0.0,0.0,9e-08,0.0,0.0,0.0,9e-08
1538770167867930048,2760,1538770167867572160,base_link,-0.0141762366899,-0.0108613664419,0.356818331409,-0.934003074622,1.0,0.0,0.0,0.0,1.0,0.0,0.0,0.0,1.0,0.0500209778547,-0.0290745422244,-0.059637863189,1.21846967915e-07,0.0,0.0,0.0,1.21846967915e-07,0.0,0.0,0.0,1.21846967915e-07,-0.14709975,0.34323275,9.77723005,9e-08,0.0,0.0,0.0,9e-08,0.0,0.0,0.0,9e-08
1538770168218538592,2761,1538770168218069760,base_link,-0.0222473369097,-0.000266705223245,0.352266147748,-0.935635370227,1.0,0.0,0.0,0.0,1.0,0.0,0.0,0.0,1.0,0.0144702326506,-0.0251911282539,0.0890172868967,1.21846967915e-07,0.0,0.0,0.0,1.21846967915e-07,0.0,0.0,0.0,1.21846967915e-07,-0.0392266,0.3334261,10.89518815,9e-08,0.0,0.0,0.0,9e-08,0.0,0.0,0.0,9e-08
1538770168666991904,2762,1538770168666247744,base_link,-0.0157807090455,-0.00333447439149,0.341208862667,-0.939849116901,1.0,0.0,0.0,0.0,1.0,0.0,0.0,0.0,1.0,0.0740266814828,0.00808202009648,-0.00947880744934,1.21846967915e-07,0.0,0.0,0.0,1.21846967915e-07,0.0,0.0,0.0,1.21846967915e-07,-0.02941995,0.5687857,10.01258965,9e-08,0.0,0.0,0.0,9e-08,0.0,0.0,0.0,9e-08
1538770169189798720,2763,1538770169189458016,base_link,-0.0282468482116,-0.00421498076781,0.342729240127,-0.9390000093,1.0,0.0,0.0,0.0,1.0,0.0,0.0,0.0,1.0,0.0243560224771,0.00479708239436,-0.002435894683,1.21846967915e-07,0.0,0.0,0.0,1.21846967915e-07,0.0,0.0,0.0,1.21846967915e-07,-0.00980665,0.44129925,9.3555441,9e-08,0.0,0.0,0.0,9e-08,0.0,0.0,0.0,9e-08
1538770169668998880,2764,1538770169668636640,base_link,-0.0388595205782,0.000485368330632,0.346115789434,-0.937386559741,1.0,0.0,0.0,0.0,1.0,0.0,0.0,0.0,1.0,0.0442736856639,-0.0225106887519,-0.012035519816,1.21846967915e-07,0.0,0.0,0.0,1.21846967915e-07,0.0,0.0,0.0,1.21846967915e-07,0.0980665,0.4314926,10.1596894,9e-08,0.0,0.0,0.0,9e-08,0.0,0.0,0.0,9e-08
1538770170034027904,2765,1538770170033784128,base_link,-0.0360248753716,0.00227559700179,0.344920287204,-0.937937644776,1.0,0.0,0.0,0.0,1.0,0.0,0.0,0.0,1.0,-0.0250077564269,-0.0189120862633,0.00268620066345,1.21846967915e-07,0.0,0.0,0.0,1.21846967915e-07,0.0,0.0,0.0,1.21846967915e-07,0.1765197,0.4903325,9.85568325,9e-08,0.0,0.0,0.0,9e-08,0.0,0.0,0.0,9e-08
1538770170358825888,2766,1538770170358409024,base_link,-0.0315407216393,0.00514014553143,0.343735734302,-0.938522512647,1.0,0.0,0.0,0.0,1.0,0.0,0.0,0.0,1.0,-0.00944934599102,-0.0276519581676,0.0164817906916,1.21846967915e-07,0.0,0.0,0.0,1.21846967915e-07,0.0,0.0,0.0,1.21846967915e-07,0.1765197,0.42168595,10.79712165,9e-08,0.0,0.0,0.0,9e-08,0.0,0.0,0.0,9e-08
1538770170670393888,2767,1538770170670046176,base_link,-0.032767812664,0.011709884026,0.341853758411,-0.939108703468,1.0,0.0,0.0,0.0,1.0,0.0,0.0,0.0,1.0,0.0532974079251,-0.0361319184303,-0.0418763309717,1.21846967915e-07,0.0,0.0,0.0,1.21846967915e-07,0.0,0.0,0.0,1.21846967915e-07,-0.28439285,0.69627215,10.983448,9e-08,0.0,0.0,0.0,9e-08,0.0,0.0,0.0,9e-08
1538770170980635040,2768,1538770170979667040,base_link,-0.0624774824696,0.0279390727117,0.35232533987,-0.933371751922,1.0,0.0,0.0,0.0,1.0,0.0,0.0,0.0,1.0,0.448976039886,-0.0253083407879,-0.0951055437326,1.21846967915e-07,0.0,0.0,0.0,1.21846967915e-07,0.0,0.0,0.0,1.21846967915e-07,-0.79433865,0.3334261,10.3165958,9e-08,0.0,0.0,0.0,9e-08,0.0,0.0,0.0,9e-08
1538770171521401312,2769,1538770171521148576,base_link,-0.222632132176,0.0678378456684,0.357980292689,-0.904258298532,1.0,0.0,0.0,0.0,1.0,0.0,0.0,0.0,1.0,0.458199769258,0.0936522260308,-0.130380704999,1.21846967915e-07,0.0,0.0,0.0,1.21846967915e-07,0.0,0.0,0.0,1.21846967915e-07,-1.0787315,0.4314926,8.28661925,9e-08,0.0,0.0,0.0,9e-08,0.0,0.0,0.0,9e-08
1538770171804578624,2770,1538770171804244128,base_link,-0.259965880446,0.0686395477648,0.382795798522,-0.883840330671,1.0,0.0,0.0,0.0,1.0,0.0,0.0,0.0,1.0,0.222395822406,-0.00824817549437,-0.329110503197,1.21846967915e-07,0.0,0.0,0.0,1.21846967915e-07,0.0,0.0,0.0,1.21846967915e-07,-0.97085835,0.83356525,7.56092715,9e-08,0.0,0.0,0.0,9e-08,0.0,0.0,0.0,9e-08
1538770172231047968,2771,1538770172226954400,base_link,-0.306091332071,0.0864879401781,0.451549602199,-0.833625149206,1.0,0.0,0.0,0.0,1.0,0.0,0.0,0.0,1.0,0.20751337707,-0.201483622193,-0.365531742573,1.21846967915e-07,0.0,0.0,0.0,1.21846967915e-07,0.0,0.0,0.0,1.21846967915e-07,-1.0002783,0.5491724,9.03192465,9e-08,0.0,0.0,0.0,9e-08,0.0,0.0,0.0,9e-08
1538770172606187584,2772,1538770172605921280,base_link,-0.316413763719,0.12602904047,0.514102157499,-0.787208982889,1.0,0.0,0.0,0.0,1.0,0.0,0.0,0.0,1.0,0.122594967484,-0.304818212986,-0.317913681269,1.21846967915e-07,0.0,0.0,0.0,1.21846967915e-07,0.0,0.0,0.0,1.21846967915e-07,-0.9414384,0.5687857,11.42474725,9e-08,0.0,0.0,0.0,9e-08,0.0,0.0,0.0,9e-08
1538770172995284672,2773,1538770172994989696,base_link,-0.303150650999,0.17492538131,0.583077565587,-0.733158472829,1.0,0.0,0.0,0.0,1.0,0.0,0.0,0.0,1.0,0.0614668801427,-0.378284156322,-0.336608290672,1.21846967915e-07,0.0,0.0,0.0,1.21846967915e-07,0.0,0.0,0.0,1.21846967915e-07,-0.48052585,0.588399,13.6704701,9e-08,0.0,0.0,0.0,9e-08,0.0,0.0,0.0,9e-08
1538770173325036032,2774,1538770173324602464,base_link,-0.268408833609,0.197982672153,0.640029753236,-0.692186011518,1.0,0.0,0.0,0.0,1.0,0.0,0.0,0.0,1.0,-0.159839019179,-0.384553521872,-0.330389410257,1.21846967915e-07,0.0,0.0,0.0,1.21846967915e-07,0.0,0.0,0.0,1.21846967915e-07,-0.4314926,0.48052585,14.36674225,9e-08,0.0,0.0,0.0,9e-08,0.0,0.0,0.0,9e-08
1538770173804914112,2775,1538770173804653504,base_link,0.218886260876,-0.219493676651,-0.718042952063,0.623157804815,1.0,0.0,0.0,0.0,1.0,0.0,0.0,0.0,1.0,-0.055207438767,-0.275581628084,-0.333612769842,1.21846967915e-07,0.0,0.0,0.0,1.21846967915e-07,0.0,0.0,0.0,1.21846967915e-07,-0.5491724,0.46091255,12.99381125,9e-08,0.0,0.0,0.0,9e-08,0.0,0.0,0.0,9e-08
1538770174202768096,2776,1538770174202457920,base_link,0.184292616873,-0.222299438883,-0.771392892358,0.567073360738,1.0,0.0,0.0,0.0,1.0,0.0,0.0,0.0,1.0,-0.143741264939,-0.224522262812,-0.313563227654,1.21846967915e-07,0.0,0.0,0.0,1.21846967915e-07,0.0,0.0,0.0,1.21846967915e-07,-0.5491724,0.6864655,11.85623985,9e-08,0.0,0.0,0.0,9e-08,0.0,0.0,0.0,9e-08
1538770174625392864,2777,1538770174624779648,base_link,0.14157917626,-0.207344081565,-0.824338699327,0.507375085593,1.0,0.0,0.0,0.0,1.0,0.0,0.0,0.0,1.0,-0.179712578654,-0.175462961197,-0.326802492142,1.21846967915e-07,0.0,0.0,0.0,1.21846967915e-07,0.0,0.0,0.0,1.21846967915e-07,-0.2941995,0.51975245,12.6898051,9e-08,0.0,0.0,0.0,9e-08,0.0,0.0,0.0,9e-08
1538770175147959456,2778,1538770175147138688,base_link,0.111625357036,-0.189706519128,-0.873356762324,0.434510278324,1.0,0.0,0.0,0.0,1.0,0.0,0.0,0.0,1.0,-0.138102799654,-0.0991360023618,-0.265831500292,1.21846967915e-07,0.0,0.0,0.0,1.21846967915e-07,0.0,0.0,0.0,1.21846967915e-07,-0.5491724,0.42168595,9.91452315,9e-08,0.0,0.0,0.0,9e-08,0.0,0.0,0.0,9e-08
1538770175523287264,2779,1538770175522498400,base_link,0.0899082374556,-0.168592778216,-0.89950104391,0.392926018451,1.0,0.0,0.0,0.0,1.0,0.0,0.0,0.0,1.0,-0.1896892488,-0.0838541761041,-0.22486102581,1.21846967915e-07,0.0,0.0,0.0,1.21846967915e-07,0.0,0.0,0.0,1.21846967915e-07,-0.4314926,0.392266,10.38524235,9e-08,0.0,0.0,0.0,9e-08,0.0,0.0,0.0,9e-08
1538770175843202496,2780,1538770175842681472,base_link,0.0730804386176,-0.149018477893,-0.917987886824,0.360209636715,1.0,0.0,0.0,0.0,1.0,0.0,0.0,0.0,1.0,-0.168150186539,-0.0558105669916,-0.174982726574,1.21846967915e-07,0.0,0.0,0.0,1.21846967915e-07,0.0,0.0,0.0,1.21846967915e-07,-0.4118793,0.3334261,10.2577559,9e-08,0.0,0.0,0.0,9e-08,0.0,0.0,0.0,9e-08
1538770176348245696,2781,1538770176347972480,base_link,0.0549951333603,-0.112063467678,-0.93765846872,0.324366938138,1.0,0.0,0.0,0.0,1.0,0.0,0.0,0.0,1.0,-0.101312957704,-0.00118765421212,-0.163240134716,1.21846967915e-07,0.0,0.0,0.0,1.21846967915e-07,0.0,0.0,0.0,1.21846967915e-07,-0.4118793,0.36284605,9.42419065,9e-08,0.0,0.0,0.0,9e-08,0.0,0.0,0.0,9e-08
1538770176768917792,2782,1538770176768661536,base_link,0.0570389193808,-0.105936478101,-0.947699015331,0.295619012623,1.0,0.0,0.0,0.0,1.0,0.0,0.0,0.0,1.0,0.0319307334721,-0.00457771494985,-0.124758355319,1.21846967915e-07,0.0,0.0,0.0,1.21846967915e-07,0.0,0.0,0.0,1.21846967915e-07,-0.44129925,0.26477955,9.2770909,9e-08,0.0,0.0,0.0,9e-08,0.0,0.0,0.0,9e-08
1538770177163183136,2783,1538770177162964192,base_link,0.0512341447477,-0.0968879847103,-0.95604691494,0.271959697868,1.0,0.0,0.0,0.0,1.0,0.0,0.0,0.0,1.0,-0.057547301054,-0.0699255764484,-0.120023347437,1.21846967915e-07,0.0,0.0,0.0,1.21846967915e-07,0.0,0.0,0.0,1.21846967915e-07,-0.4707192,0.38245935,9.1790244,9e-08,0.0,0.0,0.0,9e-08,0.0,0.0,0.0,9e-08
1538770177624517344,2784,1538770177624293440,base_link,0.0370325121982,-0.086910099934,-0.964428262291,0.246887331519,1.0,0.0,0.0,0.0,1.0,0.0,0.0,0.0,1.0,-0.114534810185,-0.0448889508843,-0.102895334363,1.21846967915e-07,0.0,0.0,0.0,1.21846967915e-07,0.0,0.0,0.0,1.21846967915e-07,-0.196133,0.38245935,10.6304086,9e-08,0.0,0.0,0.0,9e-08,0.0,0.0,0.0,9e-08
1538770178076138016,2785,1538770178074196864,base_link,0.0304868891761,-0.0895791093251,-0.970936928257,0.219835425051,1.0,0.0,0.0,0.0,1.0,0.0,0.0,0.0,1.0,0.127507507801,-0.0253321584314,-0.127118438482,1.21846967915e-07,0.0,0.0,0.0,1.21846967915e-07,0.0,0.0,0.0,1.21846967915e-07,-0.20593965,0.46091255,10.09104285,9e-08,0.0,0.0,0.0,9e-08,0.0,0.0,0.0,9e-08
1538770178497485920,2786,1538770178496204320,base_link,0.028949906188,-0.112698212001,-0.974783163609,0.190417435883,1.0,0.0,0.0,0.0,1.0,0.0,0.0,0.0,1.0,0.125075757504,-0.0235473886132,-0.135703861713,1.21846967915e-07,0.0,0.0,0.0,1.21846967915e-07,0.0,0.0,0.0,1.21846967915e-07,-0.2353596,0.32361945,9.40457735,9e-08,0.0,0.0,0.0,9e-08,0.0,0.0,0.0,9e-08
1538770178960747264,2787,1538770178960028256,base_link,0.0189418153469,-0.121493400932,-0.979121002588,0.16187224423,1.0,0.0,0.0,0.0,1.0,0.0,0.0,0.0,1.0,-0.0520270168781,-0.0301459655166,-0.148756250739,1.21846967915e-07,0.0,0.0,0.0,1.21846967915e-07,0.0,0.0,0.0,1.21846967915e-07,0.2745862,0.57859235,11.6503002,9e-08,0.0,0.0,0.0,9e-08,0.0,0.0,0.0,9e-08
1538770179315314976,2788,1538770179315115040,base_link,0.0180507794837,-0.126859103704,-0.983485929094,0.127813788148,1.0,0.0,0.0,0.0,1.0,0.0,0.0,0.0,1.0,0.0654741898179,-0.0539578124881,-0.205887585878,1.21846967915e-07,0.0,0.0,0.0,1.21846967915e-07,0.0,0.0,0.0,1.21846967915e-07,0.2157463,0.4118793,10.77750835,9e-08,0.0,0.0,0.0,9e-08,0.0,0.0,0.0,9e-08
1538770179756400128,2789,1538770179756207040,base_link,0.0204559073642,-0.172723298298,-0.981791452042,0.0763790728999,1.0,0.0,0.0,0.0,1.0,0.0,0.0,0.0,1.0,0.276115000248,-0.0121297491714,-0.230579912663,1.21846967915e-07,0.0,0.0,0.0,1.21846967915e-07,0.0,0.0,0.0,1.21846967915e-07,0.14709975,0.3334261,10.03220295,9e-08,0.0,0.0,0.0,9e-08,0.0,0.0,0.0,9e-08
1538770180221424096,2790,1538770180220989888,base_link,0.0167898197743,-0.188325150723,-0.981702453888,0.0226281149988,1.0,0.0,0.0,0.0,1.0,0.0,0.0,0.0,1.0,-0.306919485331,-0.0251415688545,-0.265646666288,1.21846967915e-07,0.0,0.0,0.0,1.21846967915e-07,0.0,0.0,0.0,1.21846967915e-07,0.2353596,0.9022118,10.13026945,9e-08,0.0,0.0,0.0,9e-08,0.0,0.0,0.0,9e-08
1538770180564838624,2791,1538770180564644800,base_link,0.026312050912,-0.172196662885,-0.982882984543,-0.0599751945721,1.0,0.0,0.0,0.0,1.0,0.0,0.0,0.0,1.0,0.0502384454012,-0.088687568903,-0.516377270222,1.21846967915e-07,0.0,0.0,0.0,1.21846967915e-07,0.0,0.0,0.0,1.21846967915e-07,0.392266,0.34323275,12.2583125,9e-08,0.0,0.0,0.0,9e-08,0.0,0.0,0.0,9e-08
1538770181136681152,2792,1538770181135156160,base_link,-0.00911248477527,-0.233539508126,-0.959830704491,-0.155245867839,1.0,0.0,0.0,0.0,1.0,0.0,0.0,0.0,1.0,0.214788198471,-0.242329493165,-0.184908941388,1.21846967915e-07,0.0,0.0,0.0,1.21846967915e-07,0.0,0.0,0.0,1.21846967915e-07,-0.0980665,0.3530394,9.9047165,9e-08,0.0,0.0,0.0,9e-08,0.0,0.0,0.0,9e-08
1538770181417197440,2793,1538770181416953568,base_link,-0.0445336966505,-0.252939511976,-0.948029247667,-0.187826778474,1.0,0.0,0.0,0.0,1.0,0.0,0.0,0.0,1.0,0.218764737248,-0.269947469234,-0.21977737546,1.21846967915e-07,0.0,0.0,0.0,1.21846967915e-07,0.0,0.0,0.0,1.21846967915e-07,0.0,0.8041453,9.77723005,9e-08,0.0,0.0,0.0,9e-08,0.0,0.0,0.0,9e-08
1538770181797026848,2794,1538770181796685408,base_link,-0.0809348263044,-0.251967106679,-0.930121978579,-0.254627641874,1.0,0.0,0.0,0.0,1.0,0.0,0.0,0.0,1.0,-0.0548291951418,-0.239738479257,-0.410934627056,1.21846967915e-07,0.0,0.0,0.0,1.21846967915e-07,0.0,0.0,0.0,1.21846967915e-07,0.14709975,0.71588545,10.4538889,9e-08,0.0,0.0,0.0,9e-08,0.0,0.0,0.0,9e-08
1538770182120149312,2795,1538770182119890912,base_link,-0.105371705949,-0.250869570025,-0.902211800905,-0.33462684998,1.0,0.0,0.0,0.0,1.0,0.0,0.0,0.0,1.0,0.0658141896129,-0.295739233494,-0.42615249753,1.21846967915e-07,0.0,0.0,0.0,1.21846967915e-07,0.0,0.0,0.0,1.21846967915e-07,0.3138128,0.48052585,11.26784085,9e-08,0.0,0.0,0.0,9e-08,0.0,0.0,0.0,9e-08
1538770182447217568,2796,1538770182446993024,base_link,-0.122259671648,-0.220851689316,-0.879080364304,-0.404344923437,1.0,0.0,0.0,0.0,1.0,0.0,0.0,0.0,1.0,-0.305440247059,-0.23885345459,-0.400379657745,1.21846967915e-07,0.0,0.0,0.0,1.21846967915e-07,0.0,0.0,0.0,1.21846967915e-07,0.53936575,0.73549875,12.22889255,9e-08,0.0,0.0,0.0,9e-08,0.0,0.0,0.0,9e-08
1538770182863314240,2797,1538770182861767392,base_link,-0.121968485505,-0.169375154001,-0.846719461726,-0.489389312189,1.0,0.0,0.0,0.0,1.0,0.0,0.0,0.0,1.0,-0.0409420654178,-0.193966820836,-0.404848307371,1.21846967915e-07,0.0,0.0,0.0,1.21846967915e-07,0.0,0.0,0.0,1.21846967915e-07,0.5295591,0.4511059,12.32695905,9e-08,0.0,0.0,0.0,9e-08,0.0,0.0,0.0,9e-08
1538770183275622912,2798,1538770183275364960,base_link,-0.145051164795,-0.150037794808,-0.805067843202,-0.555260828407,1.0,0.0,0.0,0.0,1.0,0.0,0.0,0.0,1.0,0.07880089432,-0.241056755185,-0.280653327703,1.21846967915e-07,0.0,0.0,0.0,1.21846967915e-07,0.0,0.0,0.0,1.21846967915e-07,0.44129925,0.2745862,11.99353295,9e-08,0.0,0.0,0.0,9e-08,0.0,0.0,0.0,9e-08
1538770183753952768,2799,1538770183753772544,base_link,-0.170536992261,-0.124344365313,-0.766716754934,-0.606301105713,1.0,0.0,0.0,0.0,1.0,0.0,0.0,0.0,1.0,-0.111656956375,-0.19688308239,-0.259804159403,1.21846967915e-07,0.0,0.0,0.0,1.21846967915e-07,0.0,0.0,0.0,1.21846967915e-07,0.4511059,0.40207265,11.4737805,9e-08,0.0,0.0,0.0,9e-08,0.0,0.0,0.0,9e-08
1538770184144516512,2800,1538770184144326976,base_link,-0.184721169654,-0.109413486666,-0.729467799781,-0.64944861806,1.0,0.0,0.0,0.0,1.0,0.0,0.0,0.0,1.0,0.0249547064304,-0.147819578648,-0.281285107136,1.21846967915e-07,0.0,0.0,0.0,1.21846967915e-07,0.0,0.0,0.0,1.21846967915e-07,0.2745862,0.6472389,9.6497436,9e-08,0.0,0.0,0.0,9e-08,0.0,0.0,0.0,9e-08
1538770184555096384,2801,1538770184554790080,base_link,-0.219845519521,-0.12116266162,-0.678608379724,-0.690274020911,1.0,0.0,0.0,0.0,1.0,0.0,0.0,0.0,1.0,0.185517370701,-0.164395600557,-0.365194767714,1.21846967915e-07,0.0,0.0,0.0,1.21846967915e-07,0.0,0.0,0.0,1.21846967915e-07,0.44129925,0.79433865,9.5320638,9e-08,0.0,0.0,0.0,9e-08,0.0,0.0,0.0,9e-08
1538770185120216512,2802,1538770185119649568,base_link,-0.185898378518,-0.101960426397,-0.593514479697,-0.776393216549,1.0,0.0,0.0,0.0,1.0,0.0,0.0,0.0,1.0,-0.355003863573,0.0643833428621,-0.412245541811,1.21846967915e-07,0.0,0.0,0.0,1.21846967915e-07,0.0,0.0,0.0,1.21846967915e-07,0.46091255,0.1569064,8.93385815,9e-08,0.0,0.0,0.0,9e-08,0.0,0.0,0.0,9e-08
1538770185558141536,2803,1538770185557921504,base_link,-0.123076055248,-0.0664102428151,-0.547081709169,-0.825314223654,1.0,0.0,0.0,0.0,1.0,0.0,0.0,0.0,1.0,-0.352430939674,-0.108454123139,-0.179334774613,1.21846967915e-07,0.0,0.0,0.0,1.21846967915e-07,0.0,0.0,0.0,1.21846967915e-07,0.5099458,0.04903325,9.2967042,9e-08,0.0,0.0,0.0,9e-08,0.0,0.0,0.0,9e-08
1538770186014773696,2804,1538770186014461088,base_link,-0.0783174171255,-0.0650868004148,-0.536078789567,-0.838003354386,1.0,0.0,0.0,0.0,1.0,0.0,0.0,0.0,1.0,0.408053904772,0.371957570314,-0.0486410744488,1.21846967915e-07,0.0,0.0,0.0,1.21846967915e-07,0.0,0.0,0.0,1.21846967915e-07,0.3726527,-0.24516625,7.46286065,9e-08,0.0,0.0,0.0,9e-08,0.0,0.0,0.0,9e-08
1538770186352384032,2805,1538770186351926688,base_link,-0.116852834435,-0.104888084128,-0.522254717457,-0.838208753823,1.0,0.0,0.0,0.0,1.0,0.0,0.0,0.0,1.0,0.230271220207,-0.211515054107,-0.0871368795633,1.21846967915e-07,0.0,0.0,0.0,1.21846967915e-07,0.0,0.0,0.0,1.21846967915e-07,0.7256921,0.5491724,9.2770909,9e-08,0.0,0.0,0.0,9e-08,0.0,0.0,0.0,9e-08
