%time,field.header.seq,field.header.stamp,field.header.frame_id,field.orientation.x,field.orientation.y,field.orientation.z,field.orientation.w,field.orientation_covariance0,field.orientation_covariance1,field.orientation_covariance2,field.orientation_covariance3,field.orientation_covariance4,field.orientation_covariance5,field.orientation_covariance6,field.orientation_covariance7,field.orientation_covariance8,field.angular_velocity.x,field.angular_velocity.y,field.angular_velocity.z,field.angular_velocity_covariance0,field.angular_velocity_covariance1,field.angular_velocity_covariance2,field.angular_velocity_covariance3,field.angular_velocity_covariance4,field.angular_velocity_covariance5,field.angular_velocity_covariance6,field.angular_velocity_covariance7,field.angular_velocity_covariance8,field.linear_acceleration.x,field.linear_acceleration.y,field.linear_acceleration.z,field.linear_acceleration_covariance0,field.linear_acceleration_covariance1,field.linear_acceleration_covariance2,field.linear_acceleration_covariance3,field.linear_acceleration_covariance4,field.linear_acceleration_covariance5,field.linear_acceleration_covariance6,field.linear_acceleration_covariance7,field.linear_acceleration_covariance8
1532987297487715295,387,1532987297487338273,base_link,-0.00781510031962,-0.041028397706,-0.995230992061,-0.0881525225336,1.0,0.0,0.0,0.0,1.0,0.0,0.0,0.0,1.0,0.917455434799,-0.0618546940386,-0.117202959955,1.21846967915e-07,0.0,0.0,0.0,1.21846967915e-07,0.0,0.0,0.0,1.21846967915e-07,0.34323275,0.14709975,11.571847,9e-08,0.0,0.0,0.0,9e-08,0.0,0.0,0.0,9e-08
1532987297744136669,388,1532987297743473343,base_link,-0.0233617125842,-0.153758175318,-0.983209177497,-0.0954587198446,1.0,0.0,0.0,0.0,1.0,0.0,0.0,0.0,1.0,0.785145580769,-0.0188052523881,-0.0341069884598,1.21846967915e-07,0.0,0.0,0.0,1.21846967915e-07,0.0,0.0,0.0,1.21846967915e-07,0.24516625,0.28439285,11.85623985,9e-08,0.0,0.0,0.0,9e-08,0.0,0.0,0.0,9e-08
1532987298092248839,389,1532987298091829320,base_link,-0.0279439947217,-0.252019902849,-0.961520902845,-0.105748073833,1.0,0.0,0.0,0.0,1.0,0.0,0.0,0.0,1.0,0.387099683285,0.0381433293223,-0.12626761198,1.21846967915e-07,0.0,0.0,0.0,1.21846967915e-07,0.0,0.0,0.0,1.21846967915e-07,-0.392266,0.7256921,9.14960445,9e-08,0.0,0.0,0.0,9e-08,0.0,0.0,0.0,9e-08
1532987298493386610,390,1532987298493170323,base_link,-0.013433851942,-0.303379601077,-0.939028397087,-0.161263817193,1.0,0.0,0.0,0.0,1.0,0.0,0.0,0.0,1.0,0.151196867228,-0.0559099912643,-0.358189076185,1.21846967915e-07,0.0,0.0,0.0,1.21846967915e-07,0.0,0.0,0.0,1.21846967915e-07,-0.8825985,0.67665885,6.40374245,9e-08,0.0,0.0,0.0,9e-08,0.0,0.0,0.0,9e-08
1532987298847152331,391,1532987298846889036,base_link,-0.0145341682478,-0.308049562538,-0.92415741948,-0.225449082928,1.0,0.0,0.0,0.0,1.0,0.0,0.0,0.0,1.0,-0.10843424499,-0.125500068069,-0.301984548569,1.21846967915e-07,0.0,0.0,0.0,1.21846967915e-07,0.0,0.0,0.0,1.21846967915e-07,-1.18660465,0.73549875,9.7085835,9e-08,0.0,0.0,0.0,9e-08,0.0,0.0,0.0,9e-08
1532987299259136437,392,1532987299258799190,base_link,-0.00787333458148,-0.284763349882,-0.915191348693,-0.285083567476,1.0,0.0,0.0,0.0,1.0,0.0,0.0,0.0,1.0,-0.0132019845769,-0.079803019762,-0.271489292383,1.21846967915e-07,0.0,0.0,0.0,1.21846967915e-07,0.0,0.0,0.0,1.21846967915e-07,-1.1571847,0.59820565,8.91424485,9e-08,0.0,0.0,0.0,9e-08,0.0,0.0,0.0,9e-08
1532987299682130942,393,1532987299681573120,base_link,0.00306703654709,-0.255377308411,-0.904877831495,-0.340542411022,1.0,0.0,0.0,0.0,1.0,0.0,0.0,0.0,1.0,-0.298278450966,-0.0584362819791,-0.240766391158,1.21846967915e-07,0.0,0.0,0.0,1.21846967915e-07,0.0,0.0,0.0,1.21846967915e-07,-1.18660465,0.36284605,8.20816605,9e-08,0.0,0.0,0.0,9e-08,0.0,0.0,0.0,9e-08
1532987300141591962,394,1532987300141165851,base_link,0.0485115868463,-0.151314215021,-0.908850778534,-0.385669413659,1.0,0.0,0.0,0.0,1.0,0.0,0.0,0.0,1.0,-0.35279738903,-0.0487482175231,-0.155975371599,1.21846967915e-07,0.0,0.0,0.0,1.21846967915e-07,0.0,0.0,0.0,1.21846967915e-07,-1.4317709,-0.20593965,8.95347145,9e-08,0.0,0.0,0.0,9e-08,0.0,0.0,0.0,9e-08
1532987300502330014,395,1532987300500266052,base_link,0.0646755857217,-0.0992680029308,-0.910945266237,-0.395147635861,1.0,0.0,0.0,0.0,1.0,0.0,0.0,0.0,1.0,-0.317932248116,-0.0325761511922,-0.0572916567326,1.21846967915e-07,0.0,0.0,0.0,1.21846967915e-07,0.0,0.0,0.0,1.21846967915e-07,-1.2552512,0.4511059,10.40485565,9e-08,0.0,0.0,0.0,9e-08,0.0,0.0,0.0,9e-08
1532987300893276392,396,1532987300892454666,base_link,0.0707701414306,-0.0647465479284,-0.912592057982,-0.397460950687,1.0,0.0,0.0,0.0,1.0,0.0,0.0,0.0,1.0,-0.145916700363,-0.0518621318042,0.028935931623,1.21846967915e-07,0.0,0.0,0.0,1.21846967915e-07,0.0,0.0,0.0,1.21846967915e-07,-1.42196425,-0.00980665,11.4345539,9e-08,0.0,0.0,0.0,9e-08,0.0,0.0,0.0,9e-08
1532987301286404362,397,1532987301286127787,base_link,0.0811808104828,-0.0275168627536,-0.916850219125,-0.389920727794,1.0,0.0,0.0,0.0,1.0,0.0,0.0,0.0,1.0,-0.196927055717,-0.00552348233759,0.0357691384852,1.21846967915e-07,0.0,0.0,0.0,1.21846967915e-07,0.0,0.0,0.0,1.21846967915e-07,-1.5102241,-0.20593965,9.77723005,9e-08,0.0,0.0,0.0,9e-08,0.0,0.0,0.0,9e-08
1532987301784191507,398,1532987301782786903,base_link,0.0935317574919,-0.00353260518692,-0.91848788859,-0.384212609832,1.0,0.0,0.0,0.0,1.0,0.0,0.0,0.0,1.0,-0.0309682786465,0.0145732294768,0.0141942258924,1.21846967915e-07,0.0,0.0,0.0,1.21846967915e-07,0.0,0.0,0.0,1.21846967915e-07,-1.3533177,0.20593965,9.0613446,9e-08,0.0,0.0,0.0,9e-08,0.0,0.0,0.0,9e-08
1532987302162501506,399,1532987302160681640,base_link,0.0922795977327,-0.00354413544865,-0.921439907247,-0.377386290528,1.0,0.0,0.0,0.0,1.0,0.0,0.0,0.0,1.0,0.0111524816602,-0.0211896933615,0.0631557106972,1.21846967915e-07,0.0,0.0,0.0,1.21846967915e-07,0.0,0.0,0.0,1.21846967915e-07,-1.48080415,-0.0784532,10.0812362,9e-08,0.0,0.0,0.0,9e-08,0.0,0.0,0.0,9e-08
1532987302427542278,400,1532987302427060455,base_link,0.0861963482855,-0.000130934716476,-0.925038089528,-0.369965816422,1.0,0.0,0.0,0.0,1.0,0.0,0.0,0.0,1.0,0.0326993428171,-0.0432793237269,0.0498428121209,1.21846967915e-07,0.0,0.0,0.0,1.21846967915e-07,0.0,0.0,0.0,1.21846967915e-07,-1.4121576,-0.28439285,10.5519554,9e-08,0.0,0.0,0.0,9e-08,0.0,0.0,0.0,9e-08
1532987302754068593,401,1532987302752586069,base_link,0.0722932648432,-0.00966281004173,-0.927246421461,-0.367279713363,1.0,0.0,0.0,0.0,1.0,0.0,0.0,0.0,1.0,0.107164204121,-0.0706477984786,0.0200051981956,1.21846967915e-07,0.0,0.0,0.0,1.21846967915e-07,0.0,0.0,0.0,1.21846967915e-07,-1.28467115,0.1765197,10.0616229,9e-08,0.0,0.0,0.0,9e-08,0.0,0.0,0.0,9e-08
1532987303149611373,402,1532987303146333430,base_link,0.0553797840054,-0.0236006175753,-0.929035825836,-0.365059617989,1.0,0.0,0.0,0.0,1.0,0.0,0.0,0.0,1.0,0.144749447703,-0.0849687308073,0.0429508723319,1.21846967915e-07,0.0,0.0,0.0,1.21846967915e-07,0.0,0.0,0.0,1.21846967915e-07,-1.24544455,0.22555295,11.5522337,9e-08,0.0,0.0,0.0,9e-08,0.0,0.0,0.0,9e-08
1532987303582810775,403,1532987303582479608,base_link,0.0253874255737,-0.0648856300315,-0.93054086539,-0.359498305249,1.0,0.0,0.0,0.0,1.0,0.0,0.0,0.0,1.0,0.233338475227,-0.0777654126287,0.0172335747629,1.21846967915e-07,0.0,0.0,0.0,1.21846967915e-07,0.0,0.0,0.0,1.21846967915e-07,-1.28467115,0.42168595,10.48330885,9e-08,0.0,0.0,0.0,9e-08,0.0,0.0,0.0,9e-08
1532987304020401172,404,1532987304015321796,base_link,-0.000767753267531,-0.104289884937,-0.925847065506,-0.36322202817,1.0,0.0,0.0,0.0,1.0,0.0,0.0,0.0,1.0,0.183112621307,-0.0270769074559,-0.0122872134671,1.21846967915e-07,0.0,0.0,0.0,1.21846967915e-07,0.0,0.0,0.0,1.21846967915e-07,-1.22583125,0.1372931,10.28717585,9e-08,0.0,0.0,0.0,9e-08,0.0,0.0,0.0,9e-08
1532987304477034552,405,1532987304476811001,base_link,-0.0130908497223,-0.115505541224,-0.91690356557,-0.381804859902,1.0,0.0,0.0,0.0,1.0,0.0,0.0,0.0,1.0,0.188626363873,-0.066503085196,-0.165231391788,1.21846967915e-07,0.0,0.0,0.0,1.21846967915e-07,0.0,0.0,0.0,1.21846967915e-07,-1.28467115,0.1372931,8.87501825,9e-08,0.0,0.0,0.0,9e-08,0.0,0.0,0.0,9e-08
1532987304767949198,406,1532987304767577359,base_link,-0.0400770345241,-0.167799208027,-0.898747891784,-0.403099843839,1.0,0.0,0.0,0.0,1.0,0.0,0.0,0.0,1.0,0.627412259579,-0.0599268972874,-0.167066141963,1.21846967915e-07,0.0,0.0,0.0,1.21846967915e-07,0.0,0.0,0.0,1.21846967915e-07,-1.176798,0.28439285,9.0809579,9e-08,0.0,0.0,0.0,9e-08,0.0,0.0,0.0,9e-08
1532987305276843765,407,1532987305276653270,base_link,-0.114100131513,-0.279431188319,-0.847487839855,-0.43665058374,1.0,0.0,0.0,0.0,1.0,0.0,0.0,0.0,1.0,0.293015390635,-0.141500920057,-0.208410337567,1.21846967915e-07,0.0,0.0,0.0,1.21846967915e-07,0.0,0.0,0.0,1.21846967915e-07,-0.99047165,0.67665885,10.62060195,9e-08,0.0,0.0,0.0,9e-08,0.0,0.0,0.0,9e-08
1532987305620312301,408,1532987305619829871,base_link,-0.141829865882,-0.305012789124,-0.810790911307,-0.479029838065,1.0,0.0,0.0,0.0,1.0,0.0,0.0,0.0,1.0,0.208197712898,-0.200432658195,-0.338104754686,1.21846967915e-07,0.0,0.0,0.0,1.21846967915e-07,0.0,0.0,0.0,1.21846967915e-07,-0.73549875,0.53936575,9.9635564,9e-08,0.0,0.0,0.0,9e-08,0.0,0.0,0.0,9e-08
1532987306005784071,409,1532987306005593448,base_link,-0.170428507422,-0.315108410388,-0.761892698332,-0.539611276558,1.0,0.0,0.0,0.0,1.0,0.0,0.0,0.0,1.0,0.106840752065,-0.297493696213,-0.391966223717,1.21846967915e-07,0.0,0.0,0.0,1.21846967915e-07,0.0,0.0,0.0,1.21846967915e-07,-0.26477955,0.79433865,10.83634825,9e-08,0.0,0.0,0.0,9e-08,0.0,0.0,0.0,9e-08
1532987306412582433,410,1532987306412359170,base_link,-0.214691530149,-0.305646708278,-0.693641786089,-0.615912907149,1.0,0.0,0.0,0.0,1.0,0.0,0.0,0.0,1.0,0.0841522663832,-0.434320688248,-0.345550090075,1.21846967915e-07,0.0,0.0,0.0,1.21846967915e-07,0.0,0.0,0.0,1.21846967915e-07,-0.0980665,0.32361945,12.2583125,9e-08,0.0,0.0,0.0,9e-08,0.0,0.0,0.0,9e-08
1532987306833499952,411,1532987306833235281,base_link,-0.257812229046,-0.264458666476,-0.631094049502,-0.682139845606,1.0,0.0,0.0,0.0,1.0,0.0,0.0,0.0,1.0,-0.0776876211166,-0.419565558434,-0.322204113007,1.21846967915e-07,0.0,0.0,0.0,1.21846967915e-07,0.0,0.0,0.0,1.21846967915e-07,0.24516625,0.91201845,14.2196425,9e-08,0.0,0.0,0.0,9e-08,0.0,0.0,0.0,9e-08
1532987307261432971,412,1532987307261209771,base_link,-0.292297715185,-0.221563930187,-0.552328520077,-0.748601814349,1.0,0.0,0.0,0.0,1.0,0.0,0.0,0.0,1.0,-0.000767893623561,-0.447399973869,-0.362405955791,1.21846967915e-07,0.0,0.0,0.0,1.21846967915e-07,0.0,0.0,0.0,1.21846967915e-07,0.36284605,0.6864655,14.22944915,9e-08,0.0,0.0,0.0,9e-08,0.0,0.0,0.0,9e-08
1532987307676965290,413,1532987307676288364,base_link,-0.335023518805,-0.172368977292,-0.470772375874,-0.797760332198,1.0,0.0,0.0,0.0,1.0,0.0,0.0,0.0,1.0,-0.0216441564262,-0.466091424227,-0.313230991364,1.21846967915e-07,0.0,0.0,0.0,1.21846967915e-07,0.0,0.0,0.0,1.21846967915e-07,0.57859235,0.784532,14.709975,9e-08,0.0,0.0,0.0,9e-08,0.0,0.0,0.0,9e-08
1532987308063302594,414,1532987308063064802,base_link,-0.365072559027,-0.118676709183,-0.386718940173,-0.838502430917,1.0,0.0,0.0,0.0,1.0,0.0,0.0,0.0,1.0,-0.101734414697,-0.469816982746,-0.33883818984,1.21846967915e-07,0.0,0.0,0.0,1.21846967915e-07,0.0,0.0,0.0,1.21846967915e-07,0.8041453,0.9022118,14.26867575,9e-08,0.0,0.0,0.0,9e-08,0.0,0.0,0.0,9e-08
1532987308488698659,415,1532987308488053125,base_link,-0.378081229476,-0.0624080175223,-0.292270912478,-0.876206332428,1.0,0.0,0.0,0.0,1.0,0.0,0.0,0.0,1.0,-0.0399000123143,-0.417672723532,-0.376846343279,1.21846967915e-07,0.0,0.0,0.0,1.21846967915e-07,0.0,0.0,0.0,1.21846967915e-07,1.3925443,0.8629852,14.46480875,9e-08,0.0,0.0,0.0,9e-08,0.0,0.0,0.0,9e-08
1532987308877553971,416,1532987308877298708,base_link,-0.387570463261,-0.0165986988209,-0.194759220917,-0.900878718293,1.0,0.0,0.0,0.0,1.0,0.0,0.0,0.0,1.0,0.0423281565309,-0.386405408382,-0.39355224371,1.21846967915e-07,0.0,0.0,0.0,1.21846967915e-07,0.0,0.0,0.0,1.21846967915e-07,1.1179581,1.02969825,12.160246,9e-08,0.0,0.0,0.0,9e-08,0.0,0.0,0.0,9e-08
1532987309266574370,417,1532987309266119076,base_link,-0.410442708046,0.0305399157553,-0.105300266277,-0.905271202944,1.0,0.0,0.0,0.0,1.0,0.0,0.0,0.0,1.0,0.000645210966468,-0.460551857948,-0.295163959265,1.21846967915e-07,0.0,0.0,0.0,1.21846967915e-07,0.0,0.0,0.0,1.21846967915e-07,1.9221034,0.83356525,14.3765489,9e-08,0.0,0.0,0.0,9e-08,0.0,0.0,0.0,9e-08
1532987309580602899,418,1532987309580249172,base_link,-0.417428491346,0.079582264037,-0.031664097765,-0.904664303914,1.0,0.0,0.0,0.0,1.0,0.0,0.0,0.0,1.0,0.0556469000876,-0.44068646431,-0.312956064939,1.21846967915e-07,0.0,0.0,0.0,1.21846967915e-07,0.0,0.0,0.0,1.21846967915e-07,2.06920315,1.22583125,14.05292945,9e-08,0.0,0.0,0.0,9e-08,0.0,0.0,0.0,9e-08
1532987309886480572,419,1532987309886172349,base_link,-0.398884610642,0.114575959976,0.0450802794286,-0.908697521288,1.0,0.0,0.0,0.0,1.0,0.0,0.0,0.0,1.0,-0.384832918644,-0.361189454794,-0.392280936241,1.21846967915e-07,0.0,0.0,0.0,1.21846967915e-07,0.0,0.0,0.0,1.21846967915e-07,2.34378935,1.10815145,12.6701918,9e-08,0.0,0.0,0.0,9e-08,0.0,0.0,0.0,9e-08
1532987310381061870,420,1532987310380821871,base_link,-0.317903906243,0.145494256446,0.184508924308,-0.918545036777,1.0,0.0,0.0,0.0,1.0,0.0,0.0,0.0,1.0,-0.607944905758,-0.320067554712,-0.362519919872,1.21846967915e-07,0.0,0.0,0.0,1.21846967915e-07,0.0,0.0,0.0,1.21846967915e-07,2.36340265,1.02969825,12.6505785,9e-08,0.0,0.0,0.0,9e-08,0.0,0.0,0.0,9e-08
1532987310803313465,421,1532987310802851835,base_link,-0.192429410038,0.149877873681,0.286659339208,-0.926463150038,1.0,0.0,0.0,0.0,1.0,0.0,0.0,0.0,1.0,-0.474457710981,-0.256887078285,-0.272751957178,1.21846967915e-07,0.0,0.0,0.0,1.21846967915e-07,0.0,0.0,0.0,1.21846967915e-07,1.89268345,0.4707192,12.9840046,9e-08,0.0,0.0,0.0,9e-08,0.0,0.0,0.0,9e-08
1532987311179566031,422,1532987311179310064,base_link,-0.083532810216,0.153202772763,0.327560724948,-0.928576949696,1.0,0.0,0.0,0.0,1.0,0.0,0.0,0.0,1.0,-0.501913607121,-0.176805883646,-0.0574215427041,1.21846967915e-07,0.0,0.0,0.0,1.21846967915e-07,0.0,0.0,0.0,1.21846967915e-07,1.89268345,0.34323275,13.4939504,9e-08,0.0,0.0,0.0,9e-08,0.0,0.0,0.0,9e-08
1532987311674312896,423,1532987311673963937,base_link,0.051999879301,0.104855827758,0.362437639257,-0.92462977758,1.0,0.0,0.0,0.0,1.0,0.0,0.0,0.0,1.0,-0.413961559534,0.0738433897495,-0.0375186987221,1.21846967915e-07,0.0,0.0,0.0,1.21846967915e-07,0.0,0.0,0.0,1.21846967915e-07,1.10815145,0.2157463,9.9439431,9e-08,0.0,0.0,0.0,9e-08,0.0,0.0,0.0,9e-08
1532987312194408038,424,1532987312193932455,base_link,0.099317278209,0.0610184607641,0.357086071968,-0.926769854334,1.0,0.0,0.0,0.0,1.0,0.0,0.0,0.0,1.0,-0.291702955961,0.123953461647,0.187503382564,1.21846967915e-07,0.0,0.0,0.0,1.21846967915e-07,0.0,0.0,0.0,1.21846967915e-07,1.765197,-0.06864655,7.7668668,9e-08,0.0,0.0,0.0,9e-08,0.0,0.0,0.0,9e-08
1532987312492926981,425,1532987312490318893,base_link,0.13910353967,0.0170537345275,0.334280448689,-0.931995685084,1.0,0.0,0.0,0.0,1.0,0.0,0.0,0.0,1.0,-0.133256152272,0.14807009697,0.155290782452,1.21846967915e-07,0.0,0.0,0.0,1.21846967915e-07,0.0,0.0,0.0,1.21846967915e-07,1.91229675,0.28439285,6.1781895,9e-08,0.0,0.0,0.0,9e-08,0.0,0.0,0.0,9e-08
1532987312926933805,426,1532987312926524974,base_link,0.130963482092,-0.0138994321689,0.280277847505,-0.950841574786,1.0,0.0,0.0,0.0,1.0,0.0,0.0,0.0,1.0,-0.0747788920999,0.0681259259582,0.347663402557,1.21846967915e-07,0.0,0.0,0.0,1.21846967915e-07,0.0,0.0,0.0,1.21846967915e-07,2.61837555,0.0196133,8.1591328,9e-08,0.0,0.0,0.0,9e-08,0.0,0.0,0.0,9e-08
1532987313396352011,427,1532987313396026892,base_link,0.161114867947,-0.0362344002446,0.226308132417,-0.959955049347,1.0,0.0,0.0,0.0,1.0,0.0,0.0,0.0,1.0,-0.0321903154254,-0.047686047852,0.141803383827,1.21846967915e-07,0.0,0.0,0.0,1.21846967915e-07,0.0,0.0,0.0,1.21846967915e-07,2.2947561,0.3138128,9.2574776,9e-08,0.0,0.0,0.0,9e-08,0.0,0.0,0.0,9e-08
1532987313769001291,428,1532987313768372749,base_link,0.135539949707,-0.0139492002203,0.188359617882,-0.972602177767,1.0,0.0,0.0,0.0,1.0,0.0,0.0,0.0,1.0,0.091570481658,-0.136340975761,0.261240392923,1.21846967915e-07,0.0,0.0,0.0,1.21846967915e-07,0.0,0.0,0.0,1.21846967915e-07,2.1378497,0.2941995,11.77778665,9e-08,0.0,0.0,0.0,9e-08,0.0,0.0,0.0,9e-08
1532987314106580469,429,1532987314103293503,base_link,0.131196678998,0.00415433518601,0.14297015272,-0.980984051017,1.0,0.0,0.0,0.0,1.0,0.0,0.0,0.0,1.0,0.0938813239336,-0.101587951183,0.182675689459,1.21846967915e-07,0.0,0.0,0.0,1.21846967915e-07,0.0,0.0,0.0,1.21846967915e-07,1.8044236,0.55897905,12.32695905,9e-08,0.0,0.0,0.0,9e-08,0.0,0.0,0.0,9e-08
1532987314712923831,430,1532987314712374553,base_link,0.0813232243411,0.0233449730156,0.107135664891,-0.990637923121,1.0,0.0,0.0,0.0,1.0,0.0,0.0,0.0,1.0,0.368856877089,-0.0224534831941,0.0673681944609,1.21846967915e-07,0.0,0.0,0.0,1.21846967915e-07,0.0,0.0,0.0,1.21846967915e-07,0.99047165,0.06864655,11.7091401,9e-08,0.0,0.0,0.0,9e-08,0.0,0.0,0.0,9e-08
1532987315162657104,431,1532987315161671795,base_link,0.0123401911615,0.0238696375794,0.0744173114422,-0.996865098116,1.0,0.0,0.0,0.0,1.0,0.0,0.0,0.0,1.0,0.16057652235,0.0966111049056,0.144147083163,1.21846967915e-07,0.0,0.0,0.0,1.21846967915e-07,0.0,0.0,0.0,1.21846967915e-07,1.0591182,-0.10787315,8.9436648,9e-08,0.0,0.0,0.0,9e-08,0.0,0.0,0.0,9e-08
1532987315484814472,432,1532987315484509545,base_link,-0.0365295580085,0.0153600116665,0.0587223304132,-0.99748751839,1.0,0.0,0.0,0.0,1.0,0.0,0.0,0.0,1.0,0.443796753883,0.038815073669,0.0153174456209,1.21846967915e-07,0.0,0.0,0.0,1.21846967915e-07,0.0,0.0,0.0,1.21846967915e-07,1.1964113,0.26477955,8.7671451,9e-08,0.0,0.0,0.0,9e-08,0.0,0.0,0.0,9e-08
1532987315816877986,433,1532987315814858920,base_link,-0.0367966036245,0.00142121158467,0.0448213190113,-0.998316101984,1.0,0.0,0.0,0.0,1.0,0.0,0.0,0.0,1.0,-0.233672007918,0.155097573996,0.023044731468,1.21846967915e-07,0.0,0.0,0.0,1.21846967915e-07,0.0,0.0,0.0,1.21846967915e-07,0.65704555,0.63743225,6.87446165,9e-08,0.0,0.0,0.0,9e-08,0.0,0.0,0.0,9e-08
1532987316401842597,434,1532987316401524838,base_link,-0.0457964217809,-0.0304930220667,0.0666033465442,-0.996261440379,1.0,0.0,0.0,0.0,1.0,0.0,0.0,0.0,1.0,0.0737192779779,0.0685728415847,-0.0866187214851,1.21846967915e-07,0.0,0.0,0.0,1.21846967915e-07,0.0,0.0,0.0,1.21846967915e-07,0.9414384,0.16671305,7.7472535,9e-08,0.0,0.0,0.0,9e-08,0.0,0.0,0.0,9e-08
1532987316757203385,435,1532987316756788506,base_link,-0.0616300337447,-0.025542387491,0.0684401575907,-0.995422156781,1.0,0.0,0.0,0.0,1.0,0.0,0.0,0.0,1.0,-0.0673815310001,-0.0512172877789,0.0308256503195,1.21846967915e-07,0.0,0.0,0.0,1.21846967915e-07,0.0,0.0,0.0,1.21846967915e-07,0.6080123,0.34323275,7.5118939,9e-08,0.0,0.0,0.0,9e-08,0.0,0.0,0.0,9e-08
1532987316999278914,436,1532987316997779590,base_link,-0.045523894583,-0.0193470259365,0.0710325031782,-0.996246782229,1.0,0.0,0.0,0.0,1.0,0.0,0.0,0.0,1.0,-0.2330429703,-0.0517322719097,-0.0932875573635,1.21846967915e-07,0.0,0.0,0.0,1.21846967915e-07,0.0,0.0,0.0,1.21846967915e-07,0.95124505,0.8041453,11.79739995,9e-08,0.0,0.0,0.0,9e-08,0.0,0.0,0.0,9e-08
1532987317294559435,437,1532987317291310420,base_link,-0.0258443437954,-0.0142967497048,0.090780675884,-0.995432841395,1.0,0.0,0.0,0.0,1.0,0.0,0.0,0.0,1.0,0.132058873773,-0.0586234182119,-0.109530821443,1.21846967915e-07,0.0,0.0,0.0,1.21846967915e-07,0.0,0.0,0.0,1.21846967915e-07,0.04903325,-0.0392266,9.3555441,9e-08,0.0,0.0,0.0,9e-08,0.0,0.0,0.0,9e-08
1532987317801048537,438,1532987317798796480,base_link,-0.0566633870692,0.0217865372558,0.0895160403358,-0.994133535237,1.0,0.0,0.0,0.0,1.0,0.0,0.0,0.0,1.0,0.0239788610488,-0.152263641357,0.0825371444225,1.21846967915e-07,0.0,0.0,0.0,1.21846967915e-07,0.0,0.0,0.0,1.21846967915e-07,0.2745862,0.0588399,11.75817335,9e-08,0.0,0.0,0.0,9e-08,0.0,0.0,0.0,9e-08
1532987318136027243,439,1532987318135730347,base_link,-0.0421372253629,0.0376970255681,0.0799234719885,-0.99519627568,1.0,0.0,0.0,0.0,1.0,0.0,0.0,0.0,1.0,-0.122387982905,-0.0571644082665,0.00848333910108,1.21846967915e-07,0.0,0.0,0.0,1.21846967915e-07,0.0,0.0,0.0,1.21846967915e-07,0.40207265,0.38245935,10.9638347,9e-08,0.0,0.0,0.0,9e-08,0.0,0.0,0.0,9e-08
1532987318679908072,440,1532987318679646057,base_link,-0.0179689960362,0.0467351964911,0.0927289197664,-0.994431638691,1.0,0.0,0.0,0.0,1.0,0.0,0.0,0.0,1.0,0.108966439962,-0.0216945484281,-0.0569805465639,1.21846967915e-07,0.0,0.0,0.0,1.21846967915e-07,0.0,0.0,0.0,1.21846967915e-07,0.20593965,0.196133,11.0226746,9e-08,0.0,0.0,0.0,9e-08,0.0,0.0,0.0,9e-08
1532987318980497249,441,1532987318978353256,base_link,-0.0416907896605,0.0483634128512,0.0941466493204,-0.993508564018,1.0,0.0,0.0,0.0,1.0,0.0,0.0,0.0,1.0,0.173420712352,0.00457839248702,0.0137599818408,1.21846967915e-07,0.0,0.0,0.0,1.21846967915e-07,0.0,0.0,0.0,1.21846967915e-07,0.3334261,0.0980665,9.91452315,9e-08,0.0,0.0,0.0,9e-08,0.0,0.0,0.0,9e-08
1532987319350945448,442,1532987319350687497,base_link,-0.0745626404295,0.0515500485438,0.0849146071747,-0.992256274677,1.0,0.0,0.0,0.0,1.0,0.0,0.0,0.0,1.0,0.213049054146,-0.00442718528211,0.0176858846098,1.21846967915e-07,0.0,0.0,0.0,1.21846967915e-07,0.0,0.0,0.0,1.21846967915e-07,0.46091255,0.392266,9.1594111,9e-08,0.0,0.0,0.0,9e-08,0.0,0.0,0.0,9e-08
1532987319793591606,443,1532987319793310711,base_link,-0.131969505085,0.0463634835547,0.0976147050557,-0.985345546738,1.0,0.0,0.0,0.0,1.0,0.0,0.0,0.0,1.0,0.243275761604,0.0393554642797,-0.164789661765,1.21846967915e-07,0.0,0.0,0.0,1.21846967915e-07,0.0,0.0,0.0,1.21846967915e-07,0.79433865,0.28439285,8.8848249,9e-08,0.0,0.0,0.0,9e-08,0.0,0.0,0.0,9e-08
1532987320165153434,444,1532987320164871195,base_link,-0.192559157215,0.043490534574,0.12141670954,-0.972773111789,1.0,0.0,0.0,0.0,1.0,0.0,0.0,0.0,1.0,0.2954903543,-0.0128996931016,-0.139640673995,1.21846967915e-07,0.0,0.0,0.0,1.21846967915e-07,0.0,0.0,0.0,1.21846967915e-07,0.57859235,0.5295591,8.50236555,9e-08,0.0,0.0,0.0,9e-08,0.0,0.0,0.0,9e-08
1532987320665606363,445,1532987320665149180,base_link,-0.231880376644,0.0459523244042,0.164601788911,-0.957614810817,1.0,0.0,0.0,0.0,1.0,0.0,0.0,0.0,1.0,0.00951152667403,-0.0462294258177,-0.239017099142,1.21846967915e-07,0.0,0.0,0.0,1.21846967915e-07,0.0,0.0,0.0,1.21846967915e-07,1.04931155,0.73549875,8.91424485,9e-08,0.0,0.0,0.0,9e-08,0.0,0.0,0.0,9e-08
1532987321036176385,446,1532987321035741186,base_link,-0.256939506743,0.0567573324428,0.213376258378,-0.940867295345,1.0,0.0,0.0,0.0,1.0,0.0,0.0,0.0,1.0,0.163024619222,-0.153042793274,-0.251847952604,1.21846967915e-07,0.0,0.0,0.0,1.21846967915e-07,0.0,0.0,0.0,1.21846967915e-07,0.81395195,0.50013915,9.85568325,9e-08,0.0,0.0,0.0,9e-08,0.0,0.0,0.0,9e-08
1532987321482628804,447,1532987321482403012,base_link,-0.273231365454,0.0890404098792,0.271242957827,-0.918609647331,1.0,0.0,0.0,0.0,1.0,0.0,0.0,0.0,1.0,0.0592428036034,-0.228197321296,-0.239776417613,1.21846967915e-07,0.0,0.0,0.0,1.21846967915e-07,0.0,0.0,0.0,1.21846967915e-07,1.2160246,0.784532,11.60126695,9e-08,0.0,0.0,0.0,9e-08,0.0,0.0,0.0,9e-08
1532987321954713433,448,1532987321953591037,base_link,-0.262172947122,0.118814603994,0.341064609085,-0.894887349393,1.0,0.0,0.0,0.0,1.0,0.0,0.0,0.0,1.0,-0.0177304614335,-0.240911021829,-0.27551522851,1.21846967915e-07,0.0,0.0,0.0,1.21846967915e-07,0.0,0.0,0.0,1.21846967915e-07,1.04931155,0.59820565,12.07198615,9e-08,0.0,0.0,0.0,9e-08,0.0,0.0,0.0,9e-08
1532987322477823542,449,1532987322477205016,base_link,-0.242917874803,0.155926751931,0.423432070468,-0.858710099995,1.0,0.0,0.0,0.0,1.0,0.0,0.0,0.0,1.0,-0.0744639262557,-0.236144259572,-0.264428824186,1.21846967915e-07,0.0,0.0,0.0,1.21846967915e-07,0.0,0.0,0.0,1.21846967915e-07,0.7453054,0.4511059,12.5328987,9e-08,0.0,0.0,0.0,9e-08,0.0,0.0,0.0,9e-08
1532987322892782679,450,1532987322892237881,base_link,-0.210093463782,0.17581615359,0.486929822348,-0.829366483963,1.0,0.0,0.0,0.0,1.0,0.0,0.0,0.0,1.0,-0.112049274147,-0.219301134348,-0.256749540567,1.21846967915e-07,0.0,0.0,0.0,1.21846967915e-07,0.0,0.0,0.0,1.21846967915e-07,0.6864655,0.59820565,11.95430635,9e-08,0.0,0.0,0.0,9e-08,0.0,0.0,0.0,9e-08
1532987323291449417,451,1532987323291172170,base_link,-0.165643783415,0.17666374345,0.541538281525,-0.805039345876,1.0,0.0,0.0,0.0,1.0,0.0,0.0,0.0,1.0,-0.215674474835,-0.15516102314,-0.233519420028,1.21846967915e-07,0.0,0.0,0.0,1.21846967915e-07,0.0,0.0,0.0,1.21846967915e-07,0.65704555,0.48052585,11.2972608,9e-08,0.0,0.0,0.0,9e-08,0.0,0.0,0.0,9e-08
1532987323677564161,452,1532987323677351586,base_link,-0.128702369211,0.16533240568,0.587650137891,-0.781516609694,1.0,0.0,0.0,0.0,1.0,0.0,0.0,0.0,1.0,-0.225817024708,-0.0592132024467,-0.201152712107,1.21846967915e-07,0.0,0.0,0.0,1.21846967915e-07,0.0,0.0,0.0,1.21846967915e-07,0.7256921,0.48052585,10.1596894,9e-08,0.0,0.0,0.0,9e-08,0.0,0.0,0.0,9e-08
1532987324178076705,453,1532987324177600931,base_link,-0.0796024844901,0.131132148713,0.636345819274,-0.755997223758,1.0,0.0,0.0,0.0,1.0,0.0,0.0,0.0,1.0,-0.261914759874,-0.024321006611,-0.139834731817,1.21846967915e-07,0.0,0.0,0.0,1.21846967915e-07,0.0,0.0,0.0,1.21846967915e-07,0.67665885,0.4511059,9.73800345,9e-08,0.0,0.0,0.0,9e-08,0.0,0.0,0.0,9e-08
1532987324540182498,454,1532987324539914978,base_link,-0.0470929337015,0.099206796338,0.659597935107,-0.743552843555,1.0,0.0,0.0,0.0,1.0,0.0,0.0,0.0,1.0,-0.22428381443,0.0228553935885,-0.095545463264,1.21846967915e-07,0.0,0.0,0.0,1.21846967915e-07,0.0,0.0,0.0,1.21846967915e-07,0.89240515,0.34323275,8.9828914,9e-08,0.0,0.0,0.0,9e-08,0.0,0.0,0.0,9e-08
1532987324999762013,455,1532987324996643718,base_link,-0.0227289381577,0.0581846748613,0.675899554332,-0.734341699371,1.0,0.0,0.0,0.0,1.0,0.0,0.0,0.0,1.0,-0.159472540021,0.0768264010549,-0.0519691593945,1.21846967915e-07,0.0,0.0,0.0,1.21846967915e-07,0.0,0.0,0.0,1.21846967915e-07,0.7256921,0.28439285,9.22805765,9e-08,0.0,0.0,0.0,9e-08,0.0,0.0,0.0,9e-08
1532987325330517275,456,1532987325328747456,base_link,-0.0112746853905,0.0311695476159,0.684095581607,-0.728638851556,1.0,0.0,0.0,0.0,1.0,0.0,0.0,0.0,1.0,-0.115115813911,0.0756969600916,-0.0563224181533,1.21846967915e-07,0.0,0.0,0.0,1.21846967915e-07,0.0,0.0,0.0,1.21846967915e-07,0.8629852,0.3530394,8.9632781,9e-08,0.0,0.0,0.0,9e-08,0.0,0.0,0.0,9e-08
1532987325716480595,457,1532987325714705113,base_link,-0.0086944642205,0.0101919693703,0.693752858452,-0.720088537224,1.0,0.0,0.0,0.0,1.0,0.0,0.0,0.0,1.0,-0.0952123701572,0.0587282627821,-0.0489727891982,1.21846967915e-07,0.0,0.0,0.0,1.21846967915e-07,0.0,0.0,0.0,1.21846967915e-07,1.02969825,0.2353596,8.46313895,9e-08,0.0,0.0,0.0,9e-08,0.0,0.0,0.0,9e-08
1532987326157530598,458,1532987326157173159,base_link,-0.0260460966464,0.0131025691807,0.69521651187,-0.718208831159,1.0,0.0,0.0,0.0,1.0,0.0,0.0,0.0,1.0,0.0792155116796,0.00469882600009,0.0465596951544,1.21846967915e-07,0.0,0.0,0.0,1.21846967915e-07,0.0,0.0,0.0,1.21846967915e-07,0.8041453,0.22555295,8.3160392,9e-08,0.0,0.0,0.0,9e-08,0.0,0.0,0.0,9e-08
1532987326558640049,459,1532987326558090835,base_link,-0.0253678053727,0.0130360349008,0.691429405481,-0.721880816673,1.0,0.0,0.0,0.0,1.0,0.0,0.0,0.0,1.0,-0.0358829535544,-0.00309168640524,-0.0051846075803,1.21846967915e-07,0.0,0.0,0.0,1.21846967915e-07,0.0,0.0,0.0,1.21846967915e-07,1.04931155,0.24516625,9.60071035,9e-08,0.0,0.0,0.0,9e-08,0.0,0.0,0.0,9e-08
1532987326929871254,460,1532987326929519607,base_link,-0.014892010089,0.011789370279,0.693928566774,-0.719793291855,1.0,0.0,0.0,0.0,1.0,0.0,0.0,0.0,1.0,-0.0415735729039,-0.068559832871,-0.0189184006304,1.21846967915e-07,0.0,0.0,0.0,1.21846967915e-07,0.0,0.0,0.0,1.21846967915e-07,1.04931155,0.0980665,11.1599677,9e-08,0.0,0.0,0.0,9e-08,0.0,0.0,0.0,9e-08
1532987327356417588,461,1532987327356143253,base_link,-0.00641520155486,0.0295155020838,0.690919474672,-0.722300463688,1.0,0.0,0.0,0.0,1.0,0.0,0.0,0.0,1.0,0.0672077089548,-0.0799497887492,0.0461775399745,1.21846967915e-07,0.0,0.0,0.0,1.21846967915e-07,0.0,0.0,0.0,1.21846967915e-07,1.1179581,0.1176798,12.03275955,9e-08,0.0,0.0,0.0,9e-08,0.0,0.0,0.0,9e-08
1532987327692326915,462,1532987327690813928,base_link,0.00193213958772,0.0406813700329,0.683449908115,-0.728860422898,1.0,0.0,0.0,0.0,1.0,0.0,0.0,0.0,1.0,-0.0323593653738,-0.00629510730505,0.037858299911,1.21846967915e-07,0.0,0.0,0.0,1.21846967915e-07,0.0,0.0,0.0,1.21846967915e-07,0.6276256,0.7256921,11.66010685,9e-08,0.0,0.0,0.0,9e-08,0.0,0.0,0.0,9e-08
1532987328155930898,463,1532987328155503635,base_link,0.00474229235907,0.029119716464,0.697673390177,-0.715808209938,1.0,0.0,0.0,0.0,1.0,0.0,0.0,0.0,1.0,0.0226341895759,0.0430289395154,-0.139712586999,1.21846967915e-07,0.0,0.0,0.0,1.21846967915e-07,0.0,0.0,0.0,1.21846967915e-07,0.3138128,0.3334261,9.71839015,9e-08,0.0,0.0,0.0,9e-08,0.0,0.0,0.0,9e-08
1532987328600910713,464,1532987328598572992,base_link,0.00648190420884,-0.0259826843653,-0.708206325833,0.705497473476,1.0,0.0,0.0,0.0,1.0,0.0,0.0,0.0,1.0,-0.115374267101,0.091605335474,-0.00728570111096,1.21846967915e-07,0.0,0.0,0.0,1.21846967915e-07,0.0,0.0,0.0,1.21846967915e-07,0.83356525,-0.1176798,7.1588545,9e-08,0.0,0.0,0.0,9e-08,0.0,0.0,0.0,9e-08
1532987328976445489,465,1532987328976012658,base_link,-0.0152620416787,0.0172156899046,0.701612563259,-0.712187125116,1.0,0.0,0.0,0.0,1.0,0.0,0.0,0.0,1.0,-0.0385451465845,0.081760533154,0.0543446205556,1.21846967915e-07,0.0,0.0,0.0,1.21846967915e-07,0.0,0.0,0.0,1.21846967915e-07,1.02969825,0.42168595,10.07142955,9e-08,0.0,0.0,0.0,9e-08,0.0,0.0,0.0,9e-08
1532987329402575217,466,1532987329401803251,base_link,-0.0303982705024,0.0130431356071,0.702283322683,-0.711128649715,1.0,0.0,0.0,0.0,1.0,0.0,0.0,0.0,1.0,-0.00740072038025,0.0642098337412,-0.0524988733232,1.21846967915e-07,0.0,0.0,0.0,1.21846967915e-07,0.0,0.0,0.0,1.21846967915e-07,1.0198916,0.196133,8.79656505,9e-08,0.0,0.0,0.0,9e-08,0.0,0.0,0.0,9e-08
1532987329956294193,467,1532987329955971378,base_link,-0.0297219928127,0.0166350067644,0.705030520611,-0.708358556594,1.0,0.0,0.0,0.0,1.0,0.0,0.0,0.0,1.0,-0.0177172534168,-0.0709575414658,0.0327668599784,1.21846967915e-07,0.0,0.0,0.0,1.21846967915e-07,0.0,0.0,0.0,1.21846967915e-07,0.8237586,0.5099458,10.24794925,9e-08,0.0,0.0,0.0,9e-08,0.0,0.0,0.0,9e-08
1532987330390384185,468,1532987330390079930,base_link,-0.0212339456128,0.0287364501245,0.706282275107,-0.707028064406,1.0,0.0,0.0,0.0,1.0,0.0,0.0,0.0,1.0,-0.145187452435,-0.0678348466754,-0.0156285967678,1.21846967915e-07,0.0,0.0,0.0,1.21846967915e-07,0.0,0.0,0.0,1.21846967915e-07,0.97085835,0.2353596,11.2972608,9e-08,0.0,0.0,0.0,9e-08,0.0,0.0,0.0,9e-08
1532987330752544121,469,1532987330752022202,base_link,0.00338410659603,-0.0246464656547,-0.707323511139,0.706452086233,1.0,0.0,0.0,0.0,1.0,0.0,0.0,0.0,1.0,-0.107310757041,-0.0440287441015,-0.0227178819478,1.21846967915e-07,0.0,0.0,0.0,1.21846967915e-07,0.0,0.0,0.0,1.21846967915e-07,0.4118793,0.7060788,11.5914603,9e-08,0.0,0.0,0.0,9e-08,0.0,0.0,0.0,9e-08
1532987331084161236,470,1532987331083869685,base_link,-0.0222546719754,-0.00805602667185,-0.712840901849,0.700926300449,1.0,0.0,0.0,0.0,1.0,0.0,0.0,0.0,1.0,-0.0636203363538,-0.0179931595922,-0.0574041083455,1.21846967915e-07,0.0,0.0,0.0,1.21846967915e-07,0.0,0.0,0.0,1.21846967915e-07,0.77472535,0.30400615,12.2583125,9e-08,0.0,0.0,0.0,9e-08,0.0,0.0,0.0,9e-08
1532987331447339377,471,1532987331447070450,base_link,-0.007969973606,-0.0262468984327,-0.721619451849,0.691746302164,1.0,0.0,0.0,0.0,1.0,0.0,0.0,0.0,1.0,0.196789517999,-0.00520833116025,-0.153720378876,1.21846967915e-07,0.0,0.0,0.0,1.21846967915e-07,0.0,0.0,0.0,1.21846967915e-07,0.0980665,0.24516625,9.0809579,9e-08,0.0,0.0,0.0,9e-08,0.0,0.0,0.0,9e-08
1532987331775621431,472,1532987331775266328,base_link,0.00766885980189,-0.04159038034,-0.728210918611,0.68404699171,1.0,0.0,0.0,0.0,1.0,0.0,0.0,0.0,1.0,0.14436070621,0.0476360544562,-0.0119571629912,1.21846967915e-07,0.0,0.0,0.0,1.21846967915e-07,0.0,0.0,0.0,1.21846967915e-07,0.196133,0.1569064,9.14960445,9e-08,0.0,0.0,0.0,9e-08,0.0,0.0,0.0,9e-08
1532987332169949078,473,1532987332169660855,base_link,0.0371730613512,-0.0530923917695,-0.731372051309,0.678891953119,1.0,0.0,0.0,0.0,1.0,0.0,0.0,0.0,1.0,-0.00876829586923,0.0696894526482,-0.0297777671367,1.21846967915e-07,0.0,0.0,0.0,1.21846967915e-07,0.0,0.0,0.0,1.21846967915e-07,0.6276256,0.08825985,7.42363405,9e-08,0.0,0.0,0.0,9e-08,0.0,0.0,0.0,9e-08
1532987332426822386,474,1532987332426561171,base_link,0.0393729187783,-0.0391013482398,-0.733551485516,0.677364802695,1.0,0.0,0.0,0.0,1.0,0.0,0.0,0.0,1.0,-0.0414779186249,0.112701132894,-0.0578658878803,1.21846967915e-07,0.0,0.0,0.0,1.21846967915e-07,0.0,0.0,0.0,1.21846967915e-07,1.02969825,0.3726527,9.16921775,9e-08,0.0,0.0,0.0,9e-08,0.0,0.0,0.0,9e-08
1532987332855826506,475,1532987332855575018,base_link,0.0373728896232,-0.00672264364223,-0.738162430925,0.673553486187,1.0,0.0,0.0,0.0,1.0,0.0,0.0,0.0,1.0,-0.154284879565,0.0648380070925,0.0352804623544,1.21846967915e-07,0.0,0.0,0.0,1.21846967915e-07,0.0,0.0,0.0,1.21846967915e-07,0.59820565,0.10787315,8.65927195,9e-08,0.0,0.0,0.0,9e-08,0.0,0.0,0.0,9e-08
1532987333346760999,476,1532987333346503367,base_link,0.0228368533167,0.0176574725016,-0.730603429393,0.682191557229,1.0,0.0,0.0,0.0,1.0,0.0,0.0,0.0,1.0,-0.0996923446655,-0.016221055761,0.0610227137804,1.21846967915e-07,0.0,0.0,0.0,1.21846967915e-07,0.0,0.0,0.0,1.21846967915e-07,0.7649187,0.08825985,8.95347145,9e-08,0.0,0.0,0.0,9e-08,0.0,0.0,0.0,9e-08
1532987333882978588,477,1532987333882167550,base_link,0.0113925891038,0.0153008397914,-0.723523421833,0.690036195626,1.0,0.0,0.0,0.0,1.0,0.0,0.0,0.0,1.0,0.0136707937345,-0.0882314294577,0.013002987951,1.21846967915e-07,0.0,0.0,0.0,1.21846967915e-07,0.0,0.0,0.0,1.21846967915e-07,0.34323275,0.24516625,10.7284751,9e-08,0.0,0.0,0.0,9e-08,0.0,0.0,0.0,9e-08
1532987334282102732,478,1532987334281834125,base_link,0.00249910705249,0.000455386818129,-0.715485209669,0.698623261731,1.0,0.0,0.0,0.0,1.0,0.0,0.0,0.0,1.0,0.0114326998591,-0.0897108241916,0.0538658052683,1.21846967915e-07,0.0,0.0,0.0,1.21846967915e-07,0.0,0.0,0.0,1.21846967915e-07,0.1765197,0.32361945,10.3558224,9e-08,0.0,0.0,0.0,9e-08,0.0,0.0,0.0,9e-08
1532987334686321966,479,1532987334684993042,base_link,-0.00547433909292,-0.0134211993172,-0.71225180916,0.701774367849,1.0,0.0,0.0,0.0,1.0,0.0,0.0,0.0,1.0,0.0149021036923,-0.0736414790154,0.0101321144029,1.21846967915e-07,0.0,0.0,0.0,1.21846967915e-07,0.0,0.0,0.0,1.21846967915e-07,0.3334261,0.20593965,10.5323421,9e-08,0.0,0.0,0.0,9e-08,0.0,0.0,0.0,9e-08
1532987335050424136,480,1532987335049672426,base_link,-0.00921630880599,-0.0208172011707,-0.711163949151,0.702657484992,1.0,0.0,0.0,0.0,1.0,0.0,0.0,0.0,1.0,0.0994295552373,-0.0143336206675,0.00783627852798,1.21846967915e-07,0.0,0.0,0.0,1.21846967915e-07,0.0,0.0,0.0,1.21846967915e-07,0.1372931,0.3334261,10.4538889,9e-08,0.0,0.0,0.0,9e-08,0.0,0.0,0.0,9e-08
1532987335457523393,481,1532987335457178722,base_link,-0.00526319079854,-0.0228564632811,-0.708633076127,0.705187240616,1.0,0.0,0.0,0.0,1.0,0.0,0.0,0.0,1.0,0.133359715343,0.0108729358763,0.00546556059271,1.21846967915e-07,0.0,0.0,0.0,1.21846967915e-07,0.0,0.0,0.0,1.21846967915e-07,0.38245935,0.2157463,9.75761675,9e-08,0.0,0.0,0.0,9e-08,0.0,0.0,0.0,9e-08
1532987335887482197,482,1532987335887222710,base_link,0.0259292821644,-0.045733847285,-0.706545912157,0.705711670268,1.0,0.0,0.0,0.0,1.0,0.0,0.0,0.0,1.0,0.210657283664,0.0320220589638,-0.00217351038009,1.21846967915e-07,0.0,0.0,0.0,1.21846967915e-07,0.0,0.0,0.0,1.21846967915e-07,0.14709975,0.2353596,8.03164635,9e-08,0.0,0.0,0.0,9e-08,0.0,0.0,0.0,9e-08
1532987336310563934,483,1532987336309807520,base_link,0.0543092696198,-0.0572736037847,-0.718756769441,0.690766924458,1.0,0.0,0.0,0.0,1.0,0.0,0.0,0.0,1.0,0.231193631887,0.0368789918721,-0.166938737035,1.21846967915e-07,0.0,0.0,0.0,1.21846967915e-07,0.0,0.0,0.0,1.21846967915e-07,0.1372931,0.59820565,8.30623255,9e-08,0.0,0.0,0.0,9e-08,0.0,0.0,0.0,9e-08
1532987336643883093,484,1532987336642918999,base_link,0.0840649864786,-0.0754783679137,-0.736459463481,0.666980923771,1.0,0.0,0.0,0.0,1.0,0.0,0.0,0.0,1.0,0.226211369038,0.00733683770522,-0.191853612661,1.21846967915e-07,0.0,0.0,0.0,1.21846967915e-07,0.0,0.0,0.0,1.21846967915e-07,0.32361945,0.1765197,8.63965865,9e-08,0.0,0.0,0.0,9e-08,0.0,0.0,0.0,9e-08
1532987337016157078,485,1532987337015798487,base_link,0.11372867748,-0.115125724371,-0.751346458773,0.639758043635,1.0,0.0,0.0,0.0,1.0,0.0,0.0,0.0,1.0,0.324734091759,-0.0708939284086,-0.113537952304,1.21846967915e-07,0.0,0.0,0.0,1.21846967915e-07,0.0,0.0,0.0,1.21846967915e-07,0.34323275,0.16671305,11.4737805,9e-08,0.0,0.0,0.0,9e-08,0.0,0.0,0.0,9e-08
1532987337367281623,486,1532987337367042168,base_link,0.128901206171,-0.151830509514,-0.761672907213,0.616592537942,1.0,0.0,0.0,0.0,1.0,0.0,0.0,0.0,1.0,0.191744491458,-0.124366804957,-0.153015717864,1.21846967915e-07,0.0,0.0,0.0,1.21846967915e-07,0.0,0.0,0.0,1.21846967915e-07,0.69627215,0.3334261,10.24794925,9e-08,0.0,0.0,0.0,9e-08,0.0,0.0,0.0,9e-08
1532987337825805493,487,1532987337825483318,base_link,0.129607192598,-0.17794006564,-0.786254554331,0.577358713852,1.0,0.0,0.0,0.0,1.0,0.0,0.0,0.0,1.0,0.0688517317176,-0.112968094647,-0.197905227542,1.21846967915e-07,0.0,0.0,0.0,1.21846967915e-07,0.0,0.0,0.0,1.21846967915e-07,0.18632635,0.57859235,10.5715687,9e-08,0.0,0.0,0.0,9e-08,0.0,0.0,0.0,9e-08
1532987338189133650,488,1532987338187874038,base_link,0.122361723277,-0.199279545691,-0.807556497032,0.541449697984,1.0,0.0,0.0,0.0,1.0,0.0,0.0,0.0,1.0,-0.0480351634324,-0.177765503526,-0.184473633766,1.21846967915e-07,0.0,0.0,0.0,1.21846967915e-07,0.0,0.0,0.0,1.21846967915e-07,0.5491724,0.4118793,10.9246081,9e-08,0.0,0.0,0.0,9e-08,0.0,0.0,0.0,9e-08
1532987338671332137,489,1532987338671058474,base_link,0.100195177602,-0.201918649908,-0.841132427252,0.49161572903,1.0,0.0,0.0,0.0,1.0,0.0,0.0,0.0,1.0,0.0338304191828,-0.160083577037,-0.255117028952,1.21846967915e-07,0.0,0.0,0.0,1.21846967915e-07,0.0,0.0,0.0,1.21846967915e-07,0.44129925,0.5099458,11.1207411,9e-08,0.0,0.0,0.0,9e-08,0.0,0.0,0.0,9e-08
1532987339035107556,490,1532987339034847813,base_link,0.0839555000508,-0.2133454748,-0.864841974838,0.446635803482,1.0,0.0,0.0,0.0,1.0,0.0,0.0,0.0,1.0,0.0508376508951,-0.16387116909,-0.218098983169,1.21846967915e-07,0.0,0.0,0.0,1.21846967915e-07,0.0,0.0,0.0,1.21846967915e-07,0.38245935,0.63743225,11.97391965,9e-08,0.0,0.0,0.0,9e-08,0.0,0.0,0.0,9e-08
1532987339442298141,491,1532987339441468159,base_link,0.0696456065246,-0.238620241497,-0.88583937723,0.391788804827,1.0,0.0,0.0,0.0,1.0,0.0,0.0,0.0,1.0,0.100421749055,-0.163928344846,-0.253442257643,1.21846967915e-07,0.0,0.0,0.0,1.21846967915e-07,0.0,0.0,0.0,1.21846967915e-07,0.65704555,0.51975245,11.54242705,9e-08,0.0,0.0,0.0,9e-08,0.0,0.0,0.0,9e-08
1532987339842944201,492,1532987339842629450,base_link,0.0573887947709,-0.257214069398,-0.904731853485,0.334675547402,1.0,0.0,0.0,0.0,1.0,0.0,0.0,0.0,1.0,-0.0474007986486,-0.179082363844,-0.260633051395,1.21846967915e-07,0.0,0.0,0.0,1.21846967915e-07,0.0,0.0,0.0,1.21846967915e-07,0.5295591,0.5491724,10.22833595,9e-08,0.0,0.0,0.0,9e-08,0.0,0.0,0.0,9e-08
1532987340239398466,493,1532987340239030243,base_link,0.0403262544775,-0.256642107824,-0.923649538368,0.28174483485,1.0,0.0,0.0,0.0,1.0,0.0,0.0,0.0,1.0,-0.0718266442418,-0.165535360575,-0.249951928854,1.21846967915e-07,0.0,0.0,0.0,1.21846967915e-07,0.0,0.0,0.0,1.21846967915e-07,0.8041453,0.46091255,10.8853815,9e-08,0.0,0.0,0.0,9e-08,0.0,0.0,0.0,9e-08
1532987340601731649,494,1532987340601383298,base_link,0.0225170281935,-0.246823316659,-0.940693965116,0.231659443558,1.0,0.0,0.0,0.0,1.0,0.0,0.0,0.0,1.0,-0.118300966918,-0.13679368794,-0.247064724565,1.21846967915e-07,0.0,0.0,0.0,1.21846967915e-07,0.0,0.0,0.0,1.21846967915e-07,0.6472389,0.44129925,11.0226746,9e-08,0.0,0.0,0.0,9e-08,0.0,0.0,0.0,9e-08
1532987341024885514,495,1532987341024601387,base_link,-0.00313846268889,-0.215905483793,-0.960109286507,0.177665781968,1.0,0.0,0.0,0.0,1.0,0.0,0.0,0.0,1.0,-0.230584576726,-0.131980717182,-0.218435779214,1.21846967915e-07,0.0,0.0,0.0,1.21846967915e-07,0.0,0.0,0.0,1.21846967915e-07,0.67665885,0.4511059,11.34629405,9e-08,0.0,0.0,0.0,9e-08,0.0,0.0,0.0,9e-08
1532987341515644744,496,1532987341515223721,base_link,-0.0216600748781,-0.164379121011,-0.978147825291,0.125447907952,1.0,0.0,0.0,0.0,1.0,0.0,0.0,0.0,1.0,-0.199158653617,-0.0543525032699,-0.175776228309,1.21846967915e-07,0.0,0.0,0.0,1.21846967915e-07,0.0,0.0,0.0,1.21846967915e-07,0.8041453,0.4903325,10.1793027,9e-08,0.0,0.0,0.0,9e-08,0.0,0.0,0.0,9e-08
1532987341806874717,497,1532987341801285613,base_link,-0.0299438691003,-0.132920946244,-0.985582197874,0.100315093518,1.0,0.0,0.0,0.0,1.0,0.0,0.0,0.0,1.0,-0.201015263796,-0.0320779681206,-0.15130071342,1.21846967915e-07,0.0,0.0,0.0,1.21846967915e-07,0.0,0.0,0.0,1.21846967915e-07,0.8237586,0.36284605,10.2381426,9e-08,0.0,0.0,0.0,9e-08,0.0,0.0,0.0,9e-08
1532987342160309719,498,1532987342159954904,base_link,-0.0343291026961,-0.0984799649978,-0.991666649809,0.0756337547592,1.0,0.0,0.0,0.0,1.0,0.0,0.0,0.0,1.0,-0.163493648171,0.0043120495975,-0.113653212786,1.21846967915e-07,0.0,0.0,0.0,1.21846967915e-07,0.0,0.0,0.0,1.21846967915e-07,0.8825985,0.2353596,10.3558224,9e-08,0.0,0.0,0.0,9e-08,0.0,0.0,0.0,9e-08
1532987342674471982,499,1532987342674129455,base_link,-0.0353622592131,-0.050697526058,-0.996529222388,0.0557564382033,1.0,0.0,0.0,0.0,1.0,0.0,0.0,0.0,1.0,-0.111103482544,0.00478710373864,-0.0358204506338,1.21846967915e-07,0.0,0.0,0.0,1.21846967915e-07,0.0,0.0,0.0,1.21846967915e-07,0.7453054,0.2745862,9.0025047,9e-08,0.0,0.0,0.0,9e-08,0.0,0.0,0.0,9e-08
1532987343084446366,500,1532987343082341316,base_link,-0.03364100582,-0.0240533296021,-0.99749330051,0.0574180764196,1.0,0.0,0.0,0.0,1.0,0.0,0.0,0.0,1.0,-0.256832122803,0.0165885388851,0.0337441004813,1.21846967915e-07,0.0,0.0,0.0,1.21846967915e-07,0.0,0.0,0.0,1.21846967915e-07,1.1964113,0.2353596,10.05181625,9e-08,0.0,0.0,0.0,9e-08,0.0,0.0,0.0,9e-08
1532987343623981801,501,1532987343620907986,base_link,-0.0178688712974,0.00657123651786,-0.998094274019,0.058697039608,1.0,0.0,0.0,0.0,1.0,0.0,0.0,0.0,1.0,-0.0532551519573,0.0761743485928,-0.0320506282151,1.21846967915e-07,0.0,0.0,0.0,1.21846967915e-07,0.0,0.0,0.0,1.21846967915e-07,0.85317855,0.55897905,7.83551335,9e-08,0.0,0.0,0.0,9e-08,0.0,0.0,0.0,9e-08
1532987344047471921,502,1532987344044996568,base_link,-0.0089225316828,0.00506826494291,-0.998367834196,0.0561815695893,1.0,0.0,0.0,0.0,1.0,0.0,0.0,0.0,1.0,0.0554129518569,0.0148585261777,0.0309091936797,1.21846967915e-07,0.0,0.0,0.0,1.21846967915e-07,0.0,0.0,0.0,1.21846967915e-07,0.95124505,-0.06864655,8.95347145,9e-08,0.0,0.0,0.0,9e-08,0.0,0.0,0.0,9e-08
1532987344464392428,503,1532987344463674702,base_link,-0.013276460974,0.00572024489735,-0.997325493939,0.0716440752765,1.0,0.0,0.0,0.0,1.0,0.0,0.0,0.0,1.0,-0.0496858768165,-0.033102247864,0.0916376188397,1.21846967915e-07,0.0,0.0,0.0,1.21846967915e-07,0.0,0.0,0.0,1.21846967915e-07,0.93163175,0.4707192,9.0809579,9e-08,0.0,0.0,0.0,9e-08,0.0,0.0,0.0,9e-08
1532987344870816423,504,1532987344870504968,base_link,-0.0196837945374,0.00127384991939,-0.996261688981,0.0841045338092,1.0,0.0,0.0,0.0,1.0,0.0,0.0,0.0,1.0,0.0715456828475,-0.0531248934567,0.0543013252318,1.21846967915e-07,0.0,0.0,0.0,1.21846967915e-07,0.0,0.0,0.0,1.21846967915e-07,1.04931155,0.3334261,9.95374975,9e-08,0.0,0.0,0.0,9e-08,0.0,0.0,0.0,9e-08
1532987345284519820,505,1532987345284342669,base_link,-0.0291282895612,-0.0158512693796,-0.994703210804,0.0972923554212,1.0,0.0,0.0,0.0,1.0,0.0,0.0,0.0,1.0,0.0236726347357,-0.0390633046627,0.047500193119,1.21846967915e-07,0.0,0.0,0.0,1.21846967915e-07,0.0,0.0,0.0,1.21846967915e-07,0.7453054,0.6276256,10.1008495,9e-08,0.0,0.0,0.0,9e-08,0.0,0.0,0.0,9e-08
1532987345669820742,506,1532987345668612394,base_link,-0.0408679107858,-0.0281539830396,-0.99383565049,0.0991355986619,1.0,0.0,0.0,0.0,1.0,0.0,0.0,0.0,1.0,0.151195630431,-0.0965750366449,-0.0531335584819,1.21846967915e-07,0.0,0.0,0.0,1.21846967915e-07,0.0,0.0,0.0,1.21846967915e-07,0.784532,0.7649187,13.2978174,9e-08,0.0,0.0,0.0,9e-08,0.0,0.0,0.0,9e-08
1532987346139801442,507,1532987346139529987,base_link,-0.0495810043846,-0.039277810861,-0.994855517161,0.0791294986197,1.0,0.0,0.0,0.0,1.0,0.0,0.0,0.0,1.0,0.0129649341106,-0.00172945763916,-0.0977377444506,1.21846967915e-07,0.0,0.0,0.0,1.21846967915e-07,0.0,0.0,0.0,1.21846967915e-07,0.36284605,0.4707192,10.91480145,9e-08,0.0,0.0,0.0,9e-08,0.0,0.0,0.0,9e-08
1532987346453760883,508,1532987346453500084,base_link,-0.0588225212252,0.00022053537874,-0.996160019158,0.0648465773404,1.0,0.0,0.0,0.0,1.0,0.0,0.0,0.0,1.0,-0.264197289944,-0.0258788932115,-0.0661111176014,1.21846967915e-07,0.0,0.0,0.0,1.21846967915e-07,0.0,0.0,0.0,1.21846967915e-07,0.588399,0.196133,12.3367657,9e-08,0.0,0.0,0.0,9e-08,0.0,0.0,0.0,9e-08
1532987346914756266,509,1532987346906391139,base_link,-0.0572480050478,0.00168971503766,-0.996487228587,0.0610983964115,1.0,0.0,0.0,0.0,1.0,0.0,0.0,0.0,1.0,-0.036401566118,0.00761682540178,0.00836911331862,1.21846967915e-07,0.0,0.0,0.0,1.21846967915e-07,0.0,0.0,0.0,1.21846967915e-07,0.42168595,0.28439285,9.79684335,9e-08,0.0,0.0,0.0,9e-08,0.0,0.0,0.0,9e-08
1532987347399327898,510,1532987347398945339,base_link,-0.0360543807681,-0.0176112263985,-0.997731296913,0.0540572427458,1.0,0.0,0.0,0.0,1.0,0.0,0.0,0.0,1.0,0.0821054726839,0.0946660712361,-0.0742721632123,1.21846967915e-07,0.0,0.0,0.0,1.21846967915e-07,0.0,0.0,0.0,1.21846967915e-07,0.4511059,0.2745862,7.26672765,9e-08,0.0,0.0,0.0,9e-08,0.0,0.0,0.0,9e-08
1532987347868099418,511,1532987347867481436,base_link,-0.0144004478907,-0.0309660191582,-0.998142904915,0.0504427807111,1.0,0.0,0.0,0.0,1.0,0.0,0.0,0.0,1.0,-0.233442381024,0.0743274688721,0.0496482029557,1.21846967915e-07,0.0,0.0,0.0,1.21846967915e-07,0.0,0.0,0.0,1.21846967915e-07,1.01008495,0.3334261,8.36507245,9e-08,0.0,0.0,0.0,9e-08,0.0,0.0,0.0,9e-08
1532987348267635753,512,1532987348267139691,base_link,0.00582034150207,-0.0226269897885,-0.998395670635,0.0515773963604,1.0,0.0,0.0,0.0,1.0,0.0,0.0,0.0,1.0,0.164157062769,0.0566830225289,-0.0243235379457,1.21846967915e-07,0.0,0.0,0.0,1.21846967915e-07,0.0,0.0,0.0,1.21846967915e-07,0.9218251,0.32361945,8.9240515,9e-08,0.0,0.0,0.0,9e-08,0.0,0.0,0.0,9e-08
1532987348664662113,513,1532987348664417569,base_link,0.0136024158476,-0.0491124315892,-0.997228302795,0.0542093668124,1.0,0.0,0.0,0.0,1.0,0.0,0.0,0.0,1.0,-0.130580827594,-0.0119330203161,0.0241955127567,1.21846967915e-07,0.0,0.0,0.0,1.21846967915e-07,0.0,0.0,0.0,1.21846967915e-07,1.0591182,0.38245935,9.80665,9e-08,0.0,0.0,0.0,9e-08,0.0,0.0,0.0,9e-08
1532987349045777800,514,1532987349045471241,base_link,0.00773488153591,0.0474589511168,-0.99694081316,0.0616184600824,1.0,0.0,0.0,0.0,1.0,0.0,0.0,0.0,1.0,-0.517407894135,0.0275980904698,0.00842550303787,1.21846967915e-07,0.0,0.0,0.0,1.21846967915e-07,0.0,0.0,0.0,1.21846967915e-07,0.83356525,-0.1372931,8.36507245,9e-08,0.0,0.0,0.0,9e-08,0.0,0.0,0.0,9e-08
1532987349413671254,515,1532987349412899449,base_link,0.00146224765557,0.0438237764764,-0.997218547827,0.0602702772334,1.0,0.0,0.0,0.0,1.0,0.0,0.0,0.0,1.0,0.255630135536,-0.0489310994744,0.0491263382137,1.21846967915e-07,0.0,0.0,0.0,1.21846967915e-07,0.0,0.0,0.0,1.21846967915e-07,1.22583125,-0.69627215,11.5326204,9e-08,0.0,0.0,0.0,9e-08,0.0,0.0,0.0,9e-08
1532987349690042168,516,1532987349689778585,base_link,-0.00372665486766,-0.00134911507868,-0.995894528505,0.0904343962586,1.0,0.0,0.0,0.0,1.0,0.0,0.0,0.0,1.0,0.198948681355,-0.0261196382344,0.252154886723,1.21846967915e-07,0.0,0.0,0.0,1.21846967915e-07,0.0,0.0,0.0,1.21846967915e-07,1.10815145,1.3883193008e-15,11.3364874,9e-08,0.0,0.0,0.0,9e-08,0.0,0.0,0.0,9e-08
1532987350085344692,517,1532987350085001045,base_link,-0.0123781448451,-0.0191525252183,-0.9944566947,0.102644262747,1.0,0.0,0.0,0.0,1.0,0.0,0.0,0.0,1.0,-0.0481796227396,-0.0317484587431,-0.0660644844174,1.21846967915e-07,0.0,0.0,0.0,1.21846967915e-07,0.0,0.0,0.0,1.21846967915e-07,0.7060788,0.9414384,10.4146623,9e-08,0.0,0.0,0.0,9e-08,0.0,0.0,0.0,9e-08
1532987350472344202,518,1532987350471680908,base_link,-0.0131699477418,-0.0256377793424,-0.996789648758,0.0746970740825,1.0,0.0,0.0,0.0,1.0,0.0,0.0,0.0,1.0,0.0222839005291,-0.0345606952906,-0.150332853198,1.21846967915e-07,0.0,0.0,0.0,1.21846967915e-07,0.0,0.0,0.0,1.21846967915e-07,0.7453054,0.196133,10.26756255,9e-08,0.0,0.0,0.0,9e-08,0.0,0.0,0.0,9e-08
1532987350878853572,519,1532987350878590853,base_link,-0.0224802834316,-0.0366877340942,-0.997387317354,0.0580274607843,1.0,0.0,0.0,0.0,1.0,0.0,0.0,0.0,1.0,0.137991353869,-0.0504525601864,-0.0145690571517,1.21846967915e-07,0.0,0.0,0.0,1.21846967915e-07,0.0,0.0,0.0,1.21846967915e-07,0.83356525,1.41834350713e-15,11.58165365,9e-08,0.0,0.0,0.0,9e-08,0.0,0.0,0.0,9e-08
1532987351181811190,520,1532987351181423959,base_link,-0.030556822105,-0.0549463968557,-0.996064502417,0.0624714424445,1.0,0.0,0.0,0.0,1.0,0.0,0.0,0.0,1.0,-0.0135462945327,-0.0557292215526,0.0418480299413,1.21846967915e-07,0.0,0.0,0.0,1.21846967915e-07,0.0,0.0,0.0,1.21846967915e-07,0.7060788,0.4118793,11.01286795,9e-08,0.0,0.0,0.0,9e-08,0.0,0.0,0.0,9e-08
1532987351579254892,521,1532987351578761453,base_link,-0.0344575600615,-0.0624110835973,-0.995883437734,0.0559795645316,1.0,0.0,0.0,0.0,1.0,0.0,0.0,0.0,1.0,0.202901050448,-0.031825453043,-0.0592577494681,1.21846967915e-07,0.0,0.0,0.0,1.21846967915e-07,0.0,0.0,0.0,1.21846967915e-07,0.50013915,0.02941995,9.56148375,9e-08,0.0,0.0,0.0,9e-08,0.0,0.0,0.0,9e-08
1532987351822958800,522,1532987351822672465,base_link,-0.0376099447827,-0.0673898525041,-0.995454443232,0.0558081650209,1.0,0.0,0.0,0.0,1.0,0.0,0.0,0.0,1.0,-0.0682371482253,-0.0116584086791,0.0263681299984,1.21846967915e-07,0.0,0.0,0.0,1.21846967915e-07,0.0,0.0,0.0,1.21846967915e-07,0.4314926,0.2745862,9.69877685,9e-08,0.0,0.0,0.0,9e-08,0.0,0.0,0.0,9e-08
1532987352308747388,523,1532987352307732671,base_link,-0.0297766933025,-0.0710570334123,-0.995393480279,0.0570619484107,1.0,0.0,0.0,0.0,1.0,0.0,0.0,0.0,1.0,0.140635743737,0.0422696657479,-0.0422854200006,1.21846967915e-07,0.0,0.0,0.0,1.21846967915e-07,0.0,0.0,0.0,1.21846967915e-07,0.4118793,0.48052585,9.414384,9e-08,0.0,0.0,0.0,9e-08,0.0,0.0,0.0,9e-08
1532987352735978777,524,1532987352735718425,base_link,-0.0162796119504,-0.0576054214338,-0.997274745037,0.0431239210698,1.0,0.0,0.0,0.0,1.0,0.0,0.0,0.0,1.0,-0.249170929193,0.0831203311682,-0.0758895352483,1.21846967915e-07,0.0,0.0,0.0,1.21846967915e-07,0.0,0.0,0.0,1.21846967915e-07,0.63743225,0.26477955,8.73772515,9e-08,0.0,0.0,0.0,9e-08,0.0,0.0,0.0,9e-08
1532987353191426240,525,1532987353189971781,base_link,-0.00473122442355,-0.0085584355149,-0.999565649491,0.0278007383895,1.0,0.0,0.0,0.0,1.0,0.0,0.0,0.0,1.0,-0.254815638065,0.0392033793032,-0.0675527006388,1.21846967915e-07,0.0,0.0,0.0,1.21846967915e-07,0.0,0.0,0.0,1.21846967915e-07,0.6276256,0.08825985,7.54131385,9e-08,0.0,0.0,0.0,9e-08,0.0,0.0,0.0,9e-08
1532987353570395438,526,1532987353570002799,base_link,-0.00290371741422,0.0239762577317,-0.999490383759,0.0208729553188,1.0,0.0,0.0,0.0,1.0,0.0,0.0,0.0,1.0,-0.0611662045121,-0.0147577505559,0.0118899280205,1.21846967915e-07,0.0,0.0,0.0,1.21846967915e-07,0.0,0.0,0.0,1.21846967915e-07,0.5099458,-0.00980665,9.7870367,9e-08,0.0,0.0,0.0,9e-08,0.0,0.0,0.0,9e-08
1532987353864157499,527,1532987353863809596,base_link,-0.0116194034934,0.0236846983925,-0.999080321449,0.0338014174035,1.0,0.0,0.0,0.0,1.0,0.0,0.0,0.0,1.0,0.0672536715865,-0.095747590065,0.120517380536,1.21846967915e-07,0.0,0.0,0.0,1.21846967915e-07,0.0,0.0,0.0,1.21846967915e-07,0.99047165,0.0392266,11.0815145,9e-08,0.0,0.0,0.0,9e-08,0.0,0.0,0.0,9e-08
1532987354361885860,528,1532987354361637380,base_link,-0.0291484092191,0.0325218736085,-0.997127531206,0.0618820207091,1.0,0.0,0.0,0.0,1.0,0.0,0.0,0.0,1.0,0.0272454321384,-0.0437933057547,0.0461170859635,1.21846967915e-07,0.0,0.0,0.0,1.21846967915e-07,0.0,0.0,0.0,1.21846967915e-07,1.01008495,0.34323275,11.4933938,9e-08,0.0,0.0,0.0,9e-08,0.0,0.0,0.0,9e-08
1532987354655509393,529,1532987354655217682,base_link,-0.0312567383619,0.0411729946019,-0.996440528945,0.0665888361346,1.0,0.0,0.0,0.0,1.0,0.0,0.0,0.0,1.0,-0.157941579819,0.0268032420427,0.0110396184027,1.21846967915e-07,0.0,0.0,0.0,1.21846967915e-07,0.0,0.0,0.0,1.21846967915e-07,0.53936575,0.3530394,9.4536106,9e-08,0.0,0.0,0.0,9e-08,0.0,0.0,0.0,9e-08
1532987355065073923,530,1532987355064784900,base_link,-0.029389723139,0.0485746596701,-0.996252109712,0.0652570341526,1.0,0.0,0.0,0.0,1.0,0.0,0.0,0.0,1.0,0.129999607801,0.0145637039095,0.0112327132374,1.21846967915e-07,0.0,0.0,0.0,1.21846967915e-07,0.0,0.0,0.0,1.21846967915e-07,0.75511205,-0.00980665,9.80665,9e-08,0.0,0.0,0.0,9e-08,0.0,0.0,0.0,9e-08
1532987355339461770,531,1532987355337647248,base_link,-0.0267370976705,0.00983376093825,-0.997218376179,0.0688762293145,1.0,0.0,0.0,0.0,1.0,0.0,0.0,0.0,1.0,0.542025625706,0.0027053207159,0.0412607640028,1.21846967915e-07,0.0,0.0,0.0,1.21846967915e-07,0.0,0.0,0.0,1.21846967915e-07,1.24544455,-0.1569064,10.07142955,9e-08,0.0,0.0,0.0,9e-08,0.0,0.0,0.0,9e-08
1532987355739659576,532,1532987355739273625,base_link,-0.0252457691737,-0.0426870092749,-0.994155234356,0.095894944497,1.0,0.0,0.0,0.0,1.0,0.0,0.0,0.0,1.0,0.155841767788,0.00010893587023,0.138285920024,1.21846967915e-07,0.0,0.0,0.0,1.21846967915e-07,0.0,0.0,0.0,1.21846967915e-07,1.4513842,0.53936575,10.6500219,9e-08,0.0,0.0,0.0,9e-08,0.0,0.0,0.0,9e-08
1532987355997191762,533,1532987355996867731,base_link,-0.0205166117606,-0.048796293316,-0.993294327552,0.102783117554,1.0,0.0,0.0,0.0,1.0,0.0,0.0,0.0,1.0,0.0744692087173,0.063368961215,-0.06947478652,1.21846967915e-07,0.0,0.0,0.0,1.21846967915e-07,0.0,0.0,0.0,1.21846967915e-07,1.02969825,0.99047165,9.3947707,9e-08,0.0,0.0,0.0,9e-08,0.0,0.0,0.0,9e-08
1532987356372475851,534,1532987356372183340,base_link,-0.00482123016722,-0.0487014289563,-0.995967773365,0.0751872394422,1.0,0.0,0.0,0.0,1.0,0.0,0.0,0.0,1.0,0.0397468730807,0.0458959378302,-0.187848106027,1.21846967915e-07,0.0,0.0,0.0,1.21846967915e-07,0.0,0.0,0.0,1.21846967915e-07,0.7453054,0.50013915,8.0218397,9e-08,0.0,0.0,0.0,9e-08,0.0,0.0,0.0,9e-08
1532987356806842674,535,1532987356806568275,base_link,-0.0034493923485,-0.0547549866721,-0.996917282333,0.0560885488601,1.0,0.0,0.0,0.0,1.0,0.0,0.0,0.0,1.0,0.0714263245463,0.00616819597781,-0.0198157429695,1.21846967915e-07,0.0,0.0,0.0,1.21846967915e-07,0.0,0.0,0.0,1.21846967915e-07,0.85317855,0.2549729,9.75761675,9e-08,0.0,0.0,0.0,9e-08,0.0,0.0,0.0,9e-08
1532987357293328796,536,1532987357293049117,base_link,-0.00844346366583,-0.0359813124639,-0.998080118124,0.0497004112703,1.0,0.0,0.0,0.0,1.0,0.0,0.0,0.0,1.0,-0.126164376736,-0.0393978990614,-0.0317532159388,1.21846967915e-07,0.0,0.0,0.0,1.21846967915e-07,0.0,0.0,0.0,1.21846967915e-07,0.81395195,0.5687857,10.26756255,9e-08,0.0,0.0,0.0,9e-08,0.0,0.0,0.0,9e-08
1532987357720661304,537,1532987357718860318,base_link,-0.0216484749359,-0.0166466054238,-0.998573010835,0.0458930941702,1.0,0.0,0.0,0.0,1.0,0.0,0.0,0.0,1.0,-0.0724451243877,-0.0756346583366,-0.00334119191393,1.21846967915e-07,0.0,0.0,0.0,1.21846967915e-07,0.0,0.0,0.0,1.21846967915e-07,0.6080123,0.2941995,11.77778665,9e-08,0.0,0.0,0.0,9e-08,0.0,0.0,0.0,9e-08
1532987358181340816,538,1532987358181004817,base_link,-0.0380541666381,-0.000623285947617,-0.998158608442,0.047232238035,1.0,0.0,0.0,0.0,1.0,0.0,0.0,0.0,1.0,-0.104960933328,-0.0598596595228,-0.0168697685003,1.21846967915e-07,0.0,0.0,0.0,1.21846967915e-07,0.0,0.0,0.0,1.21846967915e-07,0.6276256,0.4118793,11.5914603,9e-08,0.0,0.0,0.0,9e-08,0.0,0.0,0.0,9e-08
1532987358565087247,539,1532987358564764240,base_link,-0.0443959439589,0.0220765821615,-0.99771891693,0.0458103425048,1.0,0.0,0.0,0.0,1.0,0.0,0.0,0.0,1.0,-0.276413738728,-0.0303906872869,-0.01897585392,1.21846967915e-07,0.0,0.0,0.0,1.21846967915e-07,0.0,0.0,0.0,1.21846967915e-07,0.26477955,0.6472389,10.24794925,9e-08,0.0,0.0,0.0,9e-08,0.0,0.0,0.0,9e-08
1532987358938045679,540,1532987358936694419,base_link,-0.040268764574,0.0155388088102,-0.998613260922,0.030141783798,1.0,0.0,0.0,0.0,1.0,0.0,0.0,0.0,1.0,0.198657527566,-0.00572784803808,-0.100868888199,1.21846967915e-07,0.0,0.0,0.0,1.21846967915e-07,0.0,0.0,0.0,1.21846967915e-07,0.0588399,0.0196133,9.0025047,9e-08,0.0,0.0,0.0,9e-08,0.0,0.0,0.0,9e-08
1532987359397822793,541,1532987359397469386,base_link,-0.0355997756757,-0.0262758580007,-0.998296847976,0.0380215541483,1.0,0.0,0.0,0.0,1.0,0.0,0.0,0.0,1.0,0.210078909993,0.0453798286617,0.205016165972,1.21846967915e-07,0.0,0.0,0.0,1.21846967915e-07,0.0,0.0,0.0,1.21846967915e-07,0.4314926,-0.30400615,10.52253545,9e-08,0.0,0.0,0.0,9e-08,0.0,0.0,0.0,9e-08
1532987359766368758,542,1532987359766043287,base_link,-0.0280161301264,-0.0462511866141,-0.996098951768,0.069733797236,1.0,0.0,0.0,0.0,1.0,0.0,0.0,0.0,1.0,0.113227337599,0.0341350212693,0.0577254705131,1.21846967915e-07,0.0,0.0,0.0,1.21846967915e-07,0.0,0.0,0.0,1.21846967915e-07,0.40207265,0.4903325,9.610517,9e-08,0.0,0.0,0.0,9e-08,0.0,0.0,0.0,9e-08
1532987360200953436,543,1532987360200640765,base_link,-0.0124611916521,-0.0962374588928,-0.993135938063,0.0652999137593,1.0,0.0,0.0,0.0,1.0,0.0,0.0,0.0,1.0,0.122908897698,0.0824191719294,-0.0665649399161,1.21846967915e-07,0.0,0.0,0.0,1.21846967915e-07,0.0,0.0,0.0,1.21846967915e-07,0.28439285,0.18632635,7.05098135,9e-08,0.0,0.0,0.0,9e-08,0.0,0.0,0.0,9e-08
1532987360636375616,544,1532987360634563142,base_link,0.00604632107625,-0.118468638822,-0.992020431394,0.0427093352149,1.0,0.0,0.0,0.0,1.0,0.0,0.0,0.0,1.0,0.203725203872,0.0308323800564,-0.168881937861,1.21846967915e-07,0.0,0.0,0.0,1.21846967915e-07,0.0,0.0,0.0,1.21846967915e-07,0.3334261,0.3726527,8.20816605,9e-08,0.0,0.0,0.0,9e-08,0.0,0.0,0.0,9e-08
1532987361094351424,545,1532987361092478534,base_link,0.00878033028696,-0.170853843268,-0.985246162991,0.00467636099923,1.0,0.0,0.0,0.0,1.0,0.0,0.0,0.0,1.0,0.318611085415,-0.035604622215,-0.142277568579,1.21846967915e-07,0.0,0.0,0.0,1.21846967915e-07,0.0,0.0,0.0,1.21846967915e-07,0.7256921,0.4118793,8.8063717,9e-08,0.0,0.0,0.0,9e-08,0.0,0.0,0.0,9e-08
1532987361458462842,546,1532987361457061150,base_link,0.000280235462439,-0.194558192103,-0.980278126092,-0.0346673745532,1.0,0.0,0.0,0.0,1.0,0.0,0.0,0.0,1.0,0.103096604347,-0.10638718307,-0.218966662884,1.21846967915e-07,0.0,0.0,0.0,1.21846967915e-07,0.0,0.0,0.0,1.21846967915e-07,0.7453054,0.50013915,10.9246081,9e-08,0.0,0.0,0.0,9e-08,0.0,0.0,0.0,9e-08
1532987361912312967,547,1532987361911950920,base_link,-0.0274267873631,-0.233217564195,-0.96828964602,-0.0852789569346,1.0,0.0,0.0,0.0,1.0,0.0,0.0,0.0,1.0,0.317677021027,-0.183161437511,-0.224453404546,1.21846967915e-07,0.0,0.0,0.0,1.21846967915e-07,0.0,0.0,0.0,1.21846967915e-07,0.51975245,0.38245935,11.22861425,9e-08,0.0,0.0,0.0,9e-08,0.0,0.0,0.0,9e-08
1532987362220669192,548,1532987362220451529,base_link,-0.0520756638963,-0.272169642769,-0.952470425284,-0.126538135535,1.0,0.0,0.0,0.0,1.0,0.0,0.0,0.0,1.0,0.233258858323,-0.246528029442,-0.250361263752,1.21846967915e-07,0.0,0.0,0.0,1.21846967915e-07,0.0,0.0,0.0,1.21846967915e-07,0.22555295,0.63743225,10.71866845,9e-08,0.0,0.0,0.0,9e-08,0.0,0.0,0.0,9e-08
1532987362662028218,549,1532987362661687611,base_link,-0.0837883091417,-0.282513819467,-0.936593876505,-0.18962429052,1.0,0.0,0.0,0.0,1.0,0.0,0.0,0.0,1.0,-0.0511128529906,-0.214402586222,-0.254057437181,1.21846967915e-07,0.0,0.0,0.0,1.21846967915e-07,0.0,0.0,0.0,1.21846967915e-07,0.44129925,0.69627215,10.71866845,9e-08,0.0,0.0,0.0,9e-08,0.0,0.0,0.0,9e-08
1532987363013197083,550,1532987363012750876,base_link,-0.105631385861,-0.290779959331,-0.918054379101,-0.247921726731,1.0,0.0,0.0,0.0,1.0,0.0,0.0,0.0,1.0,0.205198764801,-0.22915828228,-0.348180562258,1.21846967915e-07,0.0,0.0,0.0,1.21846967915e-07,0.0,0.0,0.0,1.21846967915e-07,0.61781895,0.7649187,12.0425662,9e-08,0.0,0.0,0.0,9e-08,0.0,0.0,0.0,9e-08
1532987363402023531,551,1532987363401433165,base_link,-0.146749985328,-0.300380478735,-0.886819970808,-0.319039729779,1.0,0.0,0.0,0.0,1.0,0.0,0.0,0.0,1.0,0.0979460254312,-0.351228624582,-0.270848095417,1.21846967915e-07,0.0,0.0,0.0,1.21846967915e-07,0.0,0.0,0.0,1.21846967915e-07,0.8237586,0.3530394,13.77834325,9e-08,0.0,0.0,0.0,9e-08,0.0,0.0,0.0,9e-08
1532987363749774134,552,1532987363746511104,base_link,-0.181170232309,-0.294926750882,-0.863227393214,-0.367469762217,1.0,0.0,0.0,0.0,1.0,0.0,0.0,0.0,1.0,-0.0295786708593,-0.305715203285,-0.288539797068,1.21846967915e-07,0.0,0.0,0.0,1.21846967915e-07,0.0,0.0,0.0,1.21846967915e-07,0.3530394,0.91201845,13.54298365,9e-08,0.0,0.0,0.0,9e-08,0.0,0.0,0.0,9e-08
1532987364179371435,553,1532987364179120236,base_link,-0.200747382866,-0.269777556147,-0.825472702346,-0.453338037399,1.0,0.0,0.0,0.0,1.0,0.0,0.0,0.0,1.0,-0.0198430307209,-0.252606332302,-0.391967982054,1.21846967915e-07,0.0,0.0,0.0,1.21846967915e-07,0.0,0.0,0.0,1.21846967915e-07,0.0196133,0.87279185,11.50320045,9e-08,0.0,0.0,0.0,9e-08,0.0,0.0,0.0,9e-08
1532987364658399884,554,1532987364658064397,base_link,-0.242534477287,-0.266284886583,-0.76050965215,-0.54027257518,1.0,0.0,0.0,0.0,1.0,0.0,0.0,0.0,1.0,0.194939568639,-0.343513935804,-0.402245670557,1.21846967915e-07,0.0,0.0,0.0,1.21846967915e-07,0.0,0.0,0.0,1.21846967915e-07,0.7649187,0.588399,16.279039,9e-08,0.0,0.0,0.0,9e-08,0.0,0.0,0.0,9e-08
1532987364980593700,555,1532987364980261413,base_link,-0.276164658826,-0.248785694904,-0.715870655647,-0.591073568695,1.0,0.0,0.0,0.0,1.0,0.0,0.0,0.0,1.0,-0.550666213036,-0.383528918028,-0.217285364866,1.21846967915e-07,0.0,0.0,0.0,1.21846967915e-07,0.0,0.0,0.0,1.21846967915e-07,0.3530394,0.44129925,13.66066345,9e-08,0.0,0.0,0.0,9e-08,0.0,0.0,0.0,9e-08
1532987365346280761,556,1532987365345883835,base_link,-0.229714982004,-0.142213781297,-0.69939963392,-0.661699644495,1.0,0.0,0.0,0.0,1.0,0.0,0.0,0.0,1.0,-0.76529955864,-0.112013474107,-0.324302345514,1.21846967915e-07,0.0,0.0,0.0,1.21846967915e-07,0.0,0.0,0.0,1.21846967915e-07,0.4314926,1.1571847,12.552512,9e-08,0.0,0.0,0.0,9e-08,0.0,0.0,0.0,9e-08
1532987365621562046,557,1532987365621320031,base_link,-0.165577730338,-0.0808960347871,-0.677170533394,-0.712376245726,1.0,0.0,0.0,0.0,1.0,0.0,0.0,0.0,1.0,-0.689467310905,-0.0127557832748,-0.355930387974,1.21846967915e-07,0.0,0.0,0.0,1.21846967915e-07,0.0,0.0,0.0,1.21846967915e-07,0.1765197,0.7060788,10.58137535,9e-08,0.0,0.0,0.0,9e-08,0.0,0.0,0.0,9e-08
1532987365993387553,558,1532987365992835587,base_link,-0.095117056807,-0.0189555849333,-0.646752491584,-0.756508192906,1.0,0.0,0.0,0.0,1.0,0.0,0.0,0.0,1.0,-0.431795418262,0.0310836210847,-0.159163251519,1.21846967915e-07,0.0,0.0,0.0,1.21846967915e-07,0.0,0.0,0.0,1.21846967915e-07,0.28439285,-0.0784532,7.4922806,9e-08,0.0,0.0,0.0,9e-08,0.0,0.0,0.0,9e-08
1532987366401836118,559,1532987366401010009,base_link,-0.0488130356511,0.0191373551177,-0.642070681583,-0.764850501106,1.0,0.0,0.0,0.0,1.0,0.0,0.0,0.0,1.0,-0.190344810486,0.0135670509189,0.0205889753997,1.21846967915e-07,0.0,0.0,0.0,1.21846967915e-07,0.0,0.0,0.0,1.21846967915e-07,0.3726527,0.26477955,9.2574776,9e-08,0.0,0.0,0.0,9e-08,0.0,0.0,0.0,9e-08
1532987366783366524,560,1532987366782942205,base_link,0.0127327894273,0.0543946290767,-0.642774398417,-0.764015819954,1.0,0.0,0.0,0.0,1.0,0.0,0.0,0.0,1.0,-0.33383244276,0.126726418734,-0.0252451896667,1.21846967915e-07,0.0,0.0,0.0,1.21846967915e-07,0.0,0.0,0.0,1.21846967915e-07,0.59820565,0.3530394,7.71783355,9e-08,0.0,0.0,0.0,9e-08,0.0,0.0,0.0,9e-08
1532987367102145726,561,1532987367101359872,base_link,0.0306423395819,0.049800263733,-0.637549474413,-0.768187248288,1.0,0.0,0.0,0.0,1.0,0.0,0.0,0.0,1.0,0.0709309130907,0.101008698344,0.0445165783167,1.21846967915e-07,0.0,0.0,0.0,1.21846967915e-07,0.0,0.0,0.0,1.21846967915e-07,0.44129925,-0.04903325,7.5707338,9e-08,0.0,0.0,0.0,9e-08,0.0,0.0,0.0,9e-08
1532987367690353655,562,1532987367688587068,base_link,0.0678547151887,0.0754631957563,-0.675688180944,-0.730168833795,1.0,0.0,0.0,0.0,1.0,0.0,0.0,0.0,1.0,-0.0433641299605,-0.0129723763093,0.244083195925,1.21846967915e-07,0.0,0.0,0.0,1.21846967915e-07,0.0,0.0,0.0,1.21846967915e-07,1.2356379,-0.0784532,9.36535075,9e-08,0.0,0.0,0.0,9e-08,0.0,0.0,0.0,9e-08
1532987368119696301,563,1532987368119439790,base_link,0.0660608640944,0.0789061120754,-0.715987184,-0.690486886233,1.0,0.0,0.0,0.0,1.0,0.0,0.0,0.0,1.0,-0.1115231812,-0.0202408041805,0.209819659591,1.21846967915e-07,0.0,0.0,0.0,1.21846967915e-07,0.0,0.0,0.0,1.21846967915e-07,1.0198916,0.5687857,11.26784085,9e-08,0.0,0.0,0.0,9e-08,0.0,0.0,0.0,9e-08
1532987368562182651,564,1532987368561854396,base_link,0.0725313531341,0.0924259255071,-0.737878209692,-0.664629519934,1.0,0.0,0.0,0.0,1.0,0.0,0.0,0.0,1.0,0.00367070408538,-0.0355271957815,0.188435763121,1.21846967915e-07,0.0,0.0,0.0,1.21846967915e-07,0.0,0.0,0.0,1.21846967915e-07,0.4314926,-0.0392266,9.99297635,9e-08,0.0,0.0,0.0,9e-08,0.0,0.0,0.0,9e-08
1532987368909233385,565,1532987368909021449,base_link,0.0482573817219,0.0731275148276,-0.764787656151,-0.638297291773,1.0,0.0,0.0,0.0,1.0,0.0,0.0,0.0,1.0,0.337172567844,-0.105723820627,0.181583732367,1.21846967915e-07,0.0,0.0,0.0,1.21846967915e-07,0.0,0.0,0.0,1.21846967915e-07,0.28439285,0.196133,9.2967042,9e-08,0.0,0.0,0.0,9e-08,0.0,0.0,0.0,9e-08
1532987369360845692,566,1532987369360512573,base_link,-0.0129333747639,0.0264986998655,-0.786887845844,-0.616391162157,1.0,0.0,0.0,0.0,1.0,0.0,0.0,0.0,1.0,0.392127692699,-0.0742914825678,0.115820065141,1.21846967915e-07,0.0,0.0,0.0,1.21846967915e-07,0.0,0.0,0.0,1.21846967915e-07,0.392266,0.36284605,12.40541225,9e-08,0.0,0.0,0.0,9e-08,0.0,0.0,0.0,9e-08
1532987369919605645,567,1532987369919314286,base_link,-0.0789797595339,-0.0569823922931,-0.787021217428,-0.60919028872,1.0,0.0,0.0,0.0,1.0,0.0,0.0,0.0,1.0,-0.00631882855669,0.00863028783351,-0.0448353737593,1.21846967915e-07,0.0,0.0,0.0,1.21846967915e-07,0.0,0.0,0.0,1.21846967915e-07,-0.02941995,0.36284605,8.237586,9e-08,0.0,0.0,0.0,9e-08,0.0,0.0,0.0,9e-08
1532987370282435051,568,1532987370282066604,base_link,-0.109902314082,-0.0947342750589,-0.782273229192,-0.605801529693,1.0,0.0,0.0,0.0,1.0,0.0,0.0,0.0,1.0,0.412246674299,0.00155935715884,0.00618748320267,1.21846967915e-07,0.0,0.0,0.0,1.21846967915e-07,0.0,0.0,0.0,1.21846967915e-07,-0.02941995,0.00980665,8.52197885,9e-08,0.0,0.0,0.0,9e-08,0.0,0.0,0.0,9e-08
1532987370678351846,569,1532987370678130950,base_link,-0.110859218081,-0.101081675319,-0.776135332684,-0.612459528493,1.0,0.0,0.0,0.0,1.0,0.0,0.0,0.0,1.0,-0.211604595184,0.0428248010576,-0.120453566313,1.21846967915e-07,0.0,0.0,0.0,1.21846967915e-07,0.0,0.0,0.0,1.21846967915e-07,0.26477955,0.75511205,8.73772515,9e-08,0.0,0.0,0.0,9e-08,0.0,0.0,0.0,9e-08
1532987371096854300,570,1532987371096499613,base_link,-0.0850905855874,-0.100630174243,-0.752488512636,-0.645286137018,1.0,0.0,0.0,0.0,1.0,0.0,0.0,0.0,1.0,-0.0737456381321,0.046713322401,-0.276812076569,1.21846967915e-07,0.0,0.0,0.0,1.21846967915e-07,0.0,0.0,0.0,1.21846967915e-07,0.08825985,0.6864655,7.36479415,9e-08,0.0,0.0,0.0,9e-08,0.0,0.0,0.0,9e-08
1532987371535582134,571,1532987371535288791,base_link,-0.0960869371853,-0.109827018975,-0.728665004329,-0.66914321178,1.0,0.0,0.0,0.0,1.0,0.0,0.0,0.0,1.0,-0.0473069921136,-0.113036036491,-0.00628625229001,1.21846967915e-07,0.0,0.0,0.0,1.21846967915e-07,0.0,0.0,0.0,1.21846967915e-07,0.55897905,0.6864655,12.3367657,9e-08,0.0,0.0,0.0,9e-08,0.0,0.0,0.0,9e-08
1532987371947089474,572,1532987371944257546,base_link,-0.069124025908,-0.0741367820196,-0.717502990062,-0.689140817139,1.0,0.0,0.0,0.0,1.0,0.0,0.0,0.0,1.0,-0.197144478559,-0.011595861055,-0.213924512267,1.21846967915e-07,0.0,0.0,0.0,1.21846967915e-07,0.0,0.0,0.0,1.21846967915e-07,0.18632635,0.6668522,9.16921775,9e-08,0.0,0.0,0.0,9e-08,0.0,0.0,0.0,9e-08
1532987372286520582,573,1532987372285935304,base_link,-0.0515766979655,-0.0457269779276,-0.695594348382,-0.715120542437,1.0,0.0,0.0,0.0,1.0,0.0,0.0,0.0,1.0,-0.295980006456,-0.12423966825,-0.146724238992,1.21846967915e-07,0.0,0.0,0.0,1.21846967915e-07,0.0,0.0,0.0,1.21846967915e-07,0.24516625,0.32361945,10.8657682,9e-08,0.0,0.0,0.0,9e-08,0.0,0.0,0.0,9e-08
1532987372644053876,574,1532987372643768981,base_link,-0.0523668546061,-0.0131769240728,-0.69121421194,-0.720629581979,1.0,0.0,0.0,0.0,1.0,0.0,0.0,0.0,1.0,-0.05694469437,-0.144921213388,0.0653723627329,1.21846967915e-07,0.0,0.0,0.0,1.21846967915e-07,0.0,0.0,0.0,1.21846967915e-07,0.5687857,0.3138128,13.1801376,9e-08,0.0,0.0,0.0,9e-08,0.0,0.0,0.0,9e-08
1532987373083126060,575,1532987373082544622,base_link,-0.0302207373045,0.0275049446768,-0.699274254867,-0.713684595276,1.0,0.0,0.0,0.0,1.0,0.0,0.0,0.0,1.0,-0.210133031011,-0.0081061385572,-0.0455782599747,1.21846967915e-07,0.0,0.0,0.0,1.21846967915e-07,0.0,0.0,0.0,1.21846967915e-07,0.0784532,0.53936575,10.20872265,9e-08,0.0,0.0,0.0,9e-08,0.0,0.0,0.0,9e-08
1532987373405170821,576,1532987373404911814,base_link,-0.0197551121474,0.039655975582,-0.697303728901,-0.71540523398,1.0,0.0,0.0,0.0,1.0,0.0,0.0,0.0,1.0,-0.14505828917,-0.0148482387885,0.0303666312248,1.21846967915e-07,0.0,0.0,0.0,1.21846967915e-07,0.0,0.0,0.0,1.21846967915e-07,-0.0392266,-0.00980665,9.62032365,9e-08,0.0,0.0,0.0,9e-08,0.0,0.0,0.0,9e-08
1532987373795035026,577,1532987373794599603,base_link,-0.0119165159858,0.04788314303,-0.708222598645,-0.704262701007,1.0,0.0,0.0,0.0,1.0,0.0,0.0,0.0,1.0,0.0378551036119,0.00459372950718,0.0979381129146,1.21846967915e-07,0.0,0.0,0.0,1.21846967915e-07,0.0,0.0,0.0,1.21846967915e-07,0.32361945,0.04903325,10.002783,9e-08,0.0,0.0,0.0,9e-08,0.0,0.0,0.0,9e-08
1532987374193207685,578,1532987374192192456,base_link,-0.0403469194,0.0123480888191,-0.725091324954,-0.687358873714,1.0,0.0,0.0,0.0,1.0,0.0,0.0,0.0,1.0,0.424298495054,-0.0107785817236,0.0639035329223,1.21846967915e-07,0.0,0.0,0.0,1.21846967915e-07,0.0,0.0,0.0,1.21846967915e-07,0.40207265,0.20593965,8.8652116,9e-08,0.0,0.0,0.0,9e-08,0.0,0.0,0.0,9e-08
1532987374553355595,579,1532987374553074732,base_link,-0.0714503664135,-0.0305351352994,-0.722074472202,-0.68743792974,1.0,0.0,0.0,0.0,1.0,0.0,0.0,0.0,1.0,0.214601948857,0.0579797402024,-0.093546628952,1.21846967915e-07,0.0,0.0,0.0,1.21846967915e-07,0.0,0.0,0.0,1.21846967915e-07,0.61781895,0.2549729,8.1002929,9e-08,0.0,0.0,0.0,9e-08,0.0,0.0,0.0,9e-08
1532987374855390304,580,1532987374854411459,base_link,-0.0966052454544,-0.0712956127299,-0.712877392499,-0.690934284444,1.0,0.0,0.0,0.0,1.0,0.0,0.0,0.0,1.0,0.321896135807,0.0569225214422,-0.0427889786661,1.21846967915e-07,0.0,0.0,0.0,1.21846967915e-07,0.0,0.0,0.0,1.21846967915e-07,0.392266,0.46091255,9.14960445,9e-08,0.0,0.0,0.0,9e-08,0.0,0.0,0.0,9e-08
1532987375253384596,581,1532987375252846134,base_link,-0.134970508942,-0.133487034313,-0.681902950712,-0.706379883063,1.0,0.0,0.0,0.0,1.0,0.0,0.0,0.0,1.0,0.434542953968,0.0331508480012,-0.356659948826,1.21846967915e-07,0.0,0.0,0.0,1.21846967915e-07,0.0,0.0,0.0,1.21846967915e-07,0.28439285,0.42168595,5.7859235,9e-08,0.0,0.0,0.0,9e-08,0.0,0.0,0.0,9e-08
1532987375754842321,582,1532987375753069783,base_link,-0.230352574697,-0.201541640618,-0.602833564261,-0.736824505718,1.0,0.0,0.0,0.0,1.0,0.0,0.0,0.0,1.0,0.29176312685,-0.213450223207,-0.236296147108,1.21846967915e-07,0.0,0.0,0.0,1.21846967915e-07,0.0,0.0,0.0,1.21846967915e-07,1.08853815,0.6276256,9.26728425,9e-08,0.0,0.0,0.0,9e-08,0.0,0.0,0.0,9e-08
1532987376191721073,583,1532987376191453554,base_link,-0.290419061268,-0.20626609825,-0.521380491382,-0.77541824119,1.0,0.0,0.0,0.0,1.0,0.0,0.0,0.0,1.0,0.266592264175,-0.329502403736,-0.409007698298,1.21846967915e-07,0.0,0.0,0.0,1.21846967915e-07,0.0,0.0,0.0,1.21846967915e-07,1.99074995,0.9610517,10.97364135,9e-08,0.0,0.0,0.0,9e-08,0.0,0.0,0.0,9e-08
1532987376681152178,584,1532987376680897107,base_link,-0.363155542586,-0.166896806559,-0.415336500127,-0.81716528286,1.0,0.0,0.0,0.0,1.0,0.0,0.0,0.0,1.0,0.0134121850133,-0.530850410461,-0.23311881721,1.21846967915e-07,0.0,0.0,0.0,1.21846967915e-07,0.0,0.0,0.0,1.21846967915e-07,2.3732093,1.2552512,14.54326195,9e-08,0.0,0.0,0.0,9e-08,0.0,0.0,0.0,9e-08
1532987377071231454,585,1532987377070966367,base_link,-0.372929624775,-0.0935881761432,-0.331860922341,-0.861413417863,1.0,0.0,0.0,0.0,1.0,0.0,0.0,0.0,1.0,-0.079307757318,-0.449794054031,-0.365673333406,1.21846967915e-07,0.0,0.0,0.0,1.21846967915e-07,0.0,0.0,0.0,1.21846967915e-07,2.3143694,1.4709975,15.0434011,9e-08,0.0,0.0,0.0,9e-08,0.0,0.0,0.0,9e-08
1532987377564776916,586,1532987377564539060,base_link,-0.380457676561,-0.0208515027962,-0.206607282359,-0.901182890458,1.0,0.0,0.0,0.0,1.0,0.0,0.0,0.0,1.0,-0.257904469967,-0.467242568731,-0.382768511772,1.21846967915e-07,0.0,0.0,0.0,1.21846967915e-07,0.0,0.0,0.0,1.21846967915e-07,2.3928226,0.9414384,17.6127434,9e-08,0.0,0.0,0.0,9e-08,0.0,0.0,0.0,9e-08
1532987378045600751,587,1532987378045286064,base_link,-0.330120014649,0.0582308744346,-0.0814137055866,-0.938616934502,1.0,0.0,0.0,0.0,1.0,0.0,0.0,0.0,1.0,-0.397170335054,-0.367013454437,-0.361726492643,1.21846967915e-07,0.0,0.0,0.0,1.21846967915e-07,0.0,0.0,0.0,1.21846967915e-07,1.1571847,0.42168595,14.2980957,9e-08,0.0,0.0,0.0,9e-08,0.0,0.0,0.0,9e-08
1532987378490298391,588,1532987378489198234,base_link,-0.261157803464,0.113263759303,-0.00401438208526,-0.958619740698,1.0,0.0,0.0,0.0,1.0,0.0,0.0,0.0,1.0,-0.594880223274,-0.307056903839,-0.0443870015442,1.21846967915e-07,0.0,0.0,0.0,1.21846967915e-07,0.0,0.0,0.0,1.21846967915e-07,1.48080415,0.3138128,12.30734575,9e-08,0.0,0.0,0.0,9e-08,0.0,0.0,0.0,9e-08
1532987378869502948,589,1532987378869212932,base_link,-0.142375605513,0.122979026672,0.0374555128625,-0.981428769962,1.0,0.0,0.0,0.0,1.0,0.0,0.0,0.0,1.0,-0.612486124039,0.0363663136959,-0.147660434246,1.21846967915e-07,0.0,0.0,0.0,1.21846967915e-07,0.0,0.0,0.0,1.21846967915e-07,1.65732385,0.4707192,9.8458766,9e-08,0.0,0.0,0.0,9e-08,0.0,0.0,0.0,9e-08
1532987379384195705,590,1532987379383870810,base_link,-0.0333455207234,0.0952373707991,0.0851123342478,-0.991248611606,1.0,0.0,0.0,0.0,1.0,0.0,0.0,0.0,1.0,-0.258459836245,0.0903137624264,-0.0521436147392,1.21846967915e-07,0.0,0.0,0.0,1.21846967915e-07,0.0,0.0,0.0,1.21846967915e-07,1.61809725,-0.1569064,8.44352565,9e-08,0.0,0.0,0.0,9e-08,0.0,0.0,0.0,9e-08
1532987379831704857,591,1532987379829441151,base_link,0.0174062989227,0.0754460385908,0.0771808146648,-0.994006055246,1.0,0.0,0.0,0.0,1.0,0.0,0.0,0.0,1.0,-0.234429731965,0.10343324393,0.117020778358,1.21846967915e-07,0.0,0.0,0.0,1.21846967915e-07,0.0,0.0,0.0,1.21846967915e-07,1.8044236,0.63743225,8.30623255,9e-08,0.0,0.0,0.0,9e-08,0.0,0.0,0.0,9e-08
1532987380115043877,592,1532987380114646023,base_link,0.0393072410881,0.0592179892488,0.0694613639496,-0.995049390465,1.0,0.0,0.0,0.0,1.0,0.0,0.0,0.0,1.0,0.0292645096779,0.102754242718,0.0586817786098,1.21846967915e-07,0.0,0.0,0.0,1.21846967915e-07,0.0,0.0,0.0,1.21846967915e-07,1.59848395,0.5687857,9.12999115,9e-08,0.0,0.0,0.0,9e-08,0.0,0.0,0.0,9e-08
1532987380477927395,593,1532987380477579844,base_link,0.0278916746676,0.0406424699448,0.0654077348778,-0.996640392689,1.0,0.0,0.0,0.0,1.0,0.0,0.0,0.0,1.0,0.067609526217,0.106935508549,-0.0170776173472,1.21846967915e-07,0.0,0.0,0.0,1.21846967915e-07,0.0,0.0,0.0,1.21846967915e-07,1.65732385,0.22555295,7.7472535,9e-08,0.0,0.0,0.0,9e-08,0.0,0.0,0.0,9e-08
1532987380835820240,594,1532987380833354551,base_link,-0.00873763555423,0.0329275957453,0.0665662091575,-0.997200264221,1.0,0.0,0.0,0.0,1.0,0.0,0.0,0.0,1.0,0.16385294497,0.0700291395187,0.0288133826107,1.21846967915e-07,0.0,0.0,0.0,1.21846967915e-07,0.0,0.0,0.0,1.21846967915e-07,1.6082906,0.18632635,9.01231135,9e-08,0.0,0.0,0.0,9e-08,0.0,0.0,0.0,9e-08
1532987381150356607,595,1532987381150066368,base_link,-0.0250031053474,0.0250902955552,0.0491322615643,-0.998163985859,1.0,0.0,0.0,0.0,1.0,0.0,0.0,0.0,1.0,-0.0736508220434,0.0348670110106,0.0913238152862,1.21846967915e-07,0.0,0.0,0.0,1.21846967915e-07,0.0,0.0,0.0,1.21846967915e-07,1.2552512,0.59820565,8.20816605,9e-08,0.0,0.0,0.0,9e-08,0.0,0.0,0.0,9e-08
1532987381481590300,596,1532987381481147549,base_link,0.000857953628739,0.0172107827223,0.0465615250211,-0.998766778213,1.0,0.0,0.0,0.0,1.0,0.0,0.0,0.0,1.0,-0.0675954297185,0.046011313796,-0.0200733728707,1.21846967915e-07,0.0,0.0,0.0,1.21846967915e-07,0.0,0.0,0.0,1.21846967915e-07,1.4317709,0.36284605,9.022118,9e-08,0.0,0.0,0.0,9e-08,0.0,0.0,0.0,9e-08
1532987381957274822,597,1532987381955431948,base_link,-0.0199029592933,0.015824484211,0.0543443756918,-0.998198450581,1.0,0.0,0.0,0.0,1.0,0.0,0.0,0.0,1.0,0.11488648504,-0.026421841234,-0.00216097338125,1.21846967915e-07,0.0,0.0,0.0,1.21846967915e-07,0.0,0.0,0.0,1.21846967915e-07,1.2160246,0.18632635,9.5124505,9e-08,0.0,0.0,0.0,9e-08,0.0,0.0,0.0,9e-08
1532987382244551783,598,1532987382244255144,base_link,-0.0214073184624,0.0220396448461,0.0522797791862,-0.998159709395,1.0,0.0,0.0,0.0,1.0,0.0,0.0,0.0,1.0,0.0293037220836,-0.052457280457,-0.00814784597605,1.21846967915e-07,0.0,0.0,0.0,1.21846967915e-07,0.0,0.0,0.0,1.21846967915e-07,0.95124505,0.2157463,10.65982855,9e-08,0.0,0.0,0.0,9e-08,0.0,0.0,0.0,9e-08
1532987382790525343,599,1532987382790242624,base_link,-0.0455252886199,0.0336717552546,0.0552191783698,-0.996867344903,1.0,0.0,0.0,0.0,1.0,0.0,0.0,0.0,1.0,0.137991413474,-0.0353090874851,0.0118233356625,1.21846967915e-07,0.0,0.0,0.0,1.21846967915e-07,0.0,0.0,0.0,1.21846967915e-07,0.71588545,0.18632635,10.58137535,9e-08,0.0,0.0,0.0,9e-08,0.0,0.0,0.0,9e-08
1532987383139556102,600,1532987383139311655,base_link,-0.055692216207,0.0440433019824,0.053113762795,-0.996060988497,1.0,0.0,0.0,0.0,1.0,0.0,0.0,0.0,1.0,-0.044061858207,-0.040464643389,0.0213954728097,1.21846967915e-07,0.0,0.0,0.0,1.21846967915e-07,0.0,0.0,0.0,1.21846967915e-07,0.89240515,0.0784532,10.7480884,9e-08,0.0,0.0,0.0,9e-08,0.0,0.0,0.0,9e-08
1532987383468154347,601,1532987383467413165,base_link,-0.0603914788548,0.0446076920117,0.0624849809807,-0.995217890839,1.0,0.0,0.0,0.0,1.0,0.0,0.0,0.0,1.0,-0.0339835658669,0.0354501381516,-0.0789760798216,1.21846967915e-07,0.0,0.0,0.0,1.21846967915e-07,0.0,0.0,0.0,1.21846967915e-07,0.73549875,0.28439285,9.52225715,9e-08,0.0,0.0,0.0,9e-08,0.0,0.0,0.0,9e-08
1532987383907024037,602,1532987383906710150,base_link,-0.0644032956793,0.0414745516632,0.0754443790981,-0.994203310562,1.0,0.0,0.0,0.0,1.0,0.0,0.0,0.0,1.0,-0.0355650410056,0.0287712272257,0.0125626847148,1.21846967915e-07,0.0,0.0,0.0,1.21846967915e-07,0.0,0.0,0.0,1.21846967915e-07,0.59820565,-0.1372931,9.40457735,9e-08,0.0,0.0,0.0,9e-08,0.0,0.0,0.0,9e-08
1532987384259536321,603,1532987384258981635,base_link,-0.0541869579859,0.0387894114193,0.0726052195439,-0.995131969761,1.0,0.0,0.0,0.0,1.0,0.0,0.0,0.0,1.0,-0.0611337460577,0.0310999304056,-0.00756518868729,1.21846967915e-07,0.0,0.0,0.0,1.21846967915e-07,0.0,0.0,0.0,1.21846967915e-07,0.44129925,0.57859235,10.395049,9e-08,0.0,0.0,0.0,9e-08,0.0,0.0,0.0,9e-08
1532987384755624111,604,1532987384755337520,base_link,-0.0450240012566,0.0297562107634,0.0861980282766,-0.994815212566,1.0,0.0,0.0,0.0,1.0,0.0,0.0,0.0,1.0,0.00852099061012,0.00717463623732,-0.0180030912161,1.21846967915e-07,0.0,0.0,0.0,1.21846967915e-07,0.0,0.0,0.0,1.21846967915e-07,0.5295591,0.14709975,9.4928372,9e-08,0.0,0.0,0.0,9e-08,0.0,0.0,0.0,9e-08
1532987385157545271,605,1532987385157274456,base_link,-0.0391181139639,0.0235618055192,0.0844594038997,-0.995379939306,1.0,0.0,0.0,0.0,1.0,0.0,0.0,0.0,1.0,-0.0330109074712,0.0215313173831,-0.0103160962462,1.21846967915e-07,0.0,0.0,0.0,1.21846967915e-07,0.0,0.0,0.0,1.21846967915e-07,0.22555295,0.392266,9.8851032,9e-08,0.0,0.0,0.0,9e-08,0.0,0.0,0.0,9e-08
1532987385544928588,606,1532987385543326640,base_link,-0.033390552958,0.0157219705277,0.0845822708442,-0.99573276037,1.0,0.0,0.0,0.0,1.0,0.0,0.0,0.0,1.0,0.124184884131,0.0485442653298,0.0209760349244,1.21846967915e-07,0.0,0.0,0.0,1.21846967915e-07,0.0,0.0,0.0,1.21846967915e-07,0.392266,0.20593965,8.8063717,9e-08,0.0,0.0,0.0,9e-08,0.0,0.0,0.0,9e-08
1532987386004505959,607,1532987386003799369,base_link,-0.0308411681147,0.0012656998228,0.0782620377308,-0.996454852868,1.0,0.0,0.0,0.0,1.0,0.0,0.0,0.0,1.0,-0.130802884698,0.0303040035069,-0.00172104872763,1.21846967915e-07,0.0,0.0,0.0,1.21846967915e-07,0.0,0.0,0.0,1.21846967915e-07,0.16671305,0.26477955,7.9041599,9e-08,0.0,0.0,0.0,9e-08,0.0,0.0,0.0,9e-08
1532987386395651184,608,1532987386395115601,base_link,0.00698986419431,-0.0103414471414,0.0752045550128,-0.997090001542,1.0,0.0,0.0,0.0,1.0,0.0,0.0,0.0,1.0,-0.0191182792187,0.0524430312216,-0.0044255242683,1.21846967915e-07,0.0,0.0,0.0,1.21846967915e-07,0.0,0.0,0.0,1.21846967915e-07,0.36284605,0.26477955,8.9828914,9e-08,0.0,0.0,0.0,9e-08,0.0,0.0,0.0,9e-08
1532987386713382869,609,1532987386711500379,base_link,0.00104079067331,-0.0192623914219,0.0737513377012,-0.997090074777,1.0,0.0,0.0,0.0,1.0,0.0,0.0,0.0,1.0,0.131788626313,0.0132278744131,0.058762807399,1.21846967915e-07,0.0,0.0,0.0,1.21846967915e-07,0.0,0.0,0.0,1.21846967915e-07,0.392266,-0.04903325,8.5121722,9e-08,0.0,0.0,0.0,9e-08,0.0,0.0,0.0,9e-08
1532987386989874102,610,1532987386989585079,base_link,-0.0135566724579,-0.0222675779107,0.0668276102464,-0.997423902919,1.0,0.0,0.0,0.0,1.0,0.0,0.0,0.0,1.0,0.0766252726316,-0.0100847892463,0.0220514070243,1.21846967915e-07,0.0,0.0,0.0,1.21846967915e-07,0.0,0.0,0.0,1.21846967915e-07,0.73549875,0.14709975,10.32640245,9e-08,0.0,0.0,0.0,9e-08,0.0,0.0,0.0,9e-08
1532987387391136641,611,1532987387388773768,base_link,-0.00303895510798,-0.0247569872621,0.0673116856191,-0.997420168892,1.0,0.0,0.0,0.0,1.0,0.0,0.0,0.0,1.0,-0.112379401922,0.0064358105883,-0.00798429828137,1.21846967915e-07,0.0,0.0,0.0,1.21846967915e-07,0.0,0.0,0.0,1.21846967915e-07,0.0980665,0.40207265,9.5712904,9e-08,0.0,0.0,0.0,9e-08,0.0,0.0,0.0,9e-08
1532987387972123183,612,1532987387971664433,base_link,-0.0158155028505,-0.0178384227684,0.0716443887523,-0.997145296385,1.0,0.0,0.0,0.0,1.0,0.0,0.0,0.0,1.0,0.259538501501,-0.0493505634367,0.0213149636984,1.21846967915e-07,0.0,0.0,0.0,1.21846967915e-07,0.0,0.0,0.0,1.21846967915e-07,-0.40207265,-0.12748645,11.2384209,9e-08,0.0,0.0,0.0,9e-08,0.0,0.0,0.0,9e-08
1532987388248119090,613,1532987388247734835,base_link,-0.114226464293,-0.00383863741285,0.0798357031797,-0.990234235025,1.0,0.0,0.0,0.0,1.0,0.0,0.0,0.0,1.0,0.784487366676,-0.048348326236,-0.114168040454,1.21846967915e-07,0.0,0.0,0.0,1.21846967915e-07,0.0,0.0,0.0,1.21846967915e-07,-0.9610517,0.9610517,9.8262633,9e-08,0.0,0.0,0.0,9e-08,0.0,0.0,0.0,9e-08
1532987388643280335,614,1532987388642858640,base_link,-0.241285863705,0.00543817288881,0.105825266326,-0.964651528407,1.0,0.0,0.0,0.0,1.0,0.0,0.0,0.0,1.0,0.440036565065,0.000434157438576,-0.159840151668,1.21846967915e-07,0.0,0.0,0.0,1.21846967915e-07,0.0,0.0,0.0,1.21846967915e-07,-1.24544455,0.06864655,8.79656505,9e-08,0.0,0.0,0.0,9e-08,0.0,0.0,0.0,9e-08
1532987389074841662,615,1532987389073683234,base_link,-0.310318828505,0.00654800922446,0.15277383617,-0.938253432305,1.0,0.0,0.0,0.0,1.0,0.0,0.0,0.0,1.0,0.231193184853,-0.0422774106264,-0.319636374712,1.21846967915e-07,0.0,0.0,0.0,1.21846967915e-07,0.0,0.0,0.0,1.21846967915e-07,-1.2552512,0.32361945,8.73772515,9e-08,0.0,0.0,0.0,9e-08,0.0,0.0,0.0,9e-08
1532987389532326656,616,1532987389531799969,base_link,-0.357443344845,0.0147256859354,0.237088078431,-0.903220157252,1.0,0.0,0.0,0.0,1.0,0.0,0.0,0.0,1.0,0.206647470593,-0.187846958637,-0.364416509867,1.21846967915e-07,0.0,0.0,0.0,1.21846967915e-07,0.0,0.0,0.0,1.21846967915e-07,-1.176798,0.1765197,9.65955025,9e-08,0.0,0.0,0.0,9e-08,0.0,0.0,0.0,9e-08
1532987389895561084,617,1532987389895278877,base_link,-0.376879795126,0.0367062382863,0.310845718321,-0.871773601056,1.0,0.0,0.0,0.0,1.0,0.0,0.0,0.0,1.0,0.102835431695,-0.284688353539,-0.309937059879,1.21846967915e-07,0.0,0.0,0.0,1.21846967915e-07,0.0,0.0,0.0,1.21846967915e-07,-1.04931155,0.08825985,10.26756255,9e-08,0.0,0.0,0.0,9e-08,0.0,0.0,0.0,9e-08
1532987390291642806,618,1532987390291394583,base_link,-0.363058689255,0.0642264292952,0.384368280981,-0.846359485392,1.0,0.0,0.0,0.0,1.0,0.0,0.0,0.0,1.0,-0.0410527847707,-0.304931432009,-0.30726775527,1.21846967915e-07,0.0,0.0,0.0,1.21846967915e-07,0.0,0.0,0.0,1.21846967915e-07,-0.99047165,0.38245935,11.36590735,9e-08,0.0,0.0,0.0,9e-08,0.0,0.0,0.0,9e-08
1532987390707763220,619,1532987390707492341,base_link,-0.332507424259,0.0963289349955,0.46494146391,-0.814855192186,1.0,0.0,0.0,0.0,1.0,0.0,0.0,0.0,1.0,-0.101851522923,-0.311554640532,-0.293321490288,1.21846967915e-07,0.0,0.0,0.0,1.21846967915e-07,0.0,0.0,0.0,1.21846967915e-07,-0.9610517,0.2941995,11.34629405,9e-08,0.0,0.0,0.0,9e-08,0.0,0.0,0.0,9e-08
1532987391086964737,620,1532987391085326566,base_link,-0.308208196811,0.123596393644,0.529598236118,-0.780549388057,1.0,0.0,0.0,0.0,1.0,0.0,0.0,0.0,1.0,-0.0565860755742,-0.290502130985,-0.316718757153,1.21846967915e-07,0.0,0.0,0.0,1.21846967915e-07,0.0,0.0,0.0,1.21846967915e-07,-0.79433865,0.36284605,12.73883835,9e-08,0.0,0.0,0.0,9e-08,0.0,0.0,0.0,9e-08
1532987391486055346,621,1532987391485714739,base_link,-0.283761762519,0.155312630424,0.606986511774,-0.725895738717,1.0,0.0,0.0,0.0,1.0,0.0,0.0,0.0,1.0,0.0430462583899,-0.303339928389,-0.364502936602,1.21846967915e-07,0.0,0.0,0.0,1.21846967915e-07,0.0,0.0,0.0,1.21846967915e-07,-0.53936575,0.6080123,14.13138265,9e-08,0.0,0.0,0.0,9e-08,0.0,0.0,0.0,9e-08
1532987391806260784,622,1532987391805085619,base_link,-0.270541288372,0.183921403367,0.660464811231,-0.675845072332,1.0,0.0,0.0,0.0,1.0,0.0,0.0,0.0,1.0,0.0914156585932,-0.341501921415,-0.372327238321,1.21846967915e-07,0.0,0.0,0.0,1.21846967915e-07,0.0,0.0,0.0,1.21846967915e-07,-0.63743225,0.57859235,13.64105015,9e-08,0.0,0.0,0.0,9e-08,0.0,0.0,0.0,9e-08
1532987392100480476,623,1532987392098658273,base_link,0.246273153353,-0.202062420617,-0.711965600786,0.62579972468,1.0,0.0,0.0,0.0,1.0,0.0,0.0,0.0,1.0,-0.130262672901,-0.358067184687,-0.349828779697,1.21846967915e-07,0.0,0.0,0.0,1.21846967915e-07,0.0,0.0,0.0,1.21846967915e-07,-0.9414384,0.18632635,13.7881499,9e-08,0.0,0.0,0.0,9e-08,0.0,0.0,0.0,9e-08
1532987392488644877,624,1532987392488153263,base_link,0.199923554602,-0.203763374806,-0.771708048485,0.568311311964,1.0,0.0,0.0,0.0,1.0,0.0,0.0,0.0,1.0,-0.267267405987,-0.279319822788,-0.336652517319,1.21846967915e-07,0.0,0.0,0.0,1.21846967915e-07,0.0,0.0,0.0,1.21846967915e-07,-0.7453054,0.18632635,13.48414375,9e-08,0.0,0.0,0.0,9e-08,0.0,0.0,0.0,9e-08
1532987392845061023,625,1532987392844755616,base_link,0.128588676513,-0.139675795275,-0.829552407236,0.52516514368,1.0,0.0,0.0,0.0,1.0,0.0,0.0,0.0,1.0,-0.545420706272,-0.127197682858,-0.31790715456,1.21846967915e-07,0.0,0.0,0.0,1.21846967915e-07,0.0,0.0,0.0,1.21846967915e-07,-0.6276256,0.0392266,11.3953273,9e-08,0.0,0.0,0.0,9e-08,0.0,0.0,0.0,9e-08
1532987393311050471,626,1532987393310074026,base_link,0.0706785334435,-0.063843222009,-0.865561824853,0.491661789517,1.0,0.0,0.0,0.0,1.0,0.0,0.0,0.0,1.0,-0.471981108189,-0.030765702948,-0.0690302327275,1.21846967915e-07,0.0,0.0,0.0,1.21846967915e-07,0.0,0.0,0.0,1.21846967915e-07,-0.7060788,-0.2157463,9.80665,9e-08,0.0,0.0,0.0,9e-08,0.0,0.0,0.0,9e-08
1532987393581235675,627,1532987393580880636,base_link,0.0428646472354,-0.0041070630332,-0.870885551609,0.489595864004,1.0,0.0,0.0,0.0,1.0,0.0,0.0,0.0,1.0,-0.468498528004,0.0872210860252,0.00319516588934,1.21846967915e-07,0.0,0.0,0.0,1.21846967915e-07,0.0,0.0,0.0,1.21846967915e-07,-0.7453054,0.06864655,8.18855275,9e-08,0.0,0.0,0.0,9e-08,0.0,0.0,0.0,9e-08
1532987394155200350,628,1532987394154962911,base_link,0.00848781882661,0.121258969919,-0.861036496354,0.493801955335,1.0,0.0,0.0,0.0,1.0,0.0,0.0,0.0,1.0,-0.400073707104,0.10507132113,0.0491326488554,1.21846967915e-07,0.0,0.0,0.0,1.21846967915e-07,0.0,0.0,0.0,1.21846967915e-07,-0.95124505,0.0588399,7.4138274,9e-08,0.0,0.0,0.0,9e-08,0.0,0.0,0.0,9e-08
1532987394549756189,629,1532987394549390238,base_link,0.00243441189305,0.170913477637,-0.84955438734,0.499039076378,1.0,0.0,0.0,0.0,1.0,0.0,0.0,0.0,1.0,-0.15076482296,0.0425876192749,0.0719460695982,1.21846967915e-07,0.0,0.0,0.0,1.21846967915e-07,0.0,0.0,0.0,1.21846967915e-07,-1.0198916,-0.02941995,7.34518085,9e-08,0.0,0.0,0.0,9e-08,0.0,0.0,0.0,9e-08
1532987394880134876,630,1532987394879889501,base_link,0.00911908388141,0.167140433987,-0.842417673633,0.512165384214,1.0,0.0,0.0,0.0,1.0,0.0,0.0,0.0,1.0,0.0439812317491,-0.0210469476879,0.138384357095,1.21846967915e-07,0.0,0.0,0.0,1.21846967915e-07,0.0,0.0,0.0,1.21846967915e-07,-0.67665885,-0.40207265,10.07142955,9e-08,0.0,0.0,0.0,9e-08,0.0,0.0,0.0,9e-08
1532987395282339716,631,1532987395282038149,base_link,0.00457364606413,0.17571713853,-0.818090400735,0.547567954882,1.0,0.0,0.0,0.0,1.0,0.0,0.0,0.0,1.0,-0.134183168411,-0.0700983405113,0.246029168367,1.21846967915e-07,0.0,0.0,0.0,1.21846967915e-07,0.0,0.0,0.0,1.21846967915e-07,-0.83356525,-0.10787315,9.6301303,9e-08,0.0,0.0,0.0,9e-08,0.0,0.0,0.0,9e-08
1532987395700371772,632,1532987395700025309,base_link,-0.022383224071,0.190885184838,-0.784669387287,0.589368976232,1.0,0.0,0.0,0.0,1.0,0.0,0.0,0.0,1.0,-0.148605853319,-0.083958402276,0.156147584319,1.21846967915e-07,0.0,0.0,0.0,1.21846967915e-07,0.0,0.0,0.0,1.21846967915e-07,-1.0395049,0.1569064,10.11065615,9e-08,0.0,0.0,0.0,9e-08,0.0,0.0,0.0,9e-08
1532987396036469834,633,1532987396035289166,base_link,-0.0353230099588,0.182568559994,-0.769868798141,0.610510474536,1.0,0.0,0.0,0.0,1.0,0.0,0.0,0.0,1.0,0.0912022441626,-0.144886285067,0.122837953269,1.21846967915e-07,0.0,0.0,0.0,1.21846967915e-07,0.0,0.0,0.0,1.21846967915e-07,-0.9218251,-0.32361945,10.30678915,9e-08,0.0,0.0,0.0,9e-08,0.0,0.0,0.0,9e-08
1532987396486113699,634,1532987396484814535,base_link,-0.0488639322132,0.162587534257,-0.742861646692,0.647560177672,1.0,0.0,0.0,0.0,1.0,0.0,0.0,0.0,1.0,-0.394902855158,-0.128948435187,0.275438547134,1.21846967915e-07,0.0,0.0,0.0,1.21846967915e-07,0.0,0.0,0.0,1.21846967915e-07,-0.48052585,0.0196133,11.9248864,9e-08,0.0,0.0,0.0,9e-08,0.0,0.0,0.0,9e-08
1532987396851029243,635,1532987396850702940,base_link,-0.0802502703831,0.175580116871,-0.707906449963,0.679411491486,1.0,0.0,0.0,0.0,1.0,0.0,0.0,0.0,1.0,0.285001456738,-0.10214920342,0.0978578776121,1.21846967915e-07,0.0,0.0,0.0,1.21846967915e-07,0.0,0.0,0.0,1.21846967915e-07,-0.59820565,0.10787315,11.9248864,9e-08,0.0,0.0,0.0,9e-08,0.0,0.0,0.0,9e-08
1532987397300156502,636,1532987397299809591,base_link,-0.0301851436069,0.0946792003466,-0.708187258829,0.698996074781,1.0,0.0,0.0,0.0,1.0,0.0,0.0,0.0,1.0,0.510496199131,-0.0749929398298,0.0845251008868,1.21846967915e-07,0.0,0.0,0.0,1.21846967915e-07,0.0,0.0,0.0,1.21846967915e-07,-0.7256921,-0.0196133,10.97364135,9e-08,0.0,0.0,0.0,9e-08,0.0,0.0,0.0,9e-08
1532987397640796150,637,1532987397640361783,base_link,-0.0636234680069,0.000843186366409,0.703682918487,-0.707659306153,1.0,0.0,0.0,0.0,1.0,0.0,0.0,0.0,1.0,0.777315139771,0.00851251371205,0.0345328822732,1.21846967915e-07,0.0,0.0,0.0,1.21846967915e-07,0.0,0.0,0.0,1.21846967915e-07,-0.9022118,0.1372931,8.05125965,9e-08,0.0,0.0,0.0,9e-08,0.0,0.0,0.0,9e-08
1532987397975750568,638,1532987397975414889,base_link,-0.0961458006674,0.0280865989708,0.699379309468,-0.707697470294,1.0,0.0,0.0,0.0,1.0,0.0,0.0,0.0,1.0,-0.0566923432052,0.0548503398895,-0.0358328893781,1.21846967915e-07,0.0,0.0,0.0,1.21846967915e-07,0.0,0.0,0.0,1.21846967915e-07,-0.85317855,0.3726527,8.67888525,9e-08,0.0,0.0,0.0,9e-08,0.0,0.0,0.0,9e-08
1532987398344825971,639,1532987398344182165,base_link,0.104901168856,-0.0119359760417,-0.709224784283,0.697031909318,1.0,0.0,0.0,0.0,1.0,0.0,0.0,0.0,1.0,-0.166528761387,0.128266513348,-0.110850438476,1.21846967915e-07,0.0,0.0,0.0,1.21846967915e-07,0.0,0.0,0.0,1.21846967915e-07,-0.79433865,0.3138128,7.7080269,9e-08,0.0,0.0,0.0,9e-08,0.0,0.0,0.0,9e-08
1532987398861644994,640,1532987398860282214,base_link,0.114330665692,0.0236140457897,-0.727692583589,0.675895243002,1.0,0.0,0.0,0.0,1.0,0.0,0.0,0.0,1.0,0.0197940357029,0.097682505846,-0.0976789370179,1.21846967915e-07,0.0,0.0,0.0,1.21846967915e-07,0.0,0.0,0.0,1.21846967915e-07,-0.8237586,-0.02941995,7.9826131,9e-08,0.0,0.0,0.0,9e-08,0.0,0.0,0.0,9e-08
1532987399261305617,641,1532987399260930610,base_link,0.116667204641,0.0289857068666,-0.733137330019,0.669371531731,1.0,0.0,0.0,0.0,1.0,0.0,0.0,0.0,1.0,-0.0725900381804,-0.0264645293355,-0.0411039553583,1.21846967915e-07,0.0,0.0,0.0,1.21846967915e-07,0.0,0.0,0.0,1.21846967915e-07,-0.9218251,0.20593965,8.7867584,9e-08,0.0,0.0,0.0,9e-08,0.0,0.0,0.0,9e-08
1532987399760917780,642,1532987399758650107,base_link,0.0858886577341,0.0374669114073,-0.744925857595,0.66053375062,1.0,0.0,0.0,0.0,1.0,0.0,0.0,0.0,1.0,-0.229287907481,-0.0817893370986,-0.0696925893426,1.21846967915e-07,0.0,0.0,0.0,1.21846967915e-07,0.0,0.0,0.0,1.21846967915e-07,-0.6864655,0.04903325,11.8072066,9e-08,0.0,0.0,0.0,9e-08,0.0,0.0,0.0,9e-08
1532987400135280976,643,1532987400131865402,base_link,0.0620120437679,0.0460335131849,-0.755870709927,0.650149899613,1.0,0.0,0.0,0.0,1.0,0.0,0.0,0.0,1.0,-0.0767801553011,-0.0599771291018,-0.0660183355212,1.21846967915e-07,0.0,0.0,0.0,1.21846967915e-07,0.0,0.0,0.0,1.21846967915e-07,-0.8041453,-0.00980665,10.4735022,9e-08,0.0,0.0,0.0,9e-08,0.0,0.0,0.0,9e-08
1532987400508308111,644,1532987400507829712,base_link,0.04400781888,0.0458162081843,-0.757939980177,0.649223515743,1.0,0.0,0.0,0.0,1.0,0.0,0.0,0.0,1.0,-0.0889231264591,-0.0939687564969,0.0374537035823,1.21846967915e-07,0.0,0.0,0.0,1.21846967915e-07,0.0,0.0,0.0,1.21846967915e-07,-0.784532,-0.08825985,10.38524235,9e-08,0.0,0.0,0.0,9e-08,0.0,0.0,0.0,9e-08
1532987400944302545,645,1532987400943953618,base_link,0.0309966508726,0.0292289791727,-0.746757293496,0.663730682598,1.0,0.0,0.0,0.0,1.0,0.0,0.0,0.0,1.0,-0.0275738164783,-0.0793361365795,0.124338924885,1.21846967915e-07,0.0,0.0,0.0,1.21846967915e-07,0.0,0.0,0.0,1.21846967915e-07,-0.8041453,-0.1569064,12.17005265,9e-08,0.0,0.0,0.0,9e-08,0.0,0.0,0.0,9e-08
1532987401427444677,646,1532987401425205548,base_link,-0.0138602161222,0.0521503497549,-0.731523289872,0.679677799993,1.0,0.0,0.0,0.0,1.0,0.0,0.0,0.0,1.0,-0.307409375906,-0.0620182156563,0.0564978979528,1.21846967915e-07,0.0,0.0,0.0,1.21846967915e-07,0.0,0.0,0.0,1.21846967915e-07,-0.81395195,0.16671305,11.54242705,9e-08,0.0,0.0,0.0,9e-08,0.0,0.0,0.0,9e-08
1532987401843599107,647,1532987401843323812,base_link,-0.0215435462111,0.0538511048716,-0.725188650092,0.686103021345,1.0,0.0,0.0,0.0,1.0,0.0,0.0,0.0,1.0,0.176894664764,0.0239626429975,0.093173161149,1.21846967915e-07,0.0,0.0,0.0,1.21846967915e-07,0.0,0.0,0.0,1.21846967915e-07,-0.9610517,-0.1569064,9.63993695,9e-08,0.0,0.0,0.0,9e-08,0.0,0.0,0.0,9e-08
1532987402147650865,648,1532987402145327992,base_link,0.00253327373638,0.0357703690856,-0.71279848731,0.700451554148,1.0,0.0,0.0,0.0,1.0,0.0,0.0,0.0,1.0,0.283224910498,0.0433548763394,0.143964707851,1.21846967915e-07,0.0,0.0,0.0,1.21846967915e-07,0.0,0.0,0.0,1.21846967915e-07,-0.87279185,-0.0392266,9.2967042,9e-08,0.0,0.0,0.0,9e-08,0.0,0.0,0.0,9e-08
1532987402507206937,649,1532987402506912442,base_link,-0.0421355063899,-0.00431322849778,0.701055825079,-0.711847403089,1.0,0.0,0.0,0.0,1.0,0.0,0.0,0.0,1.0,0.204951629043,0.0354446172714,0.0525318980217,1.21846967915e-07,0.0,0.0,0.0,1.21846967915e-07,0.0,0.0,0.0,1.21846967915e-07,-1.01008495,0.48052585,8.22777935,9e-08,0.0,0.0,0.0,9e-08,0.0,0.0,0.0,9e-08
1532987402844643011,650,1532987402843500551,base_link,-0.103599139703,0.0472551019416,0.703819480156,-0.701193491803,1.0,0.0,0.0,0.0,1.0,0.0,0.0,0.0,1.0,0.635748565197,0.0552948974073,-0.0942838042974,1.21846967915e-07,0.0,0.0,0.0,1.21846967915e-07,0.0,0.0,0.0,1.21846967915e-07,-0.77472535,0.3726527,8.8848249,9e-08,0.0,0.0,0.0,9e-08,0.0,0.0,0.0,9e-08
1532987403295193050,651,1532987403294589756,base_link,0.183085896754,-0.0999993586685,-0.720354694495,0.66148983121,1.0,0.0,0.0,0.0,1.0,0.0,0.0,0.0,1.0,0.38024532795,0.0385646000504,-0.228700980544,1.21846967915e-07,0.0,0.0,0.0,1.21846967915e-07,0.0,0.0,0.0,1.21846967915e-07,-0.71588545,0.6080123,7.63938035,9e-08,0.0,0.0,0.0,9e-08,0.0,0.0,0.0,9e-08
1532987403713696016,652,1532987403711898294,base_link,0.216298666856,-0.119315593398,-0.756516601108,0.605525646142,1.0,0.0,0.0,0.0,1.0,0.0,0.0,0.0,1.0,0.242202967405,-0.0784534141421,-0.372555792332,1.21846967915e-07,0.0,0.0,0.0,1.21846967915e-07,0.0,0.0,0.0,1.21846967915e-07,-0.8433719,0.3530394,8.16893945,9e-08,0.0,0.0,0.0,9e-08,0.0,0.0,0.0,9e-08
1532987404205006700,653,1532987404204796205,base_link,0.238028611672,-0.190975964341,-0.802957290728,0.511986474759,1.0,0.0,0.0,0.0,1.0,0.0,0.0,0.0,1.0,0.326204627752,-0.290026724339,-0.295643895864,1.21846967915e-07,0.0,0.0,0.0,1.21846967915e-07,0.0,0.0,0.0,1.21846967915e-07,-0.61781895,0.0784532,11.40513395,9e-08,0.0,0.0,0.0,9e-08,0.0,0.0,0.0,9e-08
1532987404671099828,654,1532987404670837525,base_link,0.216014809336,-0.264120038654,-0.838652209399,0.42454761688,1.0,0.0,0.0,0.0,1.0,0.0,0.0,0.0,1.0,0.131041377783,-0.395503818989,-0.309817820787,1.21846967915e-07,0.0,0.0,0.0,1.21846967915e-07,0.0,0.0,0.0,1.21846967915e-07,-0.1372931,0.6472389,13.5724036,9e-08,0.0,0.0,0.0,9e-08,0.0,0.0,0.0,9e-08
1532987405079385225,655,1532987405078933995,base_link,0.186600257207,-0.309431463767,-0.873717756729,0.325652874728,1.0,0.0,0.0,0.0,1.0,0.0,0.0,0.0,1.0,0.0251861587167,-0.455036252737,-0.450498133898,1.21846967915e-07,0.0,0.0,0.0,1.21846967915e-07,0.0,0.0,0.0,1.21846967915e-07,-0.392266,0.6668522,13.1016844,9e-08,0.0,0.0,0.0,9e-08,0.0,0.0,0.0,9e-08
1532987405490624790,656,1532987405490323191,base_link,0.1360034869,-0.324059071226,-0.913989771039,0.202759631935,1.0,0.0,0.0,0.0,1.0,0.0,0.0,0.0,1.0,0.000177198089659,-0.457791477442,-0.457083404064,1.21846967915e-07,0.0,0.0,0.0,1.21846967915e-07,0.0,0.0,0.0,1.21846967915e-07,-0.2745862,0.196133,14.121576,9e-08,0.0,0.0,0.0,9e-08,0.0,0.0,0.0,9e-08
1532987405865129520,657,1532987405864646706,base_link,0.0799303396213,-0.320646342093,-0.936838164232,0.114591963718,1.0,0.0,0.0,0.0,1.0,0.0,0.0,0.0,1.0,-0.113463737071,-0.459803402424,-0.322017967701,1.21846967915e-07,0.0,0.0,0.0,1.21846967915e-07,0.0,0.0,0.0,1.21846967915e-07,-0.02941995,0.20593965,14.93552795,9e-08,0.0,0.0,0.0,9e-08,0.0,0.0,0.0,9e-08
1532987406275135521,658,1532987406274707426,base_link,0.017297673943,-0.290138941512,-0.956502059695,0.0249798898022,1.0,0.0,0.0,0.0,1.0,0.0,0.0,0.0,1.0,-0.158176496625,-0.352173984051,-0.353355020285,1.21846967915e-07,0.0,0.0,0.0,1.21846967915e-07,0.0,0.0,0.0,1.21846967915e-07,0.0588399,0.30400615,14.93552795,9e-08,0.0,0.0,0.0,9e-08,0.0,0.0,0.0,9e-08
1532987406676284939,659,1532987406675828141,base_link,-0.0235176492805,-0.279873960048,-0.957818798921,-0.0608328455065,1.0,0.0,0.0,0.0,1.0,0.0,0.0,0.0,1.0,0.0446653068066,-0.311624079943,-0.337114274502,1.21846967915e-07,0.0,0.0,0.0,1.21846967915e-07,0.0,0.0,0.0,1.21846967915e-07,-0.08825985,0.2745862,13.11149105,9e-08,0.0,0.0,0.0,9e-08,0.0,0.0,0.0,9e-08
1532987407255316384,660,1532987407253213190,base_link,-0.0587865908687,-0.20549469504,-0.961897318087,-0.170498142224,1.0,0.0,0.0,0.0,1.0,0.0,0.0,0.0,1.0,-0.302406966686,-0.114226788282,-0.313403964043,1.21846967915e-07,0.0,0.0,0.0,1.21846967915e-07,0.0,0.0,0.0,1.21846967915e-07,-0.1176798,-0.06864655,11.6110736,9e-08,0.0,0.0,0.0,9e-08,0.0,0.0,0.0,9e-08
1532987407586160510,661,1532987407585825983,base_link,-0.0559938679206,-0.163663293214,-0.958973499393,-0.224608193686,1.0,0.0,0.0,0.0,1.0,0.0,0.0,0.0,1.0,-0.394340276718,-0.0567111298442,-0.263880133629,1.21846967915e-07,0.0,0.0,0.0,1.21846967915e-07,0.0,0.0,0.0,1.21846967915e-07,-0.1176798,-0.06864655,10.2969825,9e-08,0.0,0.0,0.0,9e-08,0.0,0.0,0.0,9e-08
1532987407982449207,662,1532987407981967800,base_link,-0.0219167266289,-0.0562510783304,-0.963149677202,-0.262103362408,1.0,0.0,0.0,0.0,1.0,0.0,0.0,0.0,1.0,-0.65143597126,0.0438029617071,-0.106779940426,1.21846967915e-07,0.0,0.0,0.0,1.21846967915e-07,0.0,0.0,0.0,1.21846967915e-07,-0.2157463,-0.10787315,9.71839015,9e-08,0.0,0.0,0.0,9e-08,0.0,0.0,0.0,9e-08
1532987408356240820,663,1532987408355859573,base_link,0.0176407925778,0.0436607474285,-0.960955789961,-0.272665566787,1.0,0.0,0.0,0.0,1.0,0.0,0.0,0.0,1.0,-0.444179683924,0.0703698396683,-0.0211003366858,1.21846967915e-07,0.0,0.0,0.0,1.21846967915e-07,0.0,0.0,0.0,1.21846967915e-07,-0.18632635,-0.1765197,8.6102387,9e-08,0.0,0.0,0.0,9e-08,0.0,0.0,0.0,9e-08
1532987408784438829,664,1532987408784196110,base_link,0.0602877699976,0.109331403401,-0.959236208345,-0.253530916496,1.0,0.0,0.0,0.0,1.0,0.0,0.0,0.0,1.0,-0.560822427273,0.049173604697,0.200352981687,1.21846967915e-07,0.0,0.0,0.0,1.21846967915e-07,0.0,0.0,0.0,1.21846967915e-07,-0.38245935,-0.4511059,8.71811185,9e-08,0.0,0.0,0.0,9e-08,0.0,0.0,0.0,9e-08
1532987409183809342,665,1532987409183578302,base_link,0.0829089295149,0.166386163144,-0.960872987576,-0.205340828547,1.0,0.0,0.0,0.0,1.0,0.0,0.0,0.0,1.0,0.0324308276176,-0.0400845706463,0.206266313791,1.21846967915e-07,0.0,0.0,0.0,1.21846967915e-07,0.0,0.0,0.0,1.21846967915e-07,-0.40207265,-0.4118793,8.8848249,9e-08,0.0,0.0,0.0,9e-08,0.0,0.0,0.0,9e-08
1532987409531785960,666,1532987409530750987,base_link,0.0814520065183,0.164660257921,-0.968887664098,-0.165859170545,1.0,0.0,0.0,0.0,1.0,0.0,0.0,0.0,1.0,-0.148989126086,-0.0585479959846,0.246689990163,1.21846967915e-07,0.0,0.0,0.0,1.21846967915e-07,0.0,0.0,0.0,1.21846967915e-07,-0.392266,-0.18632635,8.5906254,9e-08,0.0,0.0,0.0,9e-08,0.0,0.0,0.0,9e-08
1532987409777362150,667,1532987409777127879,base_link,0.0876192345908,0.182640138833,-0.969945303841,-0.134801917547,1.0,0.0,0.0,0.0,1.0,0.0,0.0,0.0,1.0,-0.231138452888,0.0719305723906,0.257371217012,1.21846967915e-07,0.0,0.0,0.0,1.21846967915e-07,0.0,0.0,0.0,1.21846967915e-07,-0.22555295,-0.42168595,9.95374975,9e-08,0.0,0.0,0.0,9e-08,0.0,0.0,0.0,9e-08
