%time,field.header.seq,field.header.stamp,field.header.frame_id,field.orientation.x,field.orientation.y,field.orientation.z,field.orientation.w,field.orientation_covariance0,field.orientation_covariance1,field.orientation_covariance2,field.orientation_covariance3,field.orientation_covariance4,field.orientation_covariance5,field.orientation_covariance6,field.orientation_covariance7,field.orientation_covariance8,field.angular_velocity.x,field.angular_velocity.y,field.angular_velocity.z,field.angular_velocity_covariance0,field.angular_velocity_covariance1,field.angular_velocity_covariance2,field.angular_velocity_covariance3,field.angular_velocity_covariance4,field.angular_velocity_covariance5,field.angular_velocity_covariance6,field.angular_velocity_covariance7,field.angular_velocity_covariance8,field.linear_acceleration.x,field.linear_acceleration.y,field.linear_acceleration.z,field.linear_acceleration_covariance0,field.linear_acceleration_covariance1,field.linear_acceleration_covariance2,field.linear_acceleration_covariance3,field.linear_acceleration_covariance4,field.linear_acceleration_covariance5,field.linear_acceleration_covariance6,field.linear_acceleration_covariance7,field.linear_acceleration_covariance8
1536693546652519800,6217,1536693546652220472,base_link,-0.131939872748,-0.218393784398,-0.809134860834,-0.529336189863,1.0,0.0,0.0,0.0,1.0,0.0,0.0,0.0,1.0,0.218985006213,-0.0891739279032,-0.149727910757,1.21846967915e-07,0.0,0.0,0.0,1.21846967915e-07,0.0,0.0,0.0,1.21846967915e-07,0.28439285,0.61781895,11.13054775,9e-08,0.0,0.0,0.0,9e-08,0.0,0.0,0.0,9e-08
1536693547074696440,6218,1536693547074242200,base_link,-0.174785328317,-0.263896128312,-0.767121684913,-0.557972439286,1.0,0.0,0.0,0.0,1.0,0.0,0.0,0.0,1.0,0.253227561712,-0.0510744377971,-0.23456761241,1.21846967915e-07,0.0,0.0,0.0,1.21846967915e-07,0.0,0.0,0.0,1.21846967915e-07,-1.3925443,0.6472389,11.56204035,9e-08,0.0,0.0,0.0,9e-08,0.0,0.0,0.0,9e-08
1536693547600123288,6219,1536693547598036504,base_link,-0.191090705847,-0.313206773448,-0.716368831114,-0.593465716797,1.0,0.0,0.0,0.0,1.0,0.0,0.0,0.0,1.0,0.114782117307,0.0248251874,-0.246895775199,1.21846967915e-07,0.0,0.0,0.0,1.21846967915e-07,0.0,0.0,0.0,1.21846967915e-07,-1.85345685,0.53936575,8.0022264,9e-08,0.0,0.0,0.0,9e-08,0.0,0.0,0.0,9e-08
1536693547931230680,6220,1536693547931019832,base_link,-0.187140262098,-0.331604645359,-0.686126903249,-0.61987640229,1.0,0.0,0.0,0.0,1.0,0.0,0.0,0.0,1.0,0.0344711765647,-0.000961646437645,-0.241212874651,1.21846967915e-07,0.0,0.0,0.0,1.21846967915e-07,0.0,0.0,0.0,1.21846967915e-07,-2.0005566,0.7453054,7.07059465,9e-08,0.0,0.0,0.0,9e-08,0.0,0.0,0.0,9e-08
1536693548441163704,6221,1536693548440308504,base_link,-0.162507637994,-0.337583281832,-0.634271258288,-0.676260871507,1.0,0.0,0.0,0.0,1.0,0.0,0.0,0.0,1.0,-0.0357661470771,-0.0581469982862,-0.301366478205,1.21846967915e-07,0.0,0.0,0.0,1.21846967915e-07,0.0,0.0,0.0,1.21846967915e-07,-2.2751428,0.3334261,7.79628675,9e-08,0.0,0.0,0.0,9e-08,0.0,0.0,0.0,9e-08
1536693548851723352,6222,1536693548851508600,base_link,-0.161437689687,-0.342018785249,-0.588638995954,-0.714468442499,1.0,0.0,0.0,0.0,1.0,0.0,0.0,0.0,1.0,0.032108604908,-0.0843193382025,-0.199954628944,1.21846967915e-07,0.0,0.0,0.0,1.21846967915e-07,0.0,0.0,0.0,1.21846967915e-07,-2.38301595,0.08825985,9.11037785,9e-08,0.0,0.0,0.0,9e-08,0.0,0.0,0.0,9e-08
1536693549279252344,6223,1536693549276759864,base_link,-0.157641589408,-0.332411385147,-0.548917801605,-0.750560488831,1.0,0.0,0.0,0.0,1.0,0.0,0.0,0.0,1.0,-0.073066174984,-0.10548492521,-0.268207103014,1.21846967915e-07,0.0,0.0,0.0,1.21846967915e-07,0.0,0.0,0.0,1.21846967915e-07,-2.50069575,0.32361945,10.9049948,9e-08,0.0,0.0,0.0,9e-08,0.0,0.0,0.0,9e-08
1536693549509498264,6224,1536693549509241016,base_link,-0.153646583051,-0.328510621358,-0.522308151155,-0.771795111677,1.0,0.0,0.0,0.0,1.0,0.0,0.0,0.0,1.0,0.0162909459323,-0.109476178885,-0.28635174036,1.21846967915e-07,0.0,0.0,0.0,1.21846967915e-07,0.0,0.0,0.0,1.21846967915e-07,-2.5889556,-0.53936575,9.93413645,9e-08,0.0,0.0,0.0,9e-08,0.0,0.0,0.0,9e-08
1536693549825733464,6225,1536693549825475064,base_link,-0.163736747404,-0.322428646285,-0.486936750177,-0.795061410792,1.0,0.0,0.0,0.0,1.0,0.0,0.0,0.0,1.0,0.0611682236195,-0.130935683846,-0.175543144345,1.21846967915e-07,0.0,0.0,0.0,1.21846967915e-07,0.0,0.0,0.0,1.21846967915e-07,-2.52030905,-0.3726527,10.26756255,9e-08,0.0,0.0,0.0,9e-08,0.0,0.0,0.0,9e-08
1536693550148150904,6226,1536693550147870904,base_link,-0.180113977121,-0.315151400426,-0.457751812686,-0.811604477586,1.0,0.0,0.0,0.0,1.0,0.0,0.0,0.0,1.0,-0.0561519339681,-0.130819573998,-0.178517907858,1.21846967915e-07,0.0,0.0,0.0,1.21846967915e-07,0.0,0.0,0.0,1.21846967915e-07,-2.5889556,1.04931155,11.95430635,9e-08,0.0,0.0,0.0,9e-08,0.0,0.0,0.0,9e-08
1536693550589639384,6227,1536693550587417624,base_link,-0.18385158607,-0.2984808534,-0.416695951869,-0.838732530756,1.0,0.0,0.0,0.0,1.0,0.0,0.0,0.0,1.0,-0.0652900636196,-0.159446462989,-0.217786818743,1.21846967915e-07,0.0,0.0,0.0,1.21846967915e-07,0.0,0.0,0.0,1.21846967915e-07,-2.7850886,1.44157755,10.4931155,9e-08,0.0,0.0,0.0,9e-08,0.0,0.0,0.0,9e-08
1536693551019929560,6228,1536693551019684792,base_link,-0.165517196375,-0.276979323695,-0.373134714259,-0.869860331872,1.0,0.0,0.0,0.0,1.0,0.0,0.0,0.0,1.0,-0.069050014019,-0.119300238788,-0.17129214108,1.21846967915e-07,0.0,0.0,0.0,1.21846967915e-07,0.0,0.0,0.0,1.21846967915e-07,-2.745862,0.55897905,10.54214875,9e-08,0.0,0.0,0.0,9e-08,0.0,0.0,0.0,9e-08
1536693551451212440,6229,1536693551450994936,base_link,-0.134525313259,-0.249645700874,-0.346051467926,-0.894331228166,1.0,0.0,0.0,0.0,1.0,0.0,0.0,0.0,1.0,-0.251408398151,-0.103001661599,-0.156987294555,1.21846967915e-07,0.0,0.0,0.0,1.21846967915e-07,0.0,0.0,0.0,1.21846967915e-07,-2.7066354,0.04903325,10.81673495,9e-08,0.0,0.0,0.0,9e-08,0.0,0.0,0.0,9e-08
1536693551833960440,6230,1536693551833344504,base_link,-0.105738700259,-0.222727173581,-0.32371229689,-0.913467176344,1.0,0.0,0.0,0.0,1.0,0.0,0.0,0.0,1.0,-0.155133202672,-0.171985402703,-0.136384889483,1.21846967915e-07,0.0,0.0,0.0,1.21846967915e-07,0.0,0.0,0.0,1.21846967915e-07,-2.30456275,0.32361945,12.05237285,9e-08,0.0,0.0,0.0,9e-08,0.0,0.0,0.0,9e-08
1536693552243732568,6231,1536693552243491224,base_link,-0.0904217704996,-0.160131749912,-0.305934029241,-0.934123169525,1.0,0.0,0.0,0.0,1.0,0.0,0.0,0.0,1.0,-0.11466576159,-0.294749766588,-0.0718559101224,1.21846967915e-07,0.0,0.0,0.0,1.21846967915e-07,0.0,0.0,0.0,1.21846967915e-07,-1.6671305,0.5687857,15.28856735,9e-08,0.0,0.0,0.0,9e-08,0.0,0.0,0.0,9e-08
1536693552598697176,6232,1536693552598376664,base_link,-0.073094731005,-0.105570101377,-0.294688218602,-0.946927118532,1.0,0.0,0.0,0.0,1.0,0.0,0.0,0.0,1.0,-0.269434243441,-0.267995655537,-0.0634206086397,1.21846967915e-07,0.0,0.0,0.0,1.21846967915e-07,0.0,0.0,0.0,1.21846967915e-07,-0.87279185,0.77472535,16.8870513,9e-08,0.0,0.0,0.0,9e-08,0.0,0.0,0.0,9e-08
1536693552945108792,6233,1536693552944524856,base_link,-0.0510566933755,-0.0485151385752,-0.284619070107,-0.956049936103,1.0,0.0,0.0,0.0,1.0,0.0,0.0,0.0,1.0,-0.178739205003,-0.227627068758,-0.0428349524736,1.21846967915e-07,0.0,0.0,0.0,1.21846967915e-07,0.0,0.0,0.0,1.21846967915e-07,-0.65704555,0.5295591,16.40652545,9e-08,0.0,0.0,0.0,9e-08,0.0,0.0,0.0,9e-08
1536693553420992056,6234,1536693553416721560,base_link,-0.0434006043357,-0.00390033623679,-0.274310978515,-0.960653247528,1.0,0.0,0.0,0.0,1.0,0.0,0.0,0.0,1.0,0.0283153802156,-0.146298080683,-0.0128513984382,1.21846967915e-07,0.0,0.0,0.0,1.21846967915e-07,0.0,0.0,0.0,1.21846967915e-07,-0.55897905,0.4707192,14.121576,9e-08,0.0,0.0,0.0,9e-08,0.0,0.0,0.0,9e-08
1536693553830059384,6235,1536693553829748408,base_link,-0.0853077417208,0.00951402230793,-0.276553973866,-0.957157234795,1.0,0.0,0.0,0.0,1.0,0.0,0.0,0.0,1.0,0.211060419679,-0.065634213388,0.00470556877553,1.21846967915e-07,0.0,0.0,0.0,1.21846967915e-07,0.0,0.0,0.0,1.21846967915e-07,-0.6472389,0.44129925,11.8268199,9e-08,0.0,0.0,0.0,9e-08,0.0,0.0,0.0,9e-08
1536693554252266712,6236,1536693554251749528,base_link,-0.132625838816,0.00542351180048,-0.264495362096,-0.955208446271,1.0,0.0,0.0,0.0,1.0,0.0,0.0,0.0,1.0,0.268148869276,-0.000950924120843,-0.107269860804,1.21846967915e-07,0.0,0.0,0.0,1.21846967915e-07,0.0,0.0,0.0,1.21846967915e-07,-0.5295591,0.46091255,9.75761675,9e-08,0.0,0.0,0.0,9e-08,0.0,0.0,0.0,9e-08
1536693554534548248,6237,1536693554534100696,base_link,-0.174765587756,-0.00790917316364,-0.250789340547,-0.952102484496,1.0,0.0,0.0,0.0,1.0,0.0,0.0,0.0,1.0,0.340970635414,0.0176339671016,-0.120391517878,1.21846967915e-07,0.0,0.0,0.0,1.21846967915e-07,0.0,0.0,0.0,1.21846967915e-07,-0.65704555,0.38245935,8.6494653,9e-08,0.0,0.0,0.0,9e-08,0.0,0.0,0.0,9e-08
1536693554913795864,6238,1536693554913559960,base_link,-0.227123733419,-0.0269395451935,-0.231571213266,-0.945549493051,1.0,0.0,0.0,0.0,1.0,0.0,0.0,0.0,1.0,0.213244989514,0.012317545712,-0.114708632231,1.21846967915e-07,0.0,0.0,0.0,1.21846967915e-07,0.0,0.0,0.0,1.21846967915e-07,-0.48052585,0.38245935,8.97308475,9e-08,0.0,0.0,0.0,9e-08,0.0,0.0,0.0,9e-08
1536693555244391736,6239,1536693555244075128,base_link,-0.248037611909,-0.0401338685495,-0.208437987772,-0.94520908847,1.0,0.0,0.0,0.0,1.0,0.0,0.0,0.0,1.0,0.0458900593221,0.0130797531456,-0.189727082849,1.21846967915e-07,0.0,0.0,0.0,1.21846967915e-07,0.0,0.0,0.0,1.21846967915e-07,-0.2941995,0.7256921,8.26700595,9e-08,0.0,0.0,0.0,9e-08,0.0,0.0,0.0,9e-08
1536693555760015416,6240,1536693555759506744,base_link,-0.255515034245,-0.0568115410455,-0.157108501807,-0.952261221902,1.0,0.0,0.0,0.0,1.0,0.0,0.0,0.0,1.0,0.0396966561675,-0.0404584556818,-0.212621673942,1.21846967915e-07,0.0,0.0,0.0,1.21846967915e-07,0.0,0.0,0.0,1.21846967915e-07,-0.2353596,0.4118793,9.01231135,9e-08,0.0,0.0,0.0,9e-08,0.0,0.0,0.0,9e-08
1536693556097274712,6241,1536693556097012216,base_link,-0.253699334979,-0.0567207317537,-0.1207527167,-0.958038719171,1.0,0.0,0.0,0.0,1.0,0.0,0.0,0.0,1.0,-0.0942953377962,-0.0392217002809,-0.171875327826,1.21846967915e-07,0.0,0.0,0.0,1.21846967915e-07,0.0,0.0,0.0,1.21846967915e-07,-0.12748645,0.4118793,10.05181625,9e-08,0.0,0.0,0.0,9e-08,0.0,0.0,0.0,9e-08
1536693556527291224,6242,1536693556526779320,base_link,-0.226534546986,-0.0418108390244,-0.0839838817676,-0.969474424812,1.0,0.0,0.0,0.0,1.0,0.0,0.0,0.0,1.0,-0.197349399328,-0.081082418561,-0.163217350841,1.21846967915e-07,0.0,0.0,0.0,1.21846967915e-07,0.0,0.0,0.0,1.21846967915e-07,0.1176798,0.6472389,10.6107953,9e-08,0.0,0.0,0.0,9e-08,0.0,0.0,0.0,9e-08
1536693556924667288,6243,1536693556923985400,base_link,-0.190780617175,-0.0328455050742,-0.0515584148133,-0.979727338992,1.0,0.0,0.0,0.0,1.0,0.0,0.0,0.0,1.0,-0.209509879351,-0.0579643584788,-0.148198306561,1.21846967915e-07,0.0,0.0,0.0,1.21846967915e-07,0.0,0.0,0.0,1.21846967915e-07,0.1372931,0.97085835,10.3362091,9e-08,0.0,0.0,0.0,9e-08,0.0,0.0,0.0,9e-08
1536693557424515384,6244,1536693557424121784,base_link,-0.137831457213,-0.0202030644594,-0.0129152786217,-0.990165400914,1.0,0.0,0.0,0.0,1.0,0.0,0.0,0.0,1.0,-0.243644192815,-0.0709522217512,-0.1351352036,1.21846967915e-07,0.0,0.0,0.0,1.21846967915e-07,0.0,0.0,0.0,1.21846967915e-07,0.1372931,0.5687857,11.38552065,9e-08,0.0,0.0,0.0,9e-08,0.0,0.0,0.0,9e-08
1536693557786586392,6245,1536693557786372440,base_link,-0.101996133232,-0.00850741706668,0.00530415725357,-0.99473427536,1.0,0.0,0.0,0.0,1.0,0.0,0.0,0.0,1.0,-0.158652201295,-0.0841280817986,-0.0682035684586,1.21846967915e-07,0.0,0.0,0.0,1.21846967915e-07,0.0,0.0,0.0,1.21846967915e-07,0.22555295,0.34323275,11.73856005,9e-08,0.0,0.0,0.0,9e-08,0.0,0.0,0.0,9e-08
1536693558152246328,6246,1536693558151837560,base_link,-0.0764132985274,0.00527842873069,0.015148090045,-0.996947180831,1.0,0.0,0.0,0.0,1.0,0.0,0.0,0.0,1.0,-0.12854911387,-0.0704136565328,-0.042054861784,1.21846967915e-07,0.0,0.0,0.0,1.21846967915e-07,0.0,0.0,0.0,1.21846967915e-07,0.08825985,0.6472389,11.2384209,9e-08,0.0,0.0,0.0,9e-08,0.0,0.0,0.0,9e-08
1536693558486018840,6247,1536693558483490776,base_link,-0.0453882859267,0.012208002238,0.0221573898879,-0.99864904659,1.0,0.0,0.0,0.0,1.0,0.0,0.0,0.0,1.0,-0.230895221233,-0.00265110377222,-0.0276555120945,1.21846967915e-07,0.0,0.0,0.0,1.21846967915e-07,0.0,0.0,0.0,1.21846967915e-07,0.196133,0.42168595,10.5127288,9e-08,0.0,0.0,0.0,9e-08,0.0,0.0,0.0,9e-08
1536693558819382712,6248,1536693558819048952,base_link,-0.0122913721965,0.0138331904756,0.0231801063306,-0.999560027053,1.0,0.0,0.0,0.0,1.0,0.0,0.0,0.0,1.0,-0.214517116547,-0.0150945400819,0.0305331833661,1.21846967915e-07,0.0,0.0,0.0,1.21846967915e-07,0.0,0.0,0.0,1.21846967915e-07,0.196133,0.3334261,9.9635564,9e-08,0.0,0.0,0.0,9e-08,0.0,0.0,0.0,9e-08
1536693559222005016,6249,1536693559221711096,base_link,0.00800007801462,0.0160296001027,0.0131411503887,-0.999753149952,1.0,0.0,0.0,0.0,1.0,0.0,0.0,0.0,1.0,-0.0544313564897,-0.0262975692749,0.0730251893401,1.21846967915e-07,0.0,0.0,0.0,1.21846967915e-07,0.0,0.0,0.0,1.21846967915e-07,0.0980665,0.1765197,10.87557485,9e-08,0.0,0.0,0.0,9e-08,0.0,0.0,0.0,9e-08
1536693559505374968,6250,1536693559504878904,base_link,0.0253606702771,0.0166835753577,-0.000237450070285,-0.999539112958,1.0,0.0,0.0,0.0,1.0,0.0,0.0,0.0,1.0,-0.146619126201,0.0122637990862,0.0849738121033,1.21846967915e-07,0.0,0.0,0.0,1.21846967915e-07,0.0,0.0,0.0,1.21846967915e-07,0.06864655,0.4118793,9.63993695,9e-08,0.0,0.0,0.0,9e-08,0.0,0.0,0.0,9e-08
1536693559964435800,6251,1536693559964088408,base_link,0.0471539168989,0.0100365222565,-0.00989810588474,-0.998788167652,1.0,0.0,0.0,0.0,1.0,0.0,0.0,0.0,1.0,0.0122064109892,0.0349802449346,-0.00554910395294,1.21846967915e-07,0.0,0.0,0.0,1.21846967915e-07,0.0,0.0,0.0,1.21846967915e-07,-0.0784532,0.36284605,9.7870367,9e-08,0.0,0.0,0.0,9e-08,0.0,0.0,0.0,9e-08
1536693560267113720,6252,1536693560266615512,base_link,0.0300393135465,0.00593172928344,-0.0147365838569,-0.999422476896,1.0,0.0,0.0,0.0,1.0,0.0,0.0,0.0,1.0,0.154956519604,0.0235133394599,0.0688388720155,1.21846967915e-07,0.0,0.0,0.0,1.21846967915e-07,0.0,0.0,0.0,1.21846967915e-07,-0.20593965,0.16671305,9.48303055,9e-08,0.0,0.0,0.0,9e-08,0.0,0.0,0.0,9e-08
1536693560657960088,6253,1536693560657718232,base_link,0.000188798514703,-0.00123959366752,-0.0350279191508,-0.999385547545,1.0,0.0,0.0,0.0,1.0,0.0,0.0,0.0,1.0,0.148455560207,0.0361775606871,0.101053789258,1.21846967915e-07,0.0,0.0,0.0,1.21846967915e-07,0.0,0.0,0.0,1.21846967915e-07,-0.2745862,0.38245935,9.5516771,9e-08,0.0,0.0,0.0,9e-08,0.0,0.0,0.0,9e-08
1536693561221164472,6254,1536693561220368216,base_link,-0.028536537483,-0.0132012392612,-0.0509565791146,-0.998205800602,1.0,0.0,0.0,0.0,1.0,0.0,0.0,0.0,1.0,0.0533755980432,0.0567243956029,0.015923852101,1.21846967915e-07,0.0,0.0,0.0,1.21846967915e-07,0.0,0.0,0.0,1.21846967915e-07,-0.196133,0.53936575,9.0613446,9e-08,0.0,0.0,0.0,9e-08,0.0,0.0,0.0,9e-08
1536693561692646968,6255,1536693561692077624,base_link,-0.0417120457858,-0.0265974924378,-0.0498242155354,-0.997532067745,1.0,0.0,0.0,0.0,1.0,0.0,0.0,0.0,1.0,0.0649179145694,0.052528642118,-0.0191080830991,1.21846967915e-07,0.0,0.0,0.0,1.21846967915e-07,0.0,0.0,0.0,1.21846967915e-07,-0.2353596,0.48052585,8.7867584,9e-08,0.0,0.0,0.0,9e-08,0.0,0.0,0.0,9e-08
1536693561991309144,6256,1536693561990936248,base_link,-0.0523480268357,-0.0365948039809,-0.0478803122613,-0.996808898488,1.0,0.0,0.0,0.0,1.0,0.0,0.0,0.0,1.0,0.0620957165956,0.0964190810919,0.00390895735472,1.21846967915e-07,0.0,0.0,0.0,1.21846967915e-07,0.0,0.0,0.0,1.21846967915e-07,-0.16671305,0.34323275,9.1005712,9e-08,0.0,0.0,0.0,9e-08,0.0,0.0,0.0,9e-08
1536693562374947960,6257,1536693562374605688,base_link,-0.0594977548815,-0.0432873761322,-0.0476170160285,-0.99615201652,1.0,0.0,0.0,0.0,1.0,0.0,0.0,0.0,1.0,0.0603131651878,0.000507639721036,-0.00667193485424,1.21846967915e-07,0.0,0.0,0.0,1.21846967915e-07,0.0,0.0,0.0,1.21846967915e-07,-0.20593965,0.4903325,9.3751574,9e-08,0.0,0.0,0.0,9e-08,0.0,0.0,0.0,9e-08
1536693562691609400,6258,1536693562691303928,base_link,-0.0641549561588,-0.0428109969249,-0.0468536393528,-0.995919723985,1.0,0.0,0.0,0.0,1.0,0.0,0.0,0.0,1.0,0.00325664691627,-0.0194390453398,-0.0137178953737,1.21846967915e-07,0.0,0.0,0.0,1.21846967915e-07,0.0,0.0,0.0,1.21846967915e-07,0.0196133,0.5295591,10.20872265,9e-08,0.0,0.0,0.0,9e-08,0.0,0.0,0.0,9e-08
1536693563101407384,6259,1536693563101111960,base_link,-0.0543583466249,-0.0382588892964,-0.0417468806753,-0.996914552756,1.0,0.0,0.0,0.0,1.0,0.0,0.0,0.0,1.0,-0.112512022257,-0.0188212357461,-0.0435993261635,1.21846967915e-07,0.0,0.0,0.0,1.21846967915e-07,0.0,0.0,0.0,1.21846967915e-07,-0.02941995,0.55897905,10.28717585,9e-08,0.0,0.0,0.0,9e-08,0.0,0.0,0.0,9e-08
1536693563569110072,6260,1536693563568441336,base_link,-0.0415166993296,-0.0294203716855,-0.0362014525491,-0.998048225408,1.0,0.0,0.0,0.0,1.0,0.0,0.0,0.0,1.0,-0.00791974924505,-0.0574994757771,-0.00323970802128,1.21846967915e-07,0.0,0.0,0.0,1.21846967915e-07,0.0,0.0,0.0,1.21846967915e-07,0.16671305,0.5491724,10.4146623,9e-08,0.0,0.0,0.0,9e-08,0.0,0.0,0.0,9e-08
1536693563824975896,6261,1536693563817309976,base_link,-0.0408580157142,-0.0215329909477,-0.037612706078,-0.998224542472,1.0,0.0,0.0,0.0,1.0,0.0,0.0,0.0,1.0,-0.00623732618988,-0.058842740953,0.0244978498667,1.21846967915e-07,0.0,0.0,0.0,1.21846967915e-07,0.0,0.0,0.0,1.21846967915e-07,0.10787315,0.40207265,10.77750835,9e-08,0.0,0.0,0.0,9e-08,0.0,0.0,0.0,9e-08
1536693564259967768,6262,1536693564259758264,base_link,-0.0372305796291,-0.0090032502921,-0.0402017989783,-0.998457130168,1.0,0.0,0.0,0.0,1.0,0.0,0.0,0.0,1.0,0.00777315814048,-0.0556851252913,-0.0026140967384,1.21846967915e-07,0.0,0.0,0.0,1.21846967915e-07,0.0,0.0,0.0,1.21846967915e-07,0.16671305,0.3726527,10.81673495,9e-08,0.0,0.0,0.0,9e-08,0.0,0.0,0.0,9e-08
1536693564772128920,6263,1536693564771722808,base_link,-0.0337157689464,0.00640600007964,-0.0432406406986,-0.998475065828,1.0,0.0,0.0,0.0,1.0,0.0,0.0,0.0,1.0,-0.00587762892246,-0.0504992008209,0.0172246936709,1.21846967915e-07,0.0,0.0,0.0,1.21846967915e-07,0.0,0.0,0.0,1.21846967915e-07,0.2353596,0.51975245,11.5130071,9e-08,0.0,0.0,0.0,9e-08,0.0,0.0,0.0,9e-08
1536693565092248408,6264,1536693565091938008,base_link,-0.0352931144978,0.00809667093015,-0.0460191563457,-0.998284066405,1.0,0.0,0.0,0.0,1.0,0.0,0.0,0.0,1.0,0.0432805120945,0.0434459224343,0.00903134979308,1.21846967915e-07,0.0,0.0,0.0,1.21846967915e-07,0.0,0.0,0.0,1.21846967915e-07,0.26477955,0.51975245,10.0812362,9e-08,0.0,0.0,0.0,9e-08,0.0,0.0,0.0,9e-08
1536693565547829656,6265,1536693565547217560,base_link,-0.0362100823504,0.00216740135945,-0.0447223233016,-0.998340646326,1.0,0.0,0.0,0.0,1.0,0.0,0.0,0.0,1.0,0.0102364756167,0.0235378295183,-0.0184479989111,1.21846967915e-07,0.0,0.0,0.0,1.21846967915e-07,0.0,0.0,0.0,1.21846967915e-07,0.196133,0.5295591,8.8063717,9e-08,0.0,0.0,0.0,9e-08,0.0,0.0,0.0,9e-08
1536693565797056344,6266,1536693565796769720,base_link,-0.0448028967703,0.00110396281255,-0.0455358106088,-0.997956898698,1.0,0.0,0.0,0.0,1.0,0.0,0.0,0.0,1.0,0.094984382391,-0.00353465974331,0.0258851442486,1.21846967915e-07,0.0,0.0,0.0,1.21846967915e-07,0.0,0.0,0.0,1.21846967915e-07,0.1372931,0.36284605,9.6889702,9e-08,0.0,0.0,0.0,9e-08,0.0,0.0,0.0,9e-08
1536693566202783192,6267,1536693566200246520,base_link,-0.0480840691349,0.00131014750261,-0.0513440580213,-0.997521926333,1.0,0.0,0.0,0.0,1.0,0.0,0.0,0.0,1.0,-0.00624730996788,0.00546912895516,0.00437641656026,1.21846967915e-07,0.0,0.0,0.0,1.21846967915e-07,0.0,0.0,0.0,1.21846967915e-07,0.26477955,0.67665885,10.11065615,9e-08,0.0,0.0,0.0,9e-08,0.0,0.0,0.0,9e-08
1536693566604321176,6268,1536693566603981080,base_link,-0.0495336585217,-0.000567338129367,-0.0506749447684,-0.997485912068,1.0,0.0,0.0,0.0,1.0,0.0,0.0,0.0,1.0,0.0945884436369,0.0434545353055,-0.00818100385368,1.21846967915e-07,0.0,0.0,0.0,1.21846967915e-07,0.0,0.0,0.0,1.21846967915e-07,0.26477955,0.48052585,10.50292215,9e-08,0.0,0.0,0.0,9e-08,0.0,0.0,0.0,9e-08
1536693567003645336,6269,1536693567003341720,base_link,-0.069474060955,-0.00871398060038,-0.0483516034007,-0.996373195066,1.0,0.0,0.0,0.0,1.0,0.0,0.0,0.0,1.0,0.0961031541228,0.0188990719616,-0.0209301207215,1.21846967915e-07,0.0,0.0,0.0,1.21846967915e-07,0.0,0.0,0.0,1.21846967915e-07,0.14709975,0.4118793,9.18883105,9e-08,0.0,0.0,0.0,9e-08,0.0,0.0,0.0,9e-08
1536693567393953400,6270,1536693567393614296,base_link,-0.081038495338,-0.013803704,-0.0448515084695,-0.995605625847,1.0,0.0,0.0,0.0,1.0,0.0,0.0,0.0,1.0,-0.0261936895549,0.000524836592376,-0.0381621718407,1.21846967915e-07,0.0,0.0,0.0,1.21846967915e-07,0.0,0.0,0.0,1.21846967915e-07,0.196133,0.588399,9.4732239,9e-08,0.0,0.0,0.0,9e-08,0.0,0.0,0.0,9e-08
1536693567943060760,6271,1536693567942815608,base_link,-0.0761796036502,-0.0161107298023,-0.027438557421,-0.99658629227,1.0,0.0,0.0,0.0,1.0,0.0,0.0,0.0,1.0,-0.0653213709593,0.017713803798,-0.0545432679355,1.21846967915e-07,0.0,0.0,0.0,1.21846967915e-07,0.0,0.0,0.0,1.21846967915e-07,0.0196133,0.42168595,10.1793027,9e-08,0.0,0.0,0.0,9e-08,0.0,0.0,0.0,9e-08
1536693568355856760,6272,1536693568355332952,base_link,-0.070657030746,-0.0109429775438,-0.0261765034964,-0.997097099541,1.0,0.0,0.0,0.0,1.0,0.0,0.0,0.0,1.0,-0.0330204702914,-0.0437224432826,0.0144350035116,1.21846967915e-07,0.0,0.0,0.0,1.21846967915e-07,0.0,0.0,0.0,1.21846967915e-07,0.2157463,0.32361945,10.787315,9e-08,0.0,0.0,0.0,9e-08,0.0,0.0,0.0,9e-08
1536693568821447512,6273,1536693568821207864,base_link,-0.0391980255045,-0.00873407641765,-0.0275935879151,-0.99881220688,1.0,0.0,0.0,0.0,1.0,0.0,0.0,0.0,1.0,-0.106875680387,-0.00807032734156,-0.0296554975212,1.21846967915e-07,0.0,0.0,0.0,1.21846967915e-07,0.0,0.0,0.0,1.21846967915e-07,0.0,0.57859235,9.3555441,9e-08,0.0,0.0,0.0,9e-08,0.0,0.0,0.0,9e-08
1536693569249300568,6274,1536693569248980152,base_link,-0.0344340803718,-0.00473178891682,-0.0262777426436,-0.999050241241,1.0,0.0,0.0,0.0,1.0,0.0,0.0,0.0,1.0,0.00647226627916,-0.0199141856283,0.0266576074064,1.21846967915e-07,0.0,0.0,0.0,1.21846967915e-07,0.0,0.0,0.0,1.21846967915e-07,0.12748645,0.50013915,9.67916355,9e-08,0.0,0.0,0.0,9e-08,0.0,0.0,0.0,9e-08
1536693569808325016,6275,1536693569807975032,base_link,-0.0260546752484,-0.00247598010203,-0.035528187145,-0.999025911245,1.0,0.0,0.0,0.0,1.0,0.0,0.0,0.0,1.0,-0.0221589319408,-0.00435718242079,0.0196415372193,1.21846967915e-07,0.0,0.0,0.0,1.21846967915e-07,0.0,0.0,0.0,1.21846967915e-07,0.0784532,0.65704555,9.3555441,9e-08,0.0,0.0,0.0,9e-08,0.0,0.0,0.0,9e-08
1536693570113692216,6276,1536693570113304472,base_link,-0.0246529081498,-0.00232164010756,-0.0365352313648,-0.999025535698,1.0,0.0,0.0,0.0,1.0,0.0,0.0,0.0,1.0,0.047076754272,0.00780727434903,0.00641210656613,1.21846967915e-07,0.0,0.0,0.0,1.21846967915e-07,0.0,0.0,0.0,1.21846967915e-07,0.14709975,0.30400615,9.93413645,9e-08,0.0,0.0,0.0,9e-08,0.0,0.0,0.0,9e-08
1536693570539999672,6277,1536693570538739480,base_link,-0.0380504541753,-0.0111577960829,-0.0407577161565,-0.998381928471,1.0,0.0,0.0,0.0,1.0,0.0,0.0,0.0,1.0,0.0999203324318,0.0488119609654,0.034262612462,1.21846967915e-07,0.0,0.0,0.0,1.21846967915e-07,0.0,0.0,0.0,1.21846967915e-07,0.1176798,0.42168595,8.7671451,9e-08,0.0,0.0,0.0,9e-08,0.0,0.0,0.0,9e-08
1536693570906954648,6278,1536693570906743640,base_link,-0.0493827204358,-0.0174997864768,-0.0469306854577,-0.99752324041,1.0,0.0,0.0,0.0,1.0,0.0,0.0,0.0,1.0,0.0686839073896,0.0199634805322,0.0139034725726,1.21846967915e-07,0.0,0.0,0.0,1.21846967915e-07,0.0,0.0,0.0,1.21846967915e-07,0.0588399,0.51975245,9.48303055,9e-08,0.0,0.0,0.0,9e-08,0.0,0.0,0.0,9e-08
1536693571238552952,6279,1536693571238236568,base_link,-0.0546503927836,-0.0204600804565,-0.0456274750304,-0.997252652641,1.0,0.0,0.0,0.0,1.0,0.0,0.0,0.0,1.0,0.0342636406422,0.00594962853938,-0.032730601728,1.21846967915e-07,0.0,0.0,0.0,1.21846967915e-07,0.0,0.0,0.0,1.21846967915e-07,0.2941995,0.6276256,9.1790244,9e-08,0.0,0.0,0.0,9e-08,0.0,0.0,0.0,9e-08
1536693571723274680,6280,1536693571723028920,base_link,-0.0603986259778,-0.0165658895189,-0.0404567387248,-0.997216540966,1.0,0.0,0.0,0.0,1.0,0.0,0.0,0.0,1.0,-0.0450543276966,-0.017462098971,0.00613342085853,1.21846967915e-07,0.0,0.0,0.0,1.21846967915e-07,0.0,0.0,0.0,1.21846967915e-07,0.38245935,0.7060788,10.40485565,9e-08,0.0,0.0,0.0,9e-08,0.0,0.0,0.0,9e-08
1536693572195879128,6281,1536693572193556536,base_link,-0.0558961953669,-0.0111256439058,-0.0398426896857,-0.997579267763,1.0,0.0,0.0,0.0,1.0,0.0,0.0,0.0,1.0,-0.031478907913,-0.0271191075444,-0.00671247998253,1.21846967915e-07,0.0,0.0,0.0,1.21846967915e-07,0.0,0.0,0.0,1.21846967915e-07,0.34323275,0.42168595,10.6696352,9e-08,0.0,0.0,0.0,9e-08,0.0,0.0,0.0,9e-08
1536693572595575480,6282,1536693572595216120,base_link,-0.0864030052439,-0.00775592414658,-0.0377090051296,-0.995516146156,1.0,0.0,0.0,0.0,1.0,0.0,0.0,0.0,1.0,0.236015111208,-0.0408133007586,-0.0112937428057,1.21846967915e-07,0.0,0.0,0.0,1.21846967915e-07,0.0,0.0,0.0,1.21846967915e-07,0.4903325,0.6472389,10.52253545,9e-08,0.0,0.0,0.0,9e-08,0.0,0.0,0.0,9e-08
1536693572945053144,6283,1536693572944395736,base_link,-0.122668116557,-0.000231199207659,-0.0335176197498,-0.991881569994,1.0,0.0,0.0,0.0,1.0,0.0,0.0,0.0,1.0,0.207814246416,-0.0281561110169,-0.0349700562656,1.21846967915e-07,0.0,0.0,0.0,1.21846967915e-07,0.0,0.0,0.0,1.21846967915e-07,0.3530394,0.7649187,10.9442214,9e-08,0.0,0.0,0.0,9e-08,0.0,0.0,0.0,9e-08
1536693573383574552,6284,1536693573383162968,base_link,-0.161590124494,-0.00156663394924,-0.0133850495557,-0.986765938697,1.0,0.0,0.0,0.0,1.0,0.0,0.0,0.0,1.0,0.183809876442,-0.00562493130565,-0.167239964008,1.21846967915e-07,0.0,0.0,0.0,1.21846967915e-07,0.0,0.0,0.0,1.21846967915e-07,0.2941995,0.77472535,9.9439431,9e-08,0.0,0.0,0.0,9e-08,0.0,0.0,0.0,9e-08
1536693573773741912,6285,1536693573773525464,base_link,-0.215712705831,-0.0030555192646,0.0209949286399,-0.976226359671,1.0,0.0,0.0,0.0,1.0,0.0,0.0,0.0,1.0,0.347873419523,-0.0411807596684,-0.171061575413,1.21846967915e-07,0.0,0.0,0.0,1.21846967915e-07,0.0,0.0,0.0,1.21846967915e-07,0.4511059,0.4707192,10.28717585,9e-08,0.0,0.0,0.0,9e-08,0.0,0.0,0.0,9e-08
1536693574177805368,6286,1536693574177486104,base_link,-0.277351488182,0.0115273024397,0.0597607024809,-0.958838845553,1.0,0.0,0.0,0.0,1.0,0.0,0.0,0.0,1.0,0.231218099594,-0.142845630646,-0.184747949243,1.21846967915e-07,0.0,0.0,0.0,1.21846967915e-07,0.0,0.0,0.0,1.21846967915e-07,0.5491724,0.6668522,10.7088618,9e-08,0.0,0.0,0.0,9e-08,0.0,0.0,0.0,9e-08
1536693574608019416,6287,1536693574607711160,base_link,-0.314366453016,0.0356479267076,0.112027242492,-0.941994084631,1.0,0.0,0.0,0.0,1.0,0.0,0.0,0.0,1.0,0.127564549446,-0.187094777822,-0.242862939835,1.21846967915e-07,0.0,0.0,0.0,1.21846967915e-07,0.0,0.0,0.0,1.21846967915e-07,0.69627215,0.8041453,11.69933345,9e-08,0.0,0.0,0.0,9e-08,0.0,0.0,0.0,9e-08
1536693574899773112,6288,1536693574899241720,base_link,-0.330034807787,0.0551013451891,0.156607935038,-0.929254982279,1.0,0.0,0.0,0.0,1.0,0.0,0.0,0.0,1.0,0.116734497249,-0.231669008732,-0.273407250643,1.21846967915e-07,0.0,0.0,0.0,1.21846967915e-07,0.0,0.0,0.0,1.21846967915e-07,0.83356525,0.8433719,11.7091401,9e-08,0.0,0.0,0.0,9e-08,0.0,0.0,0.0,9e-08
1536693575241765208,6289,1536693575241508088,base_link,-0.342143793066,0.0823408709505,0.213300059275,-0.911405886831,1.0,0.0,0.0,0.0,1.0,0.0,0.0,0.0,1.0,0.0939213186502,-0.242690205574,-0.275377243757,1.21846967915e-07,0.0,0.0,0.0,1.21846967915e-07,0.0,0.0,0.0,1.21846967915e-07,0.7256921,1.04931155,12.01314625,9e-08,0.0,0.0,0.0,9e-08,0.0,0.0,0.0,9e-08
1536693575556967544,6290,1536693575556416408,base_link,-0.347097511323,0.107573162572,0.269532253192,-0.891798013463,1.0,0.0,0.0,0.0,1.0,0.0,0.0,0.0,1.0,0.010283941403,-0.265868991613,-0.317736804485,1.21846967915e-07,0.0,0.0,0.0,1.21846967915e-07,0.0,0.0,0.0,1.21846967915e-07,0.9218251,0.9610517,12.05237285,9e-08,0.0,0.0,0.0,9e-08,0.0,0.0,0.0,9e-08
1536693575851045752,6291,1536693575850847256,base_link,-0.345353699869,0.12994401865,0.32055484755,-0.872404701796,1.0,0.0,0.0,0.0,1.0,0.0,0.0,0.0,1.0,0.0568530000746,-0.272068887949,-0.289218366146,1.21846967915e-07,0.0,0.0,0.0,1.21846967915e-07,0.0,0.0,0.0,1.21846967915e-07,0.9218251,1.10815145,12.69961175,9e-08,0.0,0.0,0.0,9e-08,0.0,0.0,0.0,9e-08
1536693576176789688,6292,1536693576176361240,base_link,-0.337864985963,0.153820149923,0.378714595134,-0.847798247327,1.0,0.0,0.0,0.0,1.0,0.0,0.0,0.0,1.0,0.0277399588376,-0.273642212152,-0.343635380268,1.21846967915e-07,0.0,0.0,0.0,1.21846967915e-07,0.0,0.0,0.0,1.21846967915e-07,1.0198916,1.08853815,12.5917386,9e-08,0.0,0.0,0.0,9e-08,0.0,0.0,0.0,9e-08
1536693576550211192,6293,1536693576549982136,base_link,-0.323830821394,0.181682583708,0.448288272457,-0.81311909501,1.0,0.0,0.0,0.0,1.0,0.0,0.0,0.0,1.0,-0.00430806539953,-0.319702476263,-0.265615791082,1.21846967915e-07,0.0,0.0,0.0,1.21846967915e-07,0.0,0.0,0.0,1.21846967915e-07,1.20621795,0.75511205,14.20983585,9e-08,0.0,0.0,0.0,9e-08,0.0,0.0,0.0,9e-08
1536693576783676504,6294,1536693576783079224,base_link,-0.302053299323,0.199000013614,0.488213967038,-0.794235431934,1.0,0.0,0.0,0.0,1.0,0.0,0.0,0.0,1.0,-0.133208826184,-0.305573761463,-0.262385100126,1.21846967915e-07,0.0,0.0,0.0,1.21846967915e-07,0.0,0.0,0.0,1.21846967915e-07,1.0198916,1.2552512,14.4746154,9e-08,0.0,0.0,0.0,9e-08,0.0,0.0,0.0,9e-08
1536693577243375224,6295,1536693577243034488,base_link,-0.260521948729,0.215997667935,0.563334293926,-0.753742525644,1.0,0.0,0.0,0.0,1.0,0.0,0.0,0.0,1.0,-0.13430069387,-0.201686143875,-0.310259819031,1.21846967915e-07,0.0,0.0,0.0,1.21846967915e-07,0.0,0.0,0.0,1.21846967915e-07,0.61781895,0.89240515,12.4740588,9e-08,0.0,0.0,0.0,9e-08,0.0,0.0,0.0,9e-08
1536693577633273432,6296,1536693577624819608,base_link,-0.220140555617,0.212338797187,0.618895919113,-0.723476476664,1.0,0.0,0.0,0.0,1.0,0.0,0.0,0.0,1.0,-0.273502707481,-0.156479030848,-0.215748116374,1.21846967915e-07,0.0,0.0,0.0,1.21846967915e-07,0.0,0.0,0.0,1.21846967915e-07,0.32361945,0.6080123,11.6895268,9e-08,0.0,0.0,0.0,9e-08,0.0,0.0,0.0,9e-08
1536693577999557048,6297,1536693577999206328,base_link,-0.159422541449,0.17701909461,0.665761048934,-0.707114502144,1.0,0.0,0.0,0.0,1.0,0.0,0.0,0.0,1.0,-0.432550400496,-0.0716765746474,-0.208979457617,1.21846967915e-07,0.0,0.0,0.0,1.21846967915e-07,0.0,0.0,0.0,1.21846967915e-07,0.0196133,0.8629852,10.7480884,9e-08,0.0,0.0,0.0,9e-08,0.0,0.0,0.0,9e-08
1536693578252034008,6298,1536693578251487160,base_link,0.125767805951,-0.144408377401,-0.696054626648,0.691980228218,1.0,0.0,0.0,0.0,1.0,0.0,0.0,0.0,1.0,-0.349466711283,-0.00197002943605,-0.244756340981,1.21846967915e-07,0.0,0.0,0.0,1.21846967915e-07,0.0,0.0,0.0,1.21846967915e-07,-0.30400615,0.89240515,9.89490985,9e-08,0.0,0.0,0.0,9e-08,0.0,0.0,0.0,9e-08
1536693578546002424,6299,1536693578545791896,base_link,0.0913492702151,-0.100669354157,-0.72785142723,0.67212594939,1.0,0.0,0.0,0.0,1.0,0.0,0.0,0.0,1.0,-0.363704562187,0.00839468371123,-0.2073110044,1.21846967915e-07,0.0,0.0,0.0,1.21846967915e-07,0.0,0.0,0.0,1.21846967915e-07,-0.5295591,0.53936575,9.0417313,9e-08,0.0,0.0,0.0,9e-08,0.0,0.0,0.0,9e-08
1536693578870380344,6300,1536693578870152696,base_link,0.0598280018149,-0.058447726186,-0.747604482059,0.658856594341,1.0,0.0,0.0,0.0,1.0,0.0,0.0,0.0,1.0,-0.3666190207,0.091605477035,-0.0892356038094,1.21846967915e-07,0.0,0.0,0.0,1.21846967915e-07,0.0,0.0,0.0,1.21846967915e-07,-0.55897905,0.2745862,9.1397978,9e-08,0.0,0.0,0.0,9e-08,0.0,0.0,0.0,9e-08
1536693579308819224,6301,1536693579308316408,base_link,0.0235557770725,0.00113171600194,-0.751955887236,0.658791460354,1.0,0.0,0.0,0.0,1.0,0.0,0.0,0.0,1.0,-0.199280291796,0.0627125501633,0.0049784919247,1.21846967915e-07,0.0,0.0,0.0,1.21846967915e-07,0.0,0.0,0.0,1.21846967915e-07,-0.5687857,0.40207265,8.14932615,9e-08,0.0,0.0,0.0,9e-08,0.0,0.0,0.0,9e-08
1536693579692399128,6302,1536693579692166936,base_link,0.0177408792747,0.0259936916158,-0.748117574008,0.662819496288,1.0,0.0,0.0,0.0,1.0,0.0,0.0,0.0,1.0,-0.0908278226852,0.0708503127098,0.0362331271172,1.21846967915e-07,0.0,0.0,0.0,1.21846967915e-07,0.0,0.0,0.0,1.21846967915e-07,-0.5099458,0.28439285,8.79656505,9e-08,0.0,0.0,0.0,9e-08,0.0,0.0,0.0,9e-08
1536693580048444408,6303,1536693580048094520,base_link,0.0249380833507,0.0368283146275,-0.741919019396,0.669012657503,1.0,0.0,0.0,0.0,1.0,0.0,0.0,0.0,1.0,-0.00155271030962,0.0735590085387,0.0438418239355,1.21846967915e-07,0.0,0.0,0.0,1.21846967915e-07,0.0,0.0,0.0,1.21846967915e-07,-0.57859235,0.2353596,8.9632781,9e-08,0.0,0.0,0.0,9e-08,0.0,0.0,0.0,9e-08
1536693580420197400,6304,1536693580419892344,base_link,0.0231356399051,0.0569833420915,-0.731335355008,0.679239456602,1.0,0.0,0.0,0.0,1.0,0.0,0.0,0.0,1.0,-0.0822078734636,0.0391131266952,0.0640005767345,1.21846967915e-07,0.0,0.0,0.0,1.21846967915e-07,0.0,0.0,0.0,1.21846967915e-07,-0.5687857,0.28439285,8.65927195,9e-08,0.0,0.0,0.0,9e-08,0.0,0.0,0.0,9e-08
1536693580851326136,6305,1536693580851006744,base_link,0.0219927909526,0.0686517270829,-0.718114092268,0.692181629344,1.0,0.0,0.0,0.0,1.0,0.0,0.0,0.0,1.0,0.0198704842478,0.00722085498273,0.0858171880245,1.21846967915e-07,0.0,0.0,0.0,1.21846967915e-07,0.0,0.0,0.0,1.21846967915e-07,-0.55897905,0.48052585,9.4536106,9e-08,0.0,0.0,0.0,9e-08,0.0,0.0,0.0,9e-08
1536693581364772344,6306,1536693581363486904,base_link,-0.0256952484429,-0.0584175879192,0.703491651488,-0.707832350147,1.0,0.0,0.0,0.0,1.0,0.0,0.0,0.0,1.0,-0.00486378371716,-0.0322983339429,0.039529517293,1.21846967915e-07,0.0,0.0,0.0,1.21846967915e-07,0.0,0.0,0.0,1.21846967915e-07,-0.3726527,0.63743225,11.1403544,9e-08,0.0,0.0,0.0,9e-08,0.0,0.0,0.0,9e-08
1536693581665280280,6307,1536693581665020280,base_link,-0.026713946642,-0.0484718254386,0.702067033546,-0.709956849112,1.0,0.0,0.0,0.0,1.0,0.0,0.0,0.0,1.0,0.112113624811,-0.0537813231349,0.0216201562434,1.21846967915e-07,0.0,0.0,0.0,1.21846967915e-07,0.0,0.0,0.0,1.21846967915e-07,-0.2941995,0.4118793,11.1991943,9e-08,0.0,0.0,0.0,9e-08,0.0,0.0,0.0,9e-08
1536693582074738072,6308,1536693582073667608,base_link,-0.0356617630696,-0.0240167718185,0.692246156417,-0.720379547358,1.0,0.0,0.0,0.0,1.0,0.0,0.0,0.0,1.0,0.0621558092535,-0.042435221374,0.0962651222944,1.21846967915e-07,0.0,0.0,0.0,1.21846967915e-07,0.0,0.0,0.0,1.21846967915e-07,-0.20593965,0.4118793,10.87557485,9e-08,0.0,0.0,0.0,9e-08,0.0,0.0,0.0,9e-08
1536693582413910264,6309,1536693582413530776,base_link,-0.0304547882563,-0.0158508444307,0.682513333993,-0.730066302143,1.0,0.0,0.0,0.0,1.0,0.0,0.0,0.0,1.0,-0.113146364689,-0.0447565577924,0.0288896001875,1.21846967915e-07,0.0,0.0,0.0,1.21846967915e-07,0.0,0.0,0.0,1.21846967915e-07,-0.26477955,0.7453054,11.375714,9e-08,0.0,0.0,0.0,9e-08,0.0,0.0,0.0,9e-08
1536693582810196152,6310,1536693582809006328,base_link,-0.0408833758476,-0.00307273724784,0.681512840549,-0.730656797705,1.0,0.0,0.0,0.0,1.0,0.0,0.0,0.0,1.0,0.138569533825,0.0025789225474,-0.00359969493002,1.21846967915e-07,0.0,0.0,0.0,1.21846967915e-07,0.0,0.0,0.0,1.21846967915e-07,-0.24516625,0.32361945,9.8262633,9e-08,0.0,0.0,0.0,9e-08,0.0,0.0,0.0,9e-08
1536693583418766968,6311,1536693583418540472,base_link,-0.0368925995321,-0.00749477500376,0.670249495674,-0.741180395043,1.0,0.0,0.0,0.0,1.0,0.0,0.0,0.0,1.0,-0.00635684467852,0.0177105516195,0.0410157442093,1.21846967915e-07,0.0,0.0,0.0,1.21846967915e-07,0.0,0.0,0.0,1.21846967915e-07,-0.34323275,0.5295591,10.42446895,9e-08,0.0,0.0,0.0,9e-08,0.0,0.0,0.0,9e-08
1536693583922952824,6312,1536693583922740632,base_link,-0.0541474023942,0.00224289023152,0.675781874378,-0.735106717776,1.0,0.0,0.0,0.0,1.0,0.0,0.0,0.0,1.0,0.247878715396,-0.0181436873972,-0.03024937585,1.21846967915e-07,0.0,0.0,0.0,1.21846967915e-07,0.0,0.0,0.0,1.21846967915e-07,-0.20593965,0.0980665,9.91452315,9e-08,0.0,0.0,0.0,9e-08,0.0,0.0,0.0,9e-08
1536693584212623288,6313,1536693584212292664,base_link,-0.0703726970687,0.0213255404492,0.671702381141,-0.737162679468,1.0,0.0,0.0,0.0,1.0,0.0,0.0,0.0,1.0,0.106485791504,-0.0121334707364,0.07186229527,1.21846967915e-07,0.0,0.0,0.0,1.21846967915e-07,0.0,0.0,0.0,1.21846967915e-07,-0.14709975,0.4903325,10.32640245,9e-08,0.0,0.0,0.0,9e-08,0.0,0.0,0.0,9e-08
1536693584462928920,6314,1536693584462581656,base_link,-0.0722454637371,0.0217514299632,0.668109165358,-0.740228080681,1.0,0.0,0.0,0.0,1.0,0.0,0.0,0.0,1.0,0.044464379549,0.0174477063119,-0.0180385466665,1.21846967915e-07,0.0,0.0,0.0,1.21846967915e-07,0.0,0.0,0.0,1.21846967915e-07,-0.2941995,0.8825985,10.05181625,9e-08,0.0,0.0,0.0,9e-08,0.0,0.0,0.0,9e-08
1536693584894289752,6315,1536693584893645816,base_link,-0.0790364509893,0.0366676760045,0.679800420656,-0.728203343186,1.0,0.0,0.0,0.0,1.0,0.0,0.0,0.0,1.0,0.0527797043324,-0.035645775497,-0.0824167132378,1.21846967915e-07,0.0,0.0,0.0,1.21846967915e-07,0.0,0.0,0.0,1.21846967915e-07,-0.00980665,0.6276256,10.52253545,9e-08,0.0,0.0,0.0,9e-08,0.0,0.0,0.0,9e-08
1536693585194654968,6316,1536693585194424504,base_link,-0.0703059961883,0.0361666152884,0.688051565275,-0.721341865111,1.0,0.0,0.0,0.0,1.0,0.0,0.0,0.0,1.0,0.0758703649044,-0.0346148833632,-0.0659757629037,1.21846967915e-07,0.0,0.0,0.0,1.21846967915e-07,0.0,0.0,0.0,1.21846967915e-07,-0.00980665,0.63743225,10.3754357,9e-08,0.0,0.0,0.0,9e-08,0.0,0.0,0.0,9e-08
1536693585610160760,6317,1536693585609823672,base_link,-0.100062938418,0.0760861249197,0.693747644026,-0.709163250851,1.0,0.0,0.0,0.0,1.0,0.0,0.0,0.0,1.0,0.234914064407,-0.0485437363386,-0.0372006632388,1.21846967915e-07,0.0,0.0,0.0,1.21846967915e-07,0.0,0.0,0.0,1.21846967915e-07,0.0980665,0.6080123,10.4931155,9e-08,0.0,0.0,0.0,9e-08,0.0,0.0,0.0,9e-08
1536693586089544088,6318,1536693586088849688,base_link,0.132110207387,-0.115331238123,-0.700080118354,0.692194644954,1.0,0.0,0.0,0.0,1.0,0.0,0.0,0.0,1.0,0.203374132514,-0.0211903918535,-0.111631974578,1.21846967915e-07,0.0,0.0,0.0,1.21846967915e-07,0.0,0.0,0.0,1.21846967915e-07,0.1372931,0.61781895,10.22833595,9e-08,0.0,0.0,0.0,9e-08,0.0,0.0,0.0,9e-08
1536693586403263064,6319,1536693586402901272,base_link,0.164646497658,-0.148125704958,-0.708753021985,0.669790609196,1.0,0.0,0.0,0.0,1.0,0.0,0.0,0.0,1.0,0.277495890856,-0.0425519496202,-0.135308519006,1.21846967915e-07,0.0,0.0,0.0,1.21846967915e-07,0.0,0.0,0.0,1.21846967915e-07,0.3138128,0.6276256,9.7870367,9e-08,0.0,0.0,0.0,9e-08,0.0,0.0,0.0,9e-08
1536693586838906392,6320,1536693586838474264,base_link,0.187292199645,-0.17846348775,-0.728408639262,0.634423572813,1.0,0.0,0.0,0.0,1.0,0.0,0.0,0.0,1.0,0.190203040838,-0.0713055357337,-0.236762061715,1.21846967915e-07,0.0,0.0,0.0,1.21846967915e-07,0.0,0.0,0.0,1.21846967915e-07,0.38245935,1.16699135,9.4339973,9e-08,0.0,0.0,0.0,9e-08,0.0,0.0,0.0,9e-08
1536693587284962648,6321,1536693587284526392,base_link,0.212410478124,-0.224155730565,-0.758873547493,0.573364575251,1.0,0.0,0.0,0.0,1.0,0.0,0.0,0.0,1.0,0.280215650797,-0.189117133617,-0.254994302988,1.21846967915e-07,0.0,0.0,0.0,1.21846967915e-07,0.0,0.0,0.0,1.21846967915e-07,0.51975245,0.6668522,11.0619012,9e-08,0.0,0.0,0.0,9e-08,0.0,0.0,0.0,9e-08
1536693587648463896,6322,1536693587648202552,base_link,0.216876465204,-0.274625371188,-0.779565243297,0.519445411746,1.0,0.0,0.0,0.0,1.0,0.0,0.0,0.0,1.0,0.225823968649,-0.275301486254,-0.234556660056,1.21846967915e-07,0.0,0.0,0.0,1.21846967915e-07,0.0,0.0,0.0,1.21846967915e-07,0.77472535,0.8041453,12.356379,9e-08,0.0,0.0,0.0,9e-08,0.0,0.0,0.0,9e-08
1536693588020925016,6323,1536693588020577592,base_link,0.196595248716,-0.314680930277,-0.806466352129,0.460367508829,1.0,0.0,0.0,0.0,1.0,0.0,0.0,0.0,1.0,0.0387068912387,-0.30393332243,-0.245592787862,1.21846967915e-07,0.0,0.0,0.0,1.21846967915e-07,0.0,0.0,0.0,1.21846967915e-07,1.24544455,1.14737805,13.79795655,9e-08,0.0,0.0,0.0,9e-08,0.0,0.0,0.0,9e-08
1536693588383017784,6324,1536693588382689240,base_link,0.169293314881,-0.337013868598,-0.833514519354,0.403751126235,1.0,0.0,0.0,0.0,1.0,0.0,0.0,0.0,1.0,0.0562921762466,-0.293659597635,-0.269213557243,1.21846967915e-07,0.0,0.0,0.0,1.21846967915e-07,0.0,0.0,0.0,1.21846967915e-07,1.52003075,1.1179581,13.22917085,9e-08,0.0,0.0,0.0,9e-08,0.0,0.0,0.0,9e-08
1536693588811307352,6325,1536693588810977592,base_link,0.134801677029,-0.349523598416,-0.869454595552,0.322041097212,1.0,0.0,0.0,0.0,1.0,0.0,0.0,0.0,1.0,0.0246279407293,-0.263424754143,-0.336059749126,1.21846967915e-07,0.0,0.0,0.0,1.21846967915e-07,0.0,0.0,0.0,1.21846967915e-07,1.61809725,1.176798,13.5920169,9e-08,0.0,0.0,0.0,9e-08,0.0,0.0,0.0,9e-08
1536693589206426904,6326,1536693589205707480,base_link,0.100061896186,-0.368869492378,-0.891326157157,0.24384543484,1.0,0.0,0.0,0.0,1.0,0.0,0.0,0.0,1.0,-0.0843087434769,-0.360080212355,-0.284590423107,1.21846967915e-07,0.0,0.0,0.0,1.21846967915e-07,0.0,0.0,0.0,1.21846967915e-07,1.57887065,0.8825985,15.15127425,9e-08,0.0,0.0,0.0,9e-08,0.0,0.0,0.0,9e-08
1536693589566361848,6327,1536693589566139512,base_link,0.0512591448787,-0.372755119124,-0.909008463754,0.179247689122,1.0,0.0,0.0,0.0,1.0,0.0,0.0,0.0,1.0,-0.0399604588747,-0.35245808959,-0.237271979451,1.21846967915e-07,0.0,0.0,0.0,1.21846967915e-07,0.0,0.0,0.0,1.21846967915e-07,1.42196425,1.1375714,16.36729885,9e-08,0.0,0.0,0.0,9e-08,0.0,0.0,0.0,9e-08
1536693589942585816,6328,1536693589941503864,base_link,0.0118097985995,-0.355813164726,-0.926576228845,0.12130132977,1.0,0.0,0.0,0.0,1.0,0.0,0.0,0.0,1.0,-0.175355091691,-0.251641660929,-0.247132837772,1.21846967915e-07,0.0,0.0,0.0,1.21846967915e-07,0.0,0.0,0.0,1.21846967915e-07,1.01008495,1.176798,12.83690485,9e-08,0.0,0.0,0.0,9e-08,0.0,0.0,0.0,9e-08
1536693590402067544,6329,1536693590401789528,base_link,-0.0309235061838,-0.311837045045,-0.949106042894,0.0316087558364,1.0,0.0,0.0,0.0,1.0,0.0,0.0,0.0,1.0,-0.280284315348,-0.216081410646,-0.268671214581,1.21846967915e-07,0.0,0.0,0.0,1.21846967915e-07,0.0,0.0,0.0,1.21846967915e-07,0.5295591,0.79433865,12.67999845,9e-08,0.0,0.0,0.0,9e-08,0.0,0.0,0.0,9e-08
1536693590800315256,6330,1536693590800098200,base_link,-0.0571963632679,-0.25822671585,-0.964043046795,-0.0258562019029,1.0,0.0,0.0,0.0,1.0,0.0,0.0,0.0,1.0,-0.338863611221,-0.142681717873,-0.183710902929,1.21846967915e-07,0.0,0.0,0.0,1.21846967915e-07,0.0,0.0,0.0,1.21846967915e-07,0.14709975,0.7453054,12.38579895,9e-08,0.0,0.0,0.0,9e-08,0.0,0.0,0.0,9e-08
1536693591142827960,6331,1536693591142426456,base_link,-0.0654547114372,-0.198839492564,-0.975597122267,-0.066247958244,1.0,0.0,0.0,0.0,1.0,0.0,0.0,0.0,1.0,-0.394651383162,-0.0502798855305,-0.118969663978,1.21846967915e-07,0.0,0.0,0.0,1.21846967915e-07,0.0,0.0,0.0,1.21846967915e-07,0.04903325,0.3726527,10.11065615,9e-08,0.0,0.0,0.0,9e-08,0.0,0.0,0.0,9e-08
1536693591592722552,6332,1536693591592333464,base_link,-0.0489392322264,-0.11354329937,-0.987465085919,-0.0981100138031,1.0,0.0,0.0,0.0,1.0,0.0,0.0,0.0,1.0,-0.425624519587,0.0927467346191,-0.131886005402,1.21846967915e-07,0.0,0.0,0.0,1.21846967915e-07,0.0,0.0,0.0,1.21846967915e-07,-0.36284605,0.7453054,7.7080269,9e-08,0.0,0.0,0.0,9e-08,0.0,0.0,0.0,9e-08
1536693592043498968,6333,1536693592043274840,base_link,-0.0169406551913,-0.0344301840802,-0.990651757528,-0.130907111847,1.0,0.0,0.0,0.0,1.0,0.0,0.0,0.0,1.0,-0.32838627696,0.0907031744719,-0.105967700481,1.21846967915e-07,0.0,0.0,0.0,1.21846967915e-07,0.0,0.0,0.0,1.21846967915e-07,-0.5491724,0.46091255,9.85568325,9e-08,0.0,0.0,0.0,9e-08,0.0,0.0,0.0,9e-08
1536693592365410808,6334,1536693592365093624,base_link,0.00164248457271,0.0106652815779,-0.990749266309,-0.135275442422,1.0,0.0,0.0,0.0,1.0,0.0,0.0,0.0,1.0,-0.287758708,0.0767165347934,0.0370701700449,1.21846967915e-07,0.0,0.0,0.0,1.21846967915e-07,0.0,0.0,0.0,1.21846967915e-07,-0.55897905,0.28439285,8.67888525,9e-08,0.0,0.0,0.0,9e-08,0.0,0.0,0.0,9e-08
1536693592793892152,6335,1536693592793587480,base_link,0.0234706366696,0.0472331506454,-0.990891528997,-0.123903738671,1.0,0.0,0.0,0.0,1.0,0.0,0.0,0.0,1.0,-0.147259831429,0.0958595350385,0.0573638267815,1.21846967915e-07,0.0,0.0,0.0,1.21846967915e-07,0.0,0.0,0.0,1.21846967915e-07,-0.4707192,0.392266,9.0809579,9e-08,0.0,0.0,0.0,9e-08,0.0,0.0,0.0,9e-08
1536693593201403992,6336,1536693593201137688,base_link,0.0433268258324,0.0560068867945,-0.991344088694,-0.110557282013,1.0,0.0,0.0,0.0,1.0,0.0,0.0,0.0,1.0,0.0031129643321,0.0858482718468,0.0874875411391,1.21846967915e-07,0.0,0.0,0.0,1.21846967915e-07,0.0,0.0,0.0,1.21846967915e-07,-0.55897905,0.3138128,9.0613446,9e-08,0.0,0.0,0.0,9e-08,0.0,0.0,0.0,9e-08
1536693593587433304,6337,1536693593586768792,base_link,0.0580230132615,0.0402197399703,-0.992924822114,-0.0954777465097,1.0,0.0,0.0,0.0,1.0,0.0,0.0,0.0,1.0,0.12693952024,0.0653314962983,0.0718013644218,1.21846967915e-07,0.0,0.0,0.0,1.21846967915e-07,0.0,0.0,0.0,1.21846967915e-07,-0.588399,0.30400615,7.61976705,9e-08,0.0,0.0,0.0,9e-08,0.0,0.0,0.0,9e-08
1536693594095044824,6338,1536693594094728248,base_link,0.0557795862106,0.0176863450272,-0.995277893183,-0.0774451179996,1.0,0.0,0.0,0.0,1.0,0.0,0.0,0.0,1.0,-0.00783148594201,-0.0170206651092,0.0909980610013,1.21846967915e-07,0.0,0.0,0.0,1.21846967915e-07,0.0,0.0,0.0,1.21846967915e-07,-0.5295591,0.48052585,10.002783,9e-08,0.0,0.0,0.0,9e-08,0.0,0.0,0.0,9e-08
1536693594475094648,6339,1536693594474469336,base_link,0.0542189527215,0.0160130069673,-0.996323327051,-0.0643717076712,1.0,0.0,0.0,0.0,1.0,0.0,0.0,0.0,1.0,0.0208061262965,0.00770444609225,0.0494791306555,1.21846967915e-07,0.0,0.0,0.0,1.21846967915e-07,0.0,0.0,0.0,1.21846967915e-07,-0.42168595,0.32361945,9.18883105,9e-08,0.0,0.0,0.0,9e-08,0.0,0.0,0.0,9e-08
1536693594760234008,6340,1536693594758039128,base_link,0.0519083528306,0.0158699540765,-0.996835719889,-0.0580707759411,1.0,0.0,0.0,0.0,1.0,0.0,0.0,0.0,1.0,0.0497181303799,-0.0251763015985,0.038855060935,1.21846967915e-07,0.0,0.0,0.0,1.21846967915e-07,0.0,0.0,0.0,1.21846967915e-07,-0.40207265,0.44129925,10.34601575,9e-08,0.0,0.0,0.0,9e-08,0.0,0.0,0.0,9e-08
1536693595117761176,6341,1536693595117497784,base_link,0.0458009245908,0.00351392965607,-0.997664500207,-0.0505516827762,1.0,0.0,0.0,0.0,1.0,0.0,0.0,0.0,1.0,0.0916210711002,-0.0278076454997,0.0399838984013,1.21846967915e-07,0.0,0.0,0.0,1.21846967915e-07,0.0,0.0,0.0,1.21846967915e-07,-0.30400615,0.4903325,10.5323421,9e-08,0.0,0.0,0.0,9e-08,0.0,0.0,0.0,9e-08
1536693595437655064,6342,1536693595437435256,base_link,0.0398513313553,-0.00981284490613,-0.998158278803,-0.0446724738609,1.0,0.0,0.0,0.0,1.0,0.0,0.0,0.0,1.0,0.0374737232924,-0.0340201258659,0.0284170098603,1.21846967915e-07,0.0,0.0,0.0,1.21846967915e-07,0.0,0.0,0.0,1.21846967915e-07,-0.1569064,0.5491724,10.60098865,9e-08,0.0,0.0,0.0,9e-08,0.0,0.0,0.0,9e-08
1536693595826819064,6343,1536693595826270424,base_link,0.0298600706333,-0.0174754853753,-0.998516546771,-0.0420438986847,1.0,0.0,0.0,0.0,1.0,0.0,0.0,0.0,1.0,0.0897034406662,-0.0487930625677,0.00112196616828,1.21846967915e-07,0.0,0.0,0.0,1.21846967915e-07,0.0,0.0,0.0,1.21846967915e-07,0.00980665,0.5491724,11.3561007,9e-08,0.0,0.0,0.0,9e-08,0.0,0.0,0.0,9e-08
1536693596251436472,6344,1536693596251183832,base_link,0.0156133851686,-0.0396187875902,-0.998309051882,-0.0395678000843,1.0,0.0,0.0,0.0,1.0,0.0,0.0,0.0,1.0,0.0983628183603,-0.0374410152435,0.0382415130734,1.21846967915e-07,0.0,0.0,0.0,1.21846967915e-07,0.0,0.0,0.0,1.21846967915e-07,0.04903325,0.2941995,11.42474725,9e-08,0.0,0.0,0.0,9e-08,0.0,0.0,0.0,9e-08
1536693596707080856,6345,1536693596706718840,base_link,0.00482339637184,-0.0484676343144,-0.998254783441,-0.0333917745623,1.0,0.0,0.0,0.0,1.0,0.0,0.0,0.0,1.0,0.0206285510212,-0.0384964160621,-0.0106805432588,1.21846967915e-07,0.0,0.0,0.0,1.21846967915e-07,0.0,0.0,0.0,1.21846967915e-07,0.0,0.6864655,11.11093445,9e-08,0.0,0.0,0.0,9e-08,0.0,0.0,0.0,9e-08
1536693596989786136,6346,1536693596989534840,base_link,-0.00269518255513,-0.0548594018739,-0.997807871281,-0.0369138730853,1.0,0.0,0.0,0.0,1.0,0.0,0.0,0.0,1.0,0.0509633123875,-0.0420504808426,-0.017633004114,1.21846967915e-07,0.0,0.0,0.0,1.21846967915e-07,0.0,0.0,0.0,1.21846967915e-07,0.2353596,0.588399,11.0226746,9e-08,0.0,0.0,0.0,9e-08,0.0,0.0,0.0,9e-08
1536693597482496632,6347,1536693597482182840,base_link,-0.00225224128901,-0.0495022316045,-0.998162896303,-0.0348609942531,1.0,0.0,0.0,0.0,1.0,0.0,0.0,0.0,1.0,-0.0245632771403,-0.0186198987067,0.0124900806695,1.21846967915e-07,0.0,0.0,0.0,1.21846967915e-07,0.0,0.0,0.0,1.21846967915e-07,0.08825985,0.53936575,9.58109705,9e-08,0.0,0.0,0.0,9e-08,0.0,0.0,0.0,9e-08
1536693597902350712,6348,1536693597898552696,base_link,0.00215679384193,-0.0404595178641,-0.998620780543,-0.0333903028144,1.0,0.0,0.0,0.0,1.0,0.0,0.0,0.0,1.0,-0.0394656360149,0.02016646415,-0.00654311897233,1.21846967915e-07,0.0,0.0,0.0,1.21846967915e-07,0.0,0.0,0.0,1.21846967915e-07,-0.14709975,0.48052585,9.95374975,9e-08,0.0,0.0,0.0,9e-08,0.0,0.0,0.0,9e-08
1536693598217055768,6349,1536693598216711352,base_link,0.00526609875809,-0.0461852694741,-0.99829612723,-0.0352708299432,1.0,0.0,0.0,0.0,1.0,0.0,0.0,0.0,1.0,0.112895965576,0.0120211066678,-0.0210999548435,1.21846967915e-07,0.0,0.0,0.0,1.21846967915e-07,0.0,0.0,0.0,1.21846967915e-07,0.00980665,0.4118793,9.77723005,9e-08,0.0,0.0,0.0,9e-08,0.0,0.0,0.0,9e-08
1536693598750655608,6350,1536693598746304600,base_link,0.0135965161624,-0.0928514143278,-0.984107627234,-0.150751211022,1.0,0.0,0.0,0.0,1.0,0.0,0.0,0.0,1.0,0.405827134848,0.0966382026672,-0.901482462883,1.21846967915e-07,0.0,0.0,0.0,1.21846967915e-07,0.0,0.0,0.0,1.21846967915e-07,-0.04903325,-1.04931155,8.83579165,9e-08,0.0,0.0,0.0,9e-08,0.0,0.0,0.0,9e-08
1536693599116444280,6351,1536693599108691960,base_link,0.0474554100103,-0.185012106224,-0.949597954091,-0.248560315009,1.0,0.0,0.0,0.0,1.0,0.0,0.0,0.0,1.0,0.371008068323,0.261570453644,-0.221080869436,1.21846967915e-07,0.0,0.0,0.0,1.21846967915e-07,0.0,0.0,0.0,1.21846967915e-07,0.4118793,-3.06948145,8.1199062,9e-08,0.0,0.0,0.0,9e-08,0.0,0.0,0.0,9e-08
1536693599480321464,6352,1536693599479991256,base_link,0.0600638400538,-0.199906658856,-0.939868304381,-0.270328010542,1.0,0.0,0.0,0.0,1.0,0.0,0.0,0.0,1.0,-0.260436505079,-0.160629659891,-0.280314773321,1.21846967915e-07,0.0,0.0,0.0,1.21846967915e-07,0.0,0.0,0.0,1.21846967915e-07,0.4314926,-1.85345685,9.0613446,9e-08,0.0,0.0,0.0,9e-08,0.0,0.0,0.0,9e-08
1536693599845711256,6353,1536693599845282296,base_link,0.0542517579583,-0.131042913034,-0.928600370229,-0.342907938246,1.0,0.0,0.0,0.0,1.0,0.0,0.0,0.0,1.0,-0.320130944252,-0.196956753731,-0.464674800634,1.21846967915e-07,0.0,0.0,0.0,1.21846967915e-07,0.0,0.0,0.0,1.21846967915e-07,0.65704555,-2.5105024,11.4345539,9e-08,0.0,0.0,0.0,9e-08,0.0,0.0,0.0,9e-08
1536693600292795480,6354,1536693600292322872,base_link,0.0566384809692,-0.0447971291237,-0.91502574059,-0.396879318879,1.0,0.0,0.0,0.0,1.0,0.0,0.0,0.0,1.0,-0.421994268894,-0.135079920292,-0.145271152258,1.21846967915e-07,0.0,0.0,0.0,1.21846967915e-07,0.0,0.0,0.0,1.21846967915e-07,0.784532,-3.1773546,10.5127288,9e-08,0.0,0.0,0.0,9e-08,0.0,0.0,0.0,9e-08
1536693600739369336,6355,1536693600739083512,base_link,0.0586738408859,0.0613898233581,-0.907508272502,-0.411360432376,1.0,0.0,0.0,0.0,1.0,0.0,0.0,0.0,1.0,-0.447879523039,-0.202401861548,-0.109174385667,1.21846967915e-07,0.0,0.0,0.0,1.21846967915e-07,0.0,0.0,0.0,1.21846967915e-07,1.2552512,-3.26561445,10.7284751,9e-08,0.0,0.0,0.0,9e-08,0.0,0.0,0.0,9e-08
1536693601176183384,6356,1536693601175913752,base_link,0.0518106690564,0.160086830574,-0.892785568359,-0.417877721564,1.0,0.0,0.0,0.0,1.0,0.0,0.0,0.0,1.0,-0.275844722986,-0.192724108696,-0.0426720753312,1.21846967915e-07,0.0,0.0,0.0,1.21846967915e-07,0.0,0.0,0.0,1.21846967915e-07,1.5494507,-3.6284605,10.3754357,9e-08,0.0,0.0,0.0,9e-08,0.0,0.0,0.0,9e-08
1536693601548542552,6357,1536693601547448312,base_link,0.0430609820483,0.205938004034,-0.890231933941,-0.404007913426,1.0,0.0,0.0,0.0,1.0,0.0,0.0,0.0,1.0,-0.220394015312,-0.158332079649,0.0729290246964,1.21846967915e-07,0.0,0.0,0.0,1.21846967915e-07,0.0,0.0,0.0,1.21846967915e-07,1.67693715,-3.73633365,10.71866845,9e-08,0.0,0.0,0.0,9e-08,0.0,0.0,0.0,9e-08
1536693602046026904,6358,1536693602045734200,base_link,0.0229162781442,0.257069760713,-0.888095365148,-0.38036377946,1.0,0.0,0.0,0.0,1.0,0.0,0.0,0.0,1.0,-0.0919243842363,-0.124109879136,0.0323079936206,1.21846967915e-07,0.0,0.0,0.0,1.21846967915e-07,0.0,0.0,0.0,1.21846967915e-07,2.0790098,-3.81478685,10.4735022,9e-08,0.0,0.0,0.0,9e-08,0.0,0.0,0.0,9e-08
1536693602503228568,6359,1536693602502419192,base_link,0.00929815348,0.276260695409,-0.891395385868,-0.359176611943,1.0,0.0,0.0,0.0,1.0,0.0,0.0,0.0,1.0,-0.0295537803322,-0.0887850821018,0.0748365372419,1.21846967915e-07,0.0,0.0,0.0,1.21846967915e-07,0.0,0.0,0.0,1.21846967915e-07,1.9221034,-4.0403398,10.1793027,9e-08,0.0,0.0,0.0,9e-08,0.0,0.0,0.0,9e-08
1536693602846684216,6360,1536693602846184152,base_link,0.00209324060605,0.292844562096,-0.892731022474,-0.342445619489,1.0,0.0,0.0,0.0,1.0,0.0,0.0,0.0,1.0,-0.0462827607989,-0.0897533074021,0.0488714464009,1.21846967915e-07,0.0,0.0,0.0,1.21846967915e-07,0.0,0.0,0.0,1.21846967915e-07,1.95152335,-3.91285335,9.0613446,9e-08,0.0,0.0,0.0,9e-08,0.0,0.0,0.0,9e-08
1536693603283759256,6361,1536693603282709016,base_link,-0.00394821218644,0.298298113109,-0.898583271313,-0.321793026419,1.0,0.0,0.0,0.0,1.0,0.0,0.0,0.0,1.0,0.0142264245078,-0.0322939157486,0.112148575485,1.21846967915e-07,0.0,0.0,0.0,1.21846967915e-07,0.0,0.0,0.0,1.21846967915e-07,1.77500365,-4.1776329,8.34545915,9e-08,0.0,0.0,0.0,9e-08,0.0,0.0,0.0,9e-08
1536693603705408920,6362,1536693603705049048,base_link,-0.00592042546053,0.306119533709,-0.904177078655,-0.297858338946,1.0,0.0,0.0,0.0,1.0,0.0,0.0,0.0,1.0,-0.00339154340327,-0.0553076565266,0.0778336301446,1.21846967915e-07,0.0,0.0,0.0,1.21846967915e-07,0.0,0.0,0.0,1.21846967915e-07,1.63771055,-3.81478685,8.52197885,9e-08,0.0,0.0,0.0,9e-08,0.0,0.0,0.0,9e-08
1536693604007318456,6363,1536693604006912600,base_link,-0.00951343093027,0.307063616135,-0.908668566976,-0.282741694251,1.0,0.0,0.0,0.0,1.0,0.0,0.0,0.0,1.0,0.0223011560738,-0.0358340293169,0.0843185409904,1.21846967915e-07,0.0,0.0,0.0,1.21846967915e-07,0.0,0.0,0.0,1.21846967915e-07,1.8044236,-4.12859965,8.433719,9e-08,0.0,0.0,0.0,9e-08,0.0,0.0,0.0,9e-08
1536693604311672344,6364,1536693604311288184,base_link,-0.0110525083709,0.308632647595,-0.913361657194,-0.265319079722,1.0,0.0,0.0,0.0,1.0,0.0,0.0,0.0,1.0,-6.45443797112e-05,-0.0438008904457,0.102715335786,1.21846967915e-07,0.0,0.0,0.0,1.21846967915e-07,0.0,0.0,0.0,1.21846967915e-07,1.8436502,-3.97169325,8.7671451,9e-08,0.0,0.0,0.0,9e-08,0.0,0.0,0.0,9e-08
1536693604800632856,6365,1536693604800241720,base_link,-0.015794141469,0.321790847387,-0.917793363355,-0.232070114007,1.0,0.0,0.0,0.0,1.0,0.0,0.0,0.0,1.0,-0.0156630743295,-0.0804890245199,0.0946521386504,1.21846967915e-07,0.0,0.0,0.0,1.21846967915e-07,0.0,0.0,0.0,1.21846967915e-07,1.87307015,-4.2560861,8.58081875,9e-08,0.0,0.0,0.0,9e-08,0.0,0.0,0.0,9e-08
1536693605094626200,6366,1536693605094096920,base_link,-0.0218164179642,0.323524902626,-0.921208022743,-0.215015023014,1.0,0.0,0.0,0.0,1.0,0.0,0.0,0.0,1.0,0.00328515656292,-0.0737968683243,0.0968338251114,1.21846967915e-07,0.0,0.0,0.0,1.21846967915e-07,0.0,0.0,0.0,1.21846967915e-07,1.9417167,-4.0991797,9.12999115,9e-08,0.0,0.0,0.0,9e-08,0.0,0.0,0.0,9e-08
1536693605433602168,6367,1536693605433247800,base_link,-0.0321552165072,0.33035540924,-0.92354233916,-0.192096052576,1.0,0.0,0.0,0.0,1.0,0.0,0.0,0.0,1.0,0.0326862856746,-0.105147495866,0.0882704779506,1.21846967915e-07,0.0,0.0,0.0,1.21846967915e-07,0.0,0.0,0.0,1.21846967915e-07,1.97113665,-4.20705285,9.5320638,9e-08,0.0,0.0,0.0,9e-08,0.0,0.0,0.0,9e-08
1536693605853839736,6368,1536693605853537784,base_link,-0.047754507513,0.330294385394,-0.92826270848,-0.164175120025,1.0,0.0,0.0,0.0,1.0,0.0,0.0,0.0,1.0,0.0577609911561,-0.115241274238,0.0894987210631,1.21846967915e-07,0.0,0.0,0.0,1.21846967915e-07,0.0,0.0,0.0,1.21846967915e-07,1.95152335,-4.14821295,10.03220295,9e-08,0.0,0.0,0.0,9e-08,0.0,0.0,0.0,9e-08
1536693606203006808,6369,1536693606202527480,base_link,-0.0612791204549,0.330732636938,-0.931253813565,-0.140096848576,1.0,0.0,0.0,0.0,1.0,0.0,0.0,0.0,1.0,0.0327910259366,-0.110209427774,0.101300388575,1.21846967915e-07,0.0,0.0,0.0,1.21846967915e-07,0.0,0.0,0.0,1.21846967915e-07,1.8044236,-4.30511935,9.9047165,9e-08,0.0,0.0,0.0,9e-08,0.0,0.0,0.0,9e-08
1536693606555919064,6370,1536693606555424632,base_link,-0.0744846168205,0.32752141399,-0.935241453981,-0.111826597867,1.0,0.0,0.0,0.0,1.0,0.0,0.0,0.0,1.0,0.071974799037,-0.112269535661,0.109901584685,1.21846967915e-07,0.0,0.0,0.0,1.21846967915e-07,0.0,0.0,0.0,1.21846967915e-07,1.7063571,-4.1972462,9.56148375,9e-08,0.0,0.0,0.0,9e-08,0.0,0.0,0.0,9e-08
1536693607006944152,6371,1536693607006692408,base_link,-0.0878923826593,0.319109755084,-0.940522272334,-0.0765620566829,1.0,0.0,0.0,0.0,1.0,0.0,0.0,0.0,1.0,0.122079186141,-0.10539290309,0.0991996154189,1.21846967915e-07,0.0,0.0,0.0,1.21846967915e-07,0.0,0.0,0.0,1.21846967915e-07,1.93191005,-4.0207265,9.4928372,9e-08,0.0,0.0,0.0,9e-08,0.0,0.0,0.0,9e-08
1536693607421337176,6372,1536693607421145944,base_link,-0.0948635101977,0.288677809551,-0.951817405911,-0.0413480653872,1.0,0.0,0.0,0.0,1.0,0.0,0.0,0.0,1.0,0.235655993223,-0.00926537811756,0.14921221137,1.21846967915e-07,0.0,0.0,0.0,1.21846967915e-07,0.0,0.0,0.0,1.21846967915e-07,1.75539035,-4.32473265,10.1204628,9e-08,0.0,0.0,0.0,9e-08,0.0,0.0,0.0,9e-08
1536693607750279960,6373,1536693607749947096,base_link,-0.0915278634493,0.263800025093,-0.960098606213,-0.0155840726842,1.0,0.0,0.0,0.0,1.0,0.0,0.0,0.0,1.0,0.169257968664,-0.0243801716715,0.101972110569,1.21846967915e-07,0.0,0.0,0.0,1.21846967915e-07,0.0,0.0,0.0,1.21846967915e-07,1.53964405,-3.89324005,9.9439431,9e-08,0.0,0.0,0.0,9e-08,0.0,0.0,0.0,9e-08
1536693608167970584,6374,1536693608167102616,base_link,-0.0905057334039,0.22781420078,-0.969463071653,0.00712424341515,1.0,0.0,0.0,0.0,1.0,0.0,0.0,0.0,1.0,0.193095073104,0.00455903634429,0.0755583867431,1.21846967915e-07,0.0,0.0,0.0,1.21846967915e-07,0.0,0.0,0.0,1.21846967915e-07,1.176798,-3.6088472,9.73800345,9e-08,0.0,0.0,0.0,9e-08,0.0,0.0,0.0,9e-08
1536693608544072216,6375,1536693608543243768,base_link,-0.0812124833228,0.188527017966,-0.978242179567,0.0300721493206,1.0,0.0,0.0,0.0,1.0,0.0,0.0,0.0,1.0,0.193937569857,0.022023178637,0.0692127272487,1.21846967915e-07,0.0,0.0,0.0,1.21846967915e-07,0.0,0.0,0.0,1.21846967915e-07,0.9414384,-3.4911674,9.89490985,9e-08,0.0,0.0,0.0,9e-08,0.0,0.0,0.0,9e-08
1536693608783272696,6376,1536693608782845912,base_link,-0.0706033908935,0.164887979728,-0.983022028241,0.0386627382339,1.0,0.0,0.0,0.0,1.0,0.0,0.0,0.0,1.0,0.222473651171,0.102032132447,0.0510308928788,1.21846967915e-07,0.0,0.0,0.0,1.21846967915e-07,0.0,0.0,0.0,1.21846967915e-07,0.73549875,-3.0596748,8.3356525,9e-08,0.0,0.0,0.0,9e-08,0.0,0.0,0.0,9e-08
1536693609149237912,6377,1536693609145944728,base_link,-0.0455060205903,0.123332799365,-0.990158318472,0.0480075728569,1.0,0.0,0.0,0.0,1.0,0.0,0.0,0.0,1.0,0.262493848801,0.140075981617,0.0623009130359,1.21846967915e-07,0.0,0.0,0.0,1.21846967915e-07,0.0,0.0,0.0,1.21846967915e-07,0.6276256,-3.10870805,8.9044382,9e-08,0.0,0.0,0.0,9e-08,0.0,0.0,0.0,9e-08
1536693609529609144,6378,1536693609529302040,base_link,-0.0273852936557,0.0681029590207,-0.995916531689,0.0525575358229,1.0,0.0,0.0,0.0,1.0,0.0,0.0,0.0,1.0,0.848684728146,0.0629599392414,-0.0179697982967,1.21846967915e-07,0.0,0.0,0.0,1.21846967915e-07,0.0,0.0,0.0,1.21846967915e-07,0.50013915,-2.8439285,9.6497436,9e-08,0.0,0.0,0.0,9e-08,0.0,0.0,0.0,9e-08
1536693609994495160,6379,1536693609994178232,base_link,-0.0194864943611,-0.18741124886,-0.980799892192,0.0502878893353,1.0,0.0,0.0,0.0,1.0,0.0,0.0,0.0,1.0,0.722721636295,-0.235202223063,-0.211416825652,1.21846967915e-07,0.0,0.0,0.0,1.21846967915e-07,0.0,0.0,0.0,1.21846967915e-07,1.7259704,-1.69655045,14.81784815,9e-08,0.0,0.0,0.0,9e-08,0.0,0.0,0.0,9e-08
1536693610331560952,6380,1536693610331185784,base_link,-0.0564359351788,-0.27755690019,-0.958758412639,-0.023652876607,1.0,0.0,0.0,0.0,1.0,0.0,0.0,0.0,1.0,0.468329846859,-0.393185138702,-0.54801183939,1.21846967915e-07,0.0,0.0,0.0,1.21846967915e-07,0.0,0.0,0.0,1.21846967915e-07,2.73605535,-2.01036325,16.62227175,9e-08,0.0,0.0,0.0,9e-08,0.0,0.0,0.0,9e-08
1536693610623827032,6381,1536693610623499608,base_link,-0.0935308374224,-0.340959303916,-0.928351154029,-0.114729553022,1.0,0.0,0.0,0.0,1.0,0.0,0.0,0.0,1.0,0.410865426064,-0.462440997362,-0.606151223183,1.21846967915e-07,0.0,0.0,0.0,1.21846967915e-07,0.0,0.0,0.0,1.21846967915e-07,3.4323275,-2.24572285,16.44575205,9e-08,0.0,0.0,0.0,9e-08,0.0,0.0,0.0,9e-08
1536693611033469368,6382,1536693611031832312,base_link,-0.174374609262,-0.385853361312,-0.862739346198,-0.276390122347,1.0,0.0,0.0,0.0,1.0,0.0,0.0,0.0,1.0,-0.0465982481837,-0.734312415123,-0.617674767971,1.21846967915e-07,0.0,0.0,0.0,1.21846967915e-07,0.0,0.0,0.0,1.21846967915e-07,4.0011132,-2.69682875,18.66205495,9e-08,0.0,0.0,0.0,9e-08,0.0,0.0,0.0,9e-08
1536693611442655416,6383,1536693611442357176,base_link,-0.243997417249,-0.270816270365,-0.800913564606,-0.47503817753,1.0,0.0,0.0,0.0,1.0,0.0,0.0,0.0,1.0,-0.741397082806,-0.807330906391,-0.696230649948,1.21846967915e-07,0.0,0.0,0.0,1.21846967915e-07,0.0,0.0,0.0,1.21846967915e-07,4.10898635,-2.8831551,17.2400907,9e-08,0.0,0.0,0.0,9e-08,0.0,0.0,0.0,9e-08
1536693611795779128,6384,1536693611794707992,base_link,-0.248680112104,-0.136362624218,-0.725300181924,-0.627298240601,1.0,0.0,0.0,0.0,1.0,0.0,0.0,0.0,1.0,-0.804609715939,-0.574364900589,-0.618769705296,1.21846967915e-07,0.0,0.0,0.0,1.21846967915e-07,0.0,0.0,0.0,1.21846967915e-07,4.10898635,-3.7853669,13.5920169,9e-08,0.0,0.0,0.0,9e-08,0.0,0.0,0.0,9e-08
1536693612213307448,6385,1536693612212901400,base_link,-0.194687168556,0.0237130780799,-0.645965071997,-0.73774231415,1.0,0.0,0.0,0.0,1.0,0.0,0.0,0.0,1.0,-0.685214281082,-0.2854565382,-0.280803531408,1.21846967915e-07,0.0,0.0,0.0,1.21846967915e-07,0.0,0.0,0.0,1.21846967915e-07,4.0207265,-3.14793465,10.16949605,9e-08,0.0,0.0,0.0,9e-08,0.0,0.0,0.0,9e-08
1536693612536357560,6386,1536693612535745752,base_link,-0.131832668869,0.118315637043,-0.598338295574,-0.781417200668,1.0,0.0,0.0,0.0,1.0,0.0,0.0,0.0,1.0,-0.791277587414,-0.106002680957,-0.190647289157,1.21846967915e-07,0.0,0.0,0.0,1.21846967915e-07,0.0,0.0,0.0,1.21846967915e-07,3.9422733,-3.01064155,7.99241975,9e-08,0.0,0.0,0.0,9e-08,0.0,0.0,0.0,9e-08
1536693612702060728,6387,1536693612701663192,base_link,-0.0859772465373,0.166116527601,-0.571780112729,-0.798799546208,1.0,0.0,0.0,0.0,1.0,0.0,0.0,0.0,1.0,-0.721736967564,-0.0702943876386,-0.181929543614,1.21846967915e-07,0.0,0.0,0.0,1.21846967915e-07,0.0,0.0,0.0,1.21846967915e-07,3.93246665,-2.89296175,7.09020795,9e-08,0.0,0.0,0.0,9e-08,0.0,0.0,0.0,9e-08
1536693613163806104,6388,1536693613159921976,base_link,0.0077104259083,0.239377880267,-0.517995536482,-0.821169534235,1.0,0.0,0.0,0.0,1.0,0.0,0.0,0.0,1.0,-0.51386898756,0.0321830958128,-0.0789336338639,1.21846967915e-07,0.0,0.0,0.0,1.21846967915e-07,0.0,0.0,0.0,1.21846967915e-07,4.0207265,-3.12832135,6.3154826,9e-08,0.0,0.0,0.0,9e-08,0.0,0.0,0.0,9e-08
1536693613559877752,6389,1536693613558904248,base_link,0.0761363674669,0.276304571252,-0.491918066746,-0.822116569024,1.0,0.0,0.0,0.0,1.0,0.0,0.0,0.0,1.0,-0.30727031827,0.0336520895362,0.0292860232294,1.21846967915e-07,0.0,0.0,0.0,1.21846967915e-07,0.0,0.0,0.0,1.21846967915e-07,4.0011132,-3.03025485,5.9036033,9e-08,0.0,0.0,0.0,9e-08,0.0,0.0,0.0,9e-08
1536693613955441400,6390,1536693613954808632,base_link,0.117718636124,0.299954974832,-0.489199841642,-0.81046458943,1.0,0.0,0.0,0.0,1.0,0.0,0.0,0.0,1.0,-0.192866817117,-0.0306947827339,0.0967411398888,1.21846967915e-07,0.0,0.0,0.0,1.21846967915e-07,0.0,0.0,0.0,1.21846967915e-07,3.91285335,-3.06948145,6.26644935,9e-08,0.0,0.0,0.0,9e-08,0.0,0.0,0.0,9e-08
1536693614342641976,6391,1536693614342220312,base_link,0.143288073699,0.316509757088,-0.503521266792,-0.791047682186,1.0,0.0,0.0,0.0,1.0,0.0,0.0,0.0,1.0,-0.0539618879557,-0.0062645720318,0.189224079251,1.21846967915e-07,0.0,0.0,0.0,1.21846967915e-07,0.0,0.0,0.0,1.21846967915e-07,3.59904055,-3.04986815,7.3353742,9e-08,0.0,0.0,0.0,9e-08,0.0,0.0,0.0,9e-08
1536693614818650616,6392,1536693614818440344,base_link,0.166860492667,0.317102559558,-0.543508024851,-0.759080081172,1.0,0.0,0.0,0.0,1.0,0.0,0.0,0.0,1.0,0.0125880120322,-0.00793086271733,0.233672499657,1.21846967915e-07,0.0,0.0,0.0,1.21846967915e-07,0.0,0.0,0.0,1.21846967915e-07,2.8047019,-2.8047019,7.07059465,9e-08,0.0,0.0,0.0,9e-08,0.0,0.0,0.0,9e-08
1536693615291476792,6393,1536693615291225976,base_link,0.179277611907,0.307126265759,-0.585702568254,-0.728344352824,1.0,0.0,0.0,0.0,1.0,0.0,0.0,0.0,1.0,0.039251178503,-0.0109225930646,0.219017490745,1.21846967915e-07,0.0,0.0,0.0,1.21846967915e-07,0.0,0.0,0.0,1.21846967915e-07,2.157463,-2.6674088,7.73744685,9e-08,0.0,0.0,0.0,9e-08,0.0,0.0,0.0,9e-08
1536693615712186456,6394,1536693615711881784,base_link,0.181589010374,0.297141246295,-0.620888302642,-0.70230351466,1.0,0.0,0.0,0.0,1.0,0.0,0.0,0.0,1.0,0.0525471307337,-0.017810061574,0.200792819262,1.21846967915e-07,0.0,0.0,0.0,1.21846967915e-07,0.0,0.0,0.0,1.21846967915e-07,2.04958985,-3.10870805,7.6099604,9e-08,0.0,0.0,0.0,9e-08,0.0,0.0,0.0,9e-08
