%time,field.header.seq,field.header.stamp,field.header.frame_id,field.orientation.x,field.orientation.y,field.orientation.z,field.orientation.w,field.orientation_covariance0,field.orientation_covariance1,field.orientation_covariance2,field.orientation_covariance3,field.orientation_covariance4,field.orientation_covariance5,field.orientation_covariance6,field.orientation_covariance7,field.orientation_covariance8,field.angular_velocity.x,field.angular_velocity.y,field.angular_velocity.z,field.angular_velocity_covariance0,field.angular_velocity_covariance1,field.angular_velocity_covariance2,field.angular_velocity_covariance3,field.angular_velocity_covariance4,field.angular_velocity_covariance5,field.angular_velocity_covariance6,field.angular_velocity_covariance7,field.angular_velocity_covariance8,field.linear_acceleration.x,field.linear_acceleration.y,field.linear_acceleration.z,field.linear_acceleration_covariance0,field.linear_acceleration_covariance1,field.linear_acceleration_covariance2,field.linear_acceleration_covariance3,field.linear_acceleration_covariance4,field.linear_acceleration_covariance5,field.linear_acceleration_covariance6,field.linear_acceleration_covariance7,field.linear_acceleration_covariance8
1538769975637338496,9404,1538769975636761952,base_link,0.0,0.0,0.0,0.0,-1.0,0.0,0.0,0.0,0.0,0.0,0.0,0.0,0.0,0.165,-0.004,0.288,1.21846967915e-07,0.0,0.0,0.0,1.21846967915e-07,0.0,0.0,0.0,1.21846967915e-07,-0.26477955,2.1182364,11.0619012,9e-08,0.0,0.0,0.0,9e-08,0.0,0.0,0.0,9e-08
1538769975772829504,9405,1538769975772201632,base_link,0.0,0.0,0.0,0.0,-1.0,0.0,0.0,0.0,0.0,0.0,0.0,0.0,0.0,0.406,-0.022,0.121,1.21846967915e-07,0.0,0.0,0.0,1.21846967915e-07,0.0,0.0,0.0,1.21846967915e-07,-0.8629852,1.9024901,9.0417313,9e-08,0.0,0.0,0.0,9e-08,0.0,0.0,0.0,9e-08
1538769975837080960,9406,1538769975835160064,base_link,0.0,0.0,0.0,0.0,-1.0,0.0,0.0,0.0,0.0,0.0,0.0,0.0,0.0,0.489,-0.055,0.068,1.21846967915e-07,0.0,0.0,0.0,1.21846967915e-07,0.0,0.0,0.0,1.21846967915e-07,-1.1571847,2.5301157,9.9635564,9e-08,0.0,0.0,0.0,9e-08,0.0,0.0,0.0,9e-08
1538769975927086880,9407,1538769975925934816,base_link,0.0,0.0,0.0,0.0,-1.0,0.0,0.0,0.0,0.0,0.0,0.0,0.0,0.0,0.398,0.001,-0.094,1.21846967915e-07,0.0,0.0,0.0,1.21846967915e-07,0.0,0.0,0.0,1.21846967915e-07,-1.372931,1.765197,7.9041599,9e-08,0.0,0.0,0.0,9e-08,0.0,0.0,0.0,9e-08
1538769976059200416,9408,1538769976058119296,base_link,0.0,0.0,0.0,0.0,-1.0,0.0,0.0,0.0,0.0,0.0,0.0,0.0,0.0,0.44,-0.05,-0.211,1.21846967915e-07,0.0,0.0,0.0,1.21846967915e-07,0.0,0.0,0.0,1.21846967915e-07,-1.61809725,1.08853815,8.40429905,9e-08,0.0,0.0,0.0,9e-08,0.0,0.0,0.0,9e-08
1538769976141715840,9409,1538769976139086784,base_link,0.0,0.0,0.0,0.0,-1.0,0.0,0.0,0.0,0.0,0.0,0.0,0.0,0.0,0.435,-0.074,-0.189,1.21846967915e-07,0.0,0.0,0.0,1.21846967915e-07,0.0,0.0,0.0,1.21846967915e-07,-1.65732385,0.65704555,9.75761675,9e-08,0.0,0.0,0.0,9e-08,0.0,0.0,0.0,9e-08
1538769976222035200,9410,1538769976221674880,base_link,0.0,0.0,0.0,0.0,-1.0,0.0,0.0,0.0,0.0,0.0,0.0,0.0,0.0,0.525,-0.052,-0.134,1.21846967915e-07,0.0,0.0,0.0,1.21846967915e-07,0.0,0.0,0.0,1.21846967915e-07,-1.65732385,0.22555295,10.42446895,9e-08,0.0,0.0,0.0,9e-08,0.0,0.0,0.0,9e-08
1538769976329333376,9411,1538769976328482112,base_link,0.0,0.0,0.0,0.0,-1.0,0.0,0.0,0.0,0.0,0.0,0.0,0.0,0.0,-0.575,-0.102,0.149,1.21846967915e-07,0.0,0.0,0.0,1.21846967915e-07,0.0,0.0,0.0,1.21846967915e-07,-1.7259704,0.14709975,10.95402805,9e-08,0.0,0.0,0.0,9e-08,0.0,0.0,0.0,9e-08
1538769976456202336,9412,1538769976454567936,base_link,0.0,0.0,0.0,0.0,-1.0,0.0,0.0,0.0,0.0,0.0,0.0,0.0,0.0,-1.145,-0.084,0.279,1.21846967915e-07,0.0,0.0,0.0,1.21846967915e-07,0.0,0.0,0.0,1.21846967915e-07,-1.57887065,0.44129925,10.4342756,9e-08,0.0,0.0,0.0,9e-08,0.0,0.0,0.0,9e-08
1538769976522993632,9413,1538769976522036960,base_link,0.0,0.0,0.0,0.0,-1.0,0.0,0.0,0.0,0.0,0.0,0.0,0.0,0.0,-1.119,-0.073,0.281,1.21846967915e-07,0.0,0.0,0.0,1.21846967915e-07,0.0,0.0,0.0,1.21846967915e-07,-1.50041745,0.75511205,10.18910935,9e-08,0.0,0.0,0.0,9e-08,0.0,0.0,0.0,9e-08
1538769976658633344,9414,1538769976658063840,base_link,0.0,0.0,0.0,0.0,-1.0,0.0,0.0,0.0,0.0,0.0,0.0,0.0,0.0,-0.942,-0.075,0.198,1.21846967915e-07,0.0,0.0,0.0,1.21846967915e-07,0.0,0.0,0.0,1.21846967915e-07,-1.34351105,1.24544455,11.7091401,9e-08,0.0,0.0,0.0,9e-08,0.0,0.0,0.0,9e-08
1538769976720121472,9415,1538769976719363968,base_link,0.0,0.0,0.0,0.0,-1.0,0.0,0.0,0.0,0.0,0.0,0.0,0.0,0.0,-1.001,-0.093,0.169,1.21846967915e-07,0.0,0.0,0.0,1.21846967915e-07,0.0,0.0,0.0,1.21846967915e-07,-1.1375714,1.36312435,12.66038515,9e-08,0.0,0.0,0.0,9e-08,0.0,0.0,0.0,9e-08
1538769976838685536,9416,1538769976837986560,base_link,0.0,0.0,0.0,0.0,-1.0,0.0,0.0,0.0,0.0,0.0,0.0,0.0,0.0,-0.768,-0.079,0.048,1.21846967915e-07,0.0,0.0,0.0,1.21846967915e-07,0.0,0.0,0.0,1.21846967915e-07,-1.0591182,1.16699135,12.7878716,9e-08,0.0,0.0,0.0,9e-08,0.0,0.0,0.0,9e-08
1538769976945924544,9417,1538769976945169792,base_link,0.0,0.0,0.0,0.0,-1.0,0.0,0.0,0.0,0.0,0.0,0.0,0.0,0.0,-0.412,-0.105,-0.107,1.21846967915e-07,0.0,0.0,0.0,1.21846967915e-07,0.0,0.0,0.0,1.21846967915e-07,-0.81395195,0.48052585,11.0815145,9e-08,0.0,0.0,0.0,9e-08,0.0,0.0,0.0,9e-08
1538769977040476160,9418,1538769977039758240,base_link,0.0,0.0,0.0,0.0,-1.0,0.0,0.0,0.0,0.0,0.0,0.0,0.0,0.0,-0.241,-0.142,-0.096,1.21846967915e-07,0.0,0.0,0.0,1.21846967915e-07,0.0,0.0,0.0,1.21846967915e-07,-0.77472535,-0.196133,10.7677017,9e-08,0.0,0.0,0.0,9e-08,0.0,0.0,0.0,9e-08
1538769977141652096,9419,1538769977140973184,base_link,0.0,0.0,0.0,0.0,-1.0,0.0,0.0,0.0,0.0,0.0,0.0,0.0,0.0,-0.105,-0.158,0.042,1.21846967915e-07,0.0,0.0,0.0,1.21846967915e-07,0.0,0.0,0.0,1.21846967915e-07,-0.73549875,-0.5295591,11.4149406,9e-08,0.0,0.0,0.0,9e-08,0.0,0.0,0.0,9e-08
1538769977237411424,9420,1538769977236478592,base_link,0.0,0.0,0.0,0.0,-1.0,0.0,0.0,0.0,0.0,0.0,0.0,0.0,0.0,-0.069,-0.158,0.183,1.21846967915e-07,0.0,0.0,0.0,1.21846967915e-07,0.0,0.0,0.0,1.21846967915e-07,-0.7453054,-0.63743225,11.30706745,9e-08,0.0,0.0,0.0,9e-08,0.0,0.0,0.0,9e-08
1538769977333629632,9421,1538769977333207488,base_link,0.0,0.0,0.0,0.0,-1.0,0.0,0.0,0.0,0.0,0.0,0.0,0.0,0.0,0.004,-0.123,0.302,1.21846967915e-07,0.0,0.0,0.0,1.21846967915e-07,0.0,0.0,0.0,1.21846967915e-07,-0.71588545,-0.63743225,10.8265416,9e-08,0.0,0.0,0.0,9e-08,0.0,0.0,0.0,9e-08
1538769977433432512,9422,1538769977432870336,base_link,0.0,0.0,0.0,0.0,-1.0,0.0,0.0,0.0,0.0,0.0,0.0,0.0,0.0,-0.039,-0.115,0.385,1.21846967915e-07,0.0,0.0,0.0,1.21846967915e-07,0.0,0.0,0.0,1.21846967915e-07,-0.7256921,-0.4903325,10.22833595,9e-08,0.0,0.0,0.0,9e-08,0.0,0.0,0.0,9e-08
1538769977552940832,9423,1538769977551911296,base_link,0.0,0.0,0.0,0.0,-1.0,0.0,0.0,0.0,0.0,0.0,0.0,0.0,0.0,-0.065,-0.124,0.401,1.21846967915e-07,0.0,0.0,0.0,1.21846967915e-07,0.0,0.0,0.0,1.21846967915e-07,-0.8237586,-0.18632635,10.8461549,9e-08,0.0,0.0,0.0,9e-08,0.0,0.0,0.0,9e-08
1538769977656436384,9424,1538769977655722144,base_link,0.0,0.0,0.0,0.0,-1.0,0.0,0.0,0.0,0.0,0.0,0.0,0.0,0.0,-0.076,-0.118,0.409,1.21846967915e-07,0.0,0.0,0.0,1.21846967915e-07,0.0,0.0,0.0,1.21846967915e-07,-0.9022118,0.24516625,9.7674234,9e-08,0.0,0.0,0.0,9e-08,0.0,0.0,0.0,9e-08
1538769977731935776,9425,1538769977731360800,base_link,0.0,0.0,0.0,0.0,-1.0,0.0,0.0,0.0,0.0,0.0,0.0,0.0,0.0,0.007,-0.106,0.352,1.21846967915e-07,0.0,0.0,0.0,1.21846967915e-07,0.0,0.0,0.0,1.21846967915e-07,-0.83356525,0.36284605,9.62032365,9e-08,0.0,0.0,0.0,9e-08,0.0,0.0,0.0,9e-08
1538769977876300704,9426,1538769977875756128,base_link,0.0,0.0,0.0,0.0,-1.0,0.0,0.0,0.0,0.0,0.0,0.0,0.0,0.0,-0.102,-0.127,0.244,1.21846967915e-07,0.0,0.0,0.0,1.21846967915e-07,0.0,0.0,0.0,1.21846967915e-07,-0.77472535,0.38245935,11.2384209,9e-08,0.0,0.0,0.0,9e-08,0.0,0.0,0.0,9e-08
1538769977941846976,9427,1538769977941279104,base_link,0.0,0.0,0.0,0.0,-1.0,0.0,0.0,0.0,0.0,0.0,0.0,0.0,0.0,-0.118,-0.103,0.183,1.21846967915e-07,0.0,0.0,0.0,1.21846967915e-07,0.0,0.0,0.0,1.21846967915e-07,-0.9414384,0.16671305,11.03248125,9e-08,0.0,0.0,0.0,9e-08,0.0,0.0,0.0,9e-08
1538769978034385952,9428,1538769978033699776,base_link,0.0,0.0,0.0,0.0,-1.0,0.0,0.0,0.0,0.0,0.0,0.0,0.0,0.0,-0.051,-0.109,0.199,1.21846967915e-07,0.0,0.0,0.0,1.21846967915e-07,0.0,0.0,0.0,1.21846967915e-07,-0.9414384,-0.0196133,10.03220295,9e-08,0.0,0.0,0.0,9e-08,0.0,0.0,0.0,9e-08
1538769978156685760,9429,1538769978156193760,base_link,0.0,0.0,0.0,0.0,-1.0,0.0,0.0,0.0,0.0,0.0,0.0,0.0,0.0,-0.065,-0.145,0.258,1.21846967915e-07,0.0,0.0,0.0,1.21846967915e-07,0.0,0.0,0.0,1.21846967915e-07,-0.9218251,-0.1176798,10.67944185,9e-08,0.0,0.0,0.0,9e-08,0.0,0.0,0.0,9e-08
1538769978245714976,9430,1538769978244419680,base_link,0.0,0.0,0.0,0.0,-1.0,0.0,0.0,0.0,0.0,0.0,0.0,0.0,0.0,-0.163,-0.148,0.295,1.21846967915e-07,0.0,0.0,0.0,1.21846967915e-07,0.0,0.0,0.0,1.21846967915e-07,-0.9022118,0.0392266,10.4931155,9e-08,0.0,0.0,0.0,9e-08,0.0,0.0,0.0,9e-08
1538769978343420928,9431,1538769978342964704,base_link,0.0,0.0,0.0,0.0,-1.0,0.0,0.0,0.0,0.0,0.0,0.0,0.0,0.0,-0.08,-0.18,0.303,1.21846967915e-07,0.0,0.0,0.0,1.21846967915e-07,0.0,0.0,0.0,1.21846967915e-07,-0.8825985,-0.04903325,10.89518815,9e-08,0.0,0.0,0.0,9e-08,0.0,0.0,0.0,9e-08
1538769978424941696,9432,1538769978424404352,base_link,0.0,0.0,0.0,0.0,-1.0,0.0,0.0,0.0,0.0,0.0,0.0,0.0,0.0,-0.071,-0.172,0.306,1.21846967915e-07,0.0,0.0,0.0,1.21846967915e-07,0.0,0.0,0.0,1.21846967915e-07,-0.89240515,0.0392266,9.67916355,9e-08,0.0,0.0,0.0,9e-08,0.0,0.0,0.0,9e-08
1538769978541426304,9433,1538769978540602336,base_link,0.0,0.0,0.0,0.0,-1.0,0.0,0.0,0.0,0.0,0.0,0.0,0.0,0.0,-0.051,-0.197,0.283,1.21846967915e-07,0.0,0.0,0.0,1.21846967915e-07,0.0,0.0,0.0,1.21846967915e-07,-0.85317855,-0.00980665,10.65982855,9e-08,0.0,0.0,0.0,9e-08,0.0,0.0,0.0,9e-08
1538769978626487840,9434,1538769978624618016,base_link,0.0,0.0,0.0,0.0,-1.0,0.0,0.0,0.0,0.0,0.0,0.0,0.0,0.0,0.135,-0.167,0.265,1.21846967915e-07,0.0,0.0,0.0,1.21846967915e-07,0.0,0.0,0.0,1.21846967915e-07,-0.8433719,-0.1176798,10.28717585,9e-08,0.0,0.0,0.0,9e-08,0.0,0.0,0.0,9e-08
1538769978741113216,9435,1538769978739381600,base_link,0.0,0.0,0.0,0.0,-1.0,0.0,0.0,0.0,0.0,0.0,0.0,0.0,0.0,0.099,-0.167,0.285,1.21846967915e-07,0.0,0.0,0.0,1.21846967915e-07,0.0,0.0,0.0,1.21846967915e-07,-0.784532,0.0196133,9.87529655,9e-08,0.0,0.0,0.0,9e-08,0.0,0.0,0.0,9e-08
1538769978814459232,9436,1538769978811150912,base_link,0.0,0.0,0.0,0.0,-1.0,0.0,0.0,0.0,0.0,0.0,0.0,0.0,0.0,-0.117,-0.183,0.275,1.21846967915e-07,0.0,0.0,0.0,1.21846967915e-07,0.0,0.0,0.0,1.21846967915e-07,-0.81395195,0.18632635,11.18938765,9e-08,0.0,0.0,0.0,9e-08,0.0,0.0,0.0,9e-08
1538769978928355296,9437,1538769978926241056,base_link,0.0,0.0,0.0,0.0,-1.0,0.0,0.0,0.0,0.0,0.0,0.0,0.0,0.0,-0.14,-0.213,0.218,1.21846967915e-07,0.0,0.0,0.0,1.21846967915e-07,0.0,0.0,0.0,1.21846967915e-07,-0.7453054,0.0980665,12.18966595,9e-08,0.0,0.0,0.0,9e-08,0.0,0.0,0.0,9e-08
1538769979043190976,9438,1538769979042812640,base_link,0.0,0.0,0.0,0.0,-1.0,0.0,0.0,0.0,0.0,0.0,0.0,0.0,0.0,-0.093,-0.211,0.235,1.21846967915e-07,0.0,0.0,0.0,1.21846967915e-07,0.0,0.0,0.0,1.21846967915e-07,-0.77472535,1.44356384045e-15,11.7875933,9e-08,0.0,0.0,0.0,9e-08,0.0,0.0,0.0,9e-08
1538769979133745856,9439,1538769979133304928,base_link,0.0,0.0,0.0,0.0,-1.0,0.0,0.0,0.0,0.0,0.0,0.0,0.0,0.0,0.07,-0.192,0.24,1.21846967915e-07,0.0,0.0,0.0,1.21846967915e-07,0.0,0.0,0.0,1.21846967915e-07,-0.7649187,-0.16671305,10.14988275,9e-08,0.0,0.0,0.0,9e-08,0.0,0.0,0.0,9e-08
1538769979234783360,9440,1538769979234219392,base_link,0.0,0.0,0.0,0.0,-1.0,0.0,0.0,0.0,0.0,0.0,0.0,0.0,0.0,0.095,-0.215,0.305,1.21846967915e-07,0.0,0.0,0.0,1.21846967915e-07,0.0,0.0,0.0,1.21846967915e-07,-0.75511205,-0.06864655,10.77750835,9e-08,0.0,0.0,0.0,9e-08,0.0,0.0,0.0,9e-08
1538769979346653280,9441,1538769979345968480,base_link,0.0,0.0,0.0,0.0,-1.0,0.0,0.0,0.0,0.0,0.0,0.0,0.0,0.0,0.035,-0.219,0.317,1.21846967915e-07,0.0,0.0,0.0,1.21846967915e-07,0.0,0.0,0.0,1.21846967915e-07,-0.7649187,-0.196133,11.71894675,9e-08,0.0,0.0,0.0,9e-08,0.0,0.0,0.0,9e-08
1538769979448267456,9442,1538769979445844576,base_link,0.0,0.0,0.0,0.0,-1.0,0.0,0.0,0.0,0.0,0.0,0.0,0.0,0.0,-0.062,-0.239,0.36,1.21846967915e-07,0.0,0.0,0.0,1.21846967915e-07,0.0,0.0,0.0,1.21846967915e-07,-0.8237586,-0.3138128,11.3561007,9e-08,0.0,0.0,0.0,9e-08,0.0,0.0,0.0,9e-08
1538769979538826080,9443,1538769979537611488,base_link,0.0,0.0,0.0,0.0,-1.0,0.0,0.0,0.0,0.0,0.0,0.0,0.0,0.0,-0.052,-0.269,0.393,1.21846967915e-07,0.0,0.0,0.0,1.21846967915e-07,0.0,0.0,0.0,1.21846967915e-07,-0.77472535,0.0588399,11.75817335,9e-08,0.0,0.0,0.0,9e-08,0.0,0.0,0.0,9e-08
1538769979606062912,9444,1538769979604994496,base_link,0.0,0.0,0.0,0.0,-1.0,0.0,0.0,0.0,0.0,0.0,0.0,0.0,0.0,-0.12,-0.316,0.389,1.21846967915e-07,0.0,0.0,0.0,1.21846967915e-07,0.0,0.0,0.0,1.21846967915e-07,-0.6276256,0.0392266,13.46453045,9e-08,0.0,0.0,0.0,9e-08,0.0,0.0,0.0,9e-08
1538769979748561696,9445,1538769979746844032,base_link,0.0,0.0,0.0,0.0,-1.0,0.0,0.0,0.0,0.0,0.0,0.0,0.0,0.0,-0.212,-0.346,0.366,1.21846967915e-07,0.0,0.0,0.0,1.21846967915e-07,0.0,0.0,0.0,1.21846967915e-07,-0.5295591,0.0196133,15.4748937,9e-08,0.0,0.0,0.0,9e-08,0.0,0.0,0.0,9e-08
1538769979855060416,9446,1538769979854527360,base_link,0.0,0.0,0.0,0.0,-1.0,0.0,0.0,0.0,0.0,0.0,0.0,0.0,0.0,-0.175,-0.349,0.363,1.21846967915e-07,0.0,0.0,0.0,1.21846967915e-07,0.0,0.0,0.0,1.21846967915e-07,-0.36284605,-0.0392266,16.1417459,9e-08,0.0,0.0,0.0,9e-08,0.0,0.0,0.0,9e-08
1538769979931879968,9447,1538769979930976320,base_link,0.0,0.0,0.0,0.0,-1.0,0.0,0.0,0.0,0.0,0.0,0.0,0.0,0.0,-0.155,-0.341,0.357,1.21846967915e-07,0.0,0.0,0.0,1.21846967915e-07,0.0,0.0,0.0,1.21846967915e-07,-0.34323275,1.95037244334e-15,15.9259996,9e-08,0.0,0.0,0.0,9e-08,0.0,0.0,0.0,9e-08
1538769980090750592,9448,1538769980090033088,base_link,0.0,0.0,0.0,0.0,-1.0,0.0,0.0,0.0,0.0,0.0,0.0,0.0,0.0,-0.08,-0.366,0.324,1.21846967915e-07,0.0,0.0,0.0,1.21846967915e-07,0.0,0.0,0.0,1.21846967915e-07,-0.44129925,0.0980665,14.36674225,9e-08,0.0,0.0,0.0,9e-08,0.0,0.0,0.0,9e-08
1538769980158771360,9449,1538769980155297728,base_link,0.0,0.0,0.0,0.0,-1.0,0.0,0.0,0.0,0.0,0.0,0.0,0.0,0.0,-0.035,-0.359,0.307,1.21846967915e-07,0.0,0.0,0.0,1.21846967915e-07,0.0,0.0,0.0,1.21846967915e-07,-0.2941995,0.0980665,14.3765489,9e-08,0.0,0.0,0.0,9e-08,0.0,0.0,0.0,9e-08
1538769980242094720,9450,1538769980240789696,base_link,0.0,0.0,0.0,0.0,-1.0,0.0,0.0,0.0,0.0,0.0,0.0,0.0,0.0,0.065,-0.392,0.278,1.21846967915e-07,0.0,0.0,0.0,1.21846967915e-07,0.0,0.0,0.0,1.21846967915e-07,-0.16671305,-0.3138128,15.5141203,9e-08,0.0,0.0,0.0,9e-08,0.0,0.0,0.0,9e-08
1538769980316388128,9451,1538769980315534976,base_link,0.0,0.0,0.0,0.0,-1.0,0.0,0.0,0.0,0.0,0.0,0.0,0.0,0.0,0.017,-0.391,0.344,1.21846967915e-07,0.0,0.0,0.0,1.21846967915e-07,0.0,0.0,0.0,1.21846967915e-07,-0.2157463,0.06864655,15.5925735,9e-08,0.0,0.0,0.0,9e-08,0.0,0.0,0.0,9e-08
1538769980471495776,9452,1538769980464451808,base_link,0.0,0.0,0.0,0.0,-1.0,0.0,0.0,0.0,0.0,0.0,0.0,0.0,0.0,-0.051,-0.399,0.332,1.21846967915e-07,0.0,0.0,0.0,1.21846967915e-07,0.0,0.0,0.0,1.21846967915e-07,-0.18632635,-0.10787315,15.48470035,9e-08,0.0,0.0,0.0,9e-08,0.0,0.0,0.0,9e-08
1538769980522460000,9453,1538769980521920256,base_link,0.0,0.0,0.0,0.0,-1.0,0.0,0.0,0.0,0.0,0.0,0.0,0.0,0.0,-0.047,-0.4,0.333,1.21846967915e-07,0.0,0.0,0.0,1.21846967915e-07,0.0,0.0,0.0,1.21846967915e-07,-0.1765197,-0.196133,15.46508705,9e-08,0.0,0.0,0.0,9e-08,0.0,0.0,0.0,9e-08
1538769980639856608,9454,1538769980639212352,base_link,0.0,0.0,0.0,0.0,-1.0,0.0,0.0,0.0,0.0,0.0,0.0,0.0,0.0,-0.052,-0.412,0.37,1.21846967915e-07,0.0,0.0,0.0,1.21846967915e-07,0.0,0.0,0.0,1.21846967915e-07,-0.02941995,0.14709975,15.79851315,9e-08,0.0,0.0,0.0,9e-08,0.0,0.0,0.0,9e-08
1538769980715143808,9455,1538769980714084640,base_link,0.0,0.0,0.0,0.0,-1.0,0.0,0.0,0.0,0.0,0.0,0.0,0.0,0.0,0.023,-0.394,0.376,1.21846967915e-07,0.0,0.0,0.0,1.21846967915e-07,0.0,0.0,0.0,1.21846967915e-07,-0.2549729,0.2941995,15.68083335,9e-08,0.0,0.0,0.0,9e-08,0.0,0.0,0.0,9e-08
1538769980825546880,9456,1538769980825063392,base_link,0.0,0.0,0.0,0.0,-1.0,0.0,0.0,0.0,0.0,0.0,0.0,0.0,0.0,-0.051,-0.387,0.345,1.21846967915e-07,0.0,0.0,0.0,1.21846967915e-07,0.0,0.0,0.0,1.21846967915e-07,-0.16671305,0.18632635,15.3179873,9e-08,0.0,0.0,0.0,9e-08,0.0,0.0,0.0,9e-08
1538769980932961024,9457,1538769980932356768,base_link,0.0,0.0,0.0,0.0,-1.0,0.0,0.0,0.0,0.0,0.0,0.0,0.0,0.0,0.029,-0.371,0.317,1.21846967915e-07,0.0,0.0,0.0,1.21846967915e-07,0.0,0.0,0.0,1.21846967915e-07,-0.10787315,0.40207265,15.40624715,9e-08,0.0,0.0,0.0,9e-08,0.0,0.0,0.0,9e-08
1538769981025098368,9458,1538769981024527008,base_link,0.0,0.0,0.0,0.0,-1.0,0.0,0.0,0.0,0.0,0.0,0.0,0.0,0.0,0.0,-0.387,0.262,1.21846967915e-07,0.0,0.0,0.0,1.21846967915e-07,0.0,0.0,0.0,1.21846967915e-07,-0.18632635,0.2157463,15.17088755,9e-08,0.0,0.0,0.0,9e-08,0.0,0.0,0.0,9e-08
1538769981124710464,9459,1538769981124095968,base_link,0.0,0.0,0.0,0.0,-1.0,0.0,0.0,0.0,0.0,0.0,0.0,0.0,0.0,-0.015,-0.379,0.237,1.21846967915e-07,0.0,0.0,0.0,1.21846967915e-07,0.0,0.0,0.0,1.21846967915e-07,-0.12748645,1.75941849106e-15,14.36674225,9e-08,0.0,0.0,0.0,9e-08,0.0,0.0,0.0,9e-08
1538769981252163552,9460,1538769981251598080,base_link,0.0,0.0,0.0,0.0,-1.0,0.0,0.0,0.0,0.0,0.0,0.0,0.0,0.0,-0.069,-0.382,0.262,1.21846967915e-07,0.0,0.0,0.0,1.21846967915e-07,0.0,0.0,0.0,1.21846967915e-07,-0.04903325,0.22555295,15.5729602,9e-08,0.0,0.0,0.0,9e-08,0.0,0.0,0.0,9e-08
1538769981358282592,9461,1538769981357044736,base_link,0.0,0.0,0.0,0.0,-1.0,0.0,0.0,0.0,0.0,0.0,0.0,0.0,0.0,0.126,-0.358,0.27,1.21846967915e-07,0.0,0.0,0.0,1.21846967915e-07,0.0,0.0,0.0,1.21846967915e-07,-0.16671305,-0.196133,14.05292945,9e-08,0.0,0.0,0.0,9e-08,0.0,0.0,0.0,9e-08
1538769981433810944,9462,1538769981431638432,base_link,0.0,0.0,0.0,0.0,-1.0,0.0,0.0,0.0,0.0,0.0,0.0,0.0,0.0,0.093,-0.376,0.273,1.21846967915e-07,0.0,0.0,0.0,1.21846967915e-07,0.0,0.0,0.0,1.21846967915e-07,0.0196133,-0.3334261,14.03331615,9e-08,0.0,0.0,0.0,9e-08,0.0,0.0,0.0,9e-08
1538769981555826240,9463,1538769981555018528,base_link,0.0,0.0,0.0,0.0,-1.0,0.0,0.0,0.0,0.0,0.0,0.0,0.0,0.0,-0.002,-0.407,0.283,1.21846967915e-07,0.0,0.0,0.0,1.21846967915e-07,0.0,0.0,0.0,1.21846967915e-07,0.1372931,-0.42168595,16.9851178,9e-08,0.0,0.0,0.0,9e-08,0.0,0.0,0.0,9e-08
1538769981624546816,9464,1538769981624117920,base_link,0.0,0.0,0.0,0.0,-1.0,0.0,0.0,0.0,0.0,0.0,0.0,0.0,0.0,-0.049,-0.359,0.386,1.21846967915e-07,0.0,0.0,0.0,1.21846967915e-07,0.0,0.0,0.0,1.21846967915e-07,0.0392266,-0.3334261,15.6121868,9e-08,0.0,0.0,0.0,9e-08,0.0,0.0,0.0,9e-08
1538769981735195840,9465,1538769981734677696,base_link,0.0,0.0,0.0,0.0,-1.0,0.0,0.0,0.0,0.0,0.0,0.0,0.0,0.0,-0.083,-0.351,0.426,1.21846967915e-07,0.0,0.0,0.0,1.21846967915e-07,0.0,0.0,0.0,1.21846967915e-07,-0.2157463,0.0588399,13.66066345,9e-08,0.0,0.0,0.0,9e-08,0.0,0.0,0.0,9e-08
1538769981834681472,9466,1538769981834015040,base_link,0.0,0.0,0.0,0.0,-1.0,0.0,0.0,0.0,0.0,0.0,0.0,0.0,0.0,-0.167,-0.363,0.414,1.21846967915e-07,0.0,0.0,0.0,1.21846967915e-07,0.0,0.0,0.0,1.21846967915e-07,-0.1372931,0.38245935,14.2000292,9e-08,0.0,0.0,0.0,9e-08,0.0,0.0,0.0,9e-08
1538769981944562976,9467,1538769981943784960,base_link,0.0,0.0,0.0,0.0,-1.0,0.0,0.0,0.0,0.0,0.0,0.0,0.0,0.0,-0.164,-0.342,0.312,1.21846967915e-07,0.0,0.0,0.0,1.21846967915e-07,0.0,0.0,0.0,1.21846967915e-07,-0.196133,0.7453054,13.95486295,9e-08,0.0,0.0,0.0,9e-08,0.0,0.0,0.0,9e-08
1538769982035797536,9468,1538769982035009280,base_link,0.0,0.0,0.0,0.0,-1.0,0.0,0.0,0.0,0.0,0.0,0.0,0.0,0.0,-0.088,-0.339,0.206,1.21846967915e-07,0.0,0.0,0.0,1.21846967915e-07,0.0,0.0,0.0,1.21846967915e-07,-0.10787315,0.51975245,14.4550021,9e-08,0.0,0.0,0.0,9e-08,0.0,0.0,0.0,9e-08
1538769982102007648,9469,1538769982101413952,base_link,0.0,0.0,0.0,0.0,-1.0,0.0,0.0,0.0,0.0,0.0,0.0,0.0,0.0,-0.015,-0.323,0.173,1.21846967915e-07,0.0,0.0,0.0,1.21846967915e-07,0.0,0.0,0.0,1.21846967915e-07,-0.08825985,-0.2157463,13.09187775,9e-08,0.0,0.0,0.0,9e-08,0.0,0.0,0.0,9e-08
1538769982221137856,9470,1538769982220786432,base_link,0.0,0.0,0.0,0.0,-1.0,0.0,0.0,0.0,0.0,0.0,0.0,0.0,0.0,0.026,-0.354,0.258,1.21846967915e-07,0.0,0.0,0.0,1.21846967915e-07,0.0,0.0,0.0,1.21846967915e-07,0.0196133,-0.10787315,13.18994425,9e-08,0.0,0.0,0.0,9e-08,0.0,0.0,0.0,9e-08
1538769982318786848,9471,1538769982318435136,base_link,0.0,0.0,0.0,0.0,-1.0,0.0,0.0,0.0,0.0,0.0,0.0,0.0,0.0,-0.023,-0.354,0.3,1.21846967915e-07,0.0,0.0,0.0,1.21846967915e-07,0.0,0.0,0.0,1.21846967915e-07,0.1176798,-0.12748645,14.1019627,9e-08,0.0,0.0,0.0,9e-08,0.0,0.0,0.0,9e-08
1538769982436359200,9472,1538769982436023648,base_link,0.0,0.0,0.0,0.0,-1.0,0.0,0.0,0.0,0.0,0.0,0.0,0.0,0.0,0.078,-0.385,0.341,1.21846967915e-07,0.0,0.0,0.0,1.21846967915e-07,0.0,0.0,0.0,1.21846967915e-07,0.0980665,-0.6276256,16.17116585,9e-08,0.0,0.0,0.0,9e-08,0.0,0.0,0.0,9e-08
1538769982532606368,9473,1538769982531813152,base_link,0.0,0.0,0.0,0.0,-1.0,0.0,0.0,0.0,0.0,0.0,0.0,0.0,0.0,0.05,-0.361,0.408,1.21846967915e-07,0.0,0.0,0.0,1.21846967915e-07,0.0,0.0,0.0,1.21846967915e-07,0.08825985,-0.4314926,14.64132845,9e-08,0.0,0.0,0.0,9e-08,0.0,0.0,0.0,9e-08
1538769982635893344,9474,1538769982635399680,base_link,0.0,0.0,0.0,0.0,-1.0,0.0,0.0,0.0,0.0,0.0,0.0,0.0,0.0,0.039,-0.379,0.431,1.21846967915e-07,0.0,0.0,0.0,1.21846967915e-07,0.0,0.0,0.0,1.21846967915e-07,0.08825985,-0.1372931,14.513842,9e-08,0.0,0.0,0.0,9e-08,0.0,0.0,0.0,9e-08
1538769982751446144,9475,1538769982750826304,base_link,0.0,0.0,0.0,0.0,-1.0,0.0,0.0,0.0,0.0,0.0,0.0,0.0,0.0,0.033,-0.389,0.404,1.21846967915e-07,0.0,0.0,0.0,1.21846967915e-07,0.0,0.0,0.0,1.21846967915e-07,0.22555295,0.0196133,15.46508705,9e-08,0.0,0.0,0.0,9e-08,0.0,0.0,0.0,9e-08
1538769982827275808,9476,1538769982825690528,base_link,0.0,0.0,0.0,0.0,-1.0,0.0,0.0,0.0,0.0,0.0,0.0,0.0,0.0,-0.045,-0.351,0.402,1.21846967915e-07,0.0,0.0,0.0,1.21846967915e-07,0.0,0.0,0.0,1.21846967915e-07,-0.06864655,0.392266,13.99408955,9e-08,0.0,0.0,0.0,9e-08,0.0,0.0,0.0,9e-08
1538769982957849376,9477,1538769982956239680,base_link,0.0,0.0,0.0,0.0,-1.0,0.0,0.0,0.0,0.0,0.0,0.0,0.0,0.0,-0.091,-0.353,0.328,1.21846967915e-07,0.0,0.0,0.0,1.21846967915e-07,0.0,0.0,0.0,1.21846967915e-07,0.0,0.38245935,13.0624578,9e-08,0.0,0.0,0.0,9e-08,0.0,0.0,0.0,9e-08
1538769983084894560,9478,1538769983084124736,base_link,0.0,0.0,0.0,0.0,-1.0,0.0,0.0,0.0,0.0,0.0,0.0,0.0,0.0,0.157,-0.356,0.273,1.21846967915e-07,0.0,0.0,0.0,1.21846967915e-07,0.0,0.0,0.0,1.21846967915e-07,0.08825985,-0.08825985,15.886773,9e-08,0.0,0.0,0.0,9e-08,0.0,0.0,0.0,9e-08
1538769983121482688,9479,1538769983121061568,base_link,0.0,0.0,0.0,0.0,-1.0,0.0,0.0,0.0,0.0,0.0,0.0,0.0,0.0,0.195,-0.353,0.287,1.21846967915e-07,0.0,0.0,0.0,1.21846967915e-07,0.0,0.0,0.0,1.21846967915e-07,0.1569064,-0.18632635,15.0041745,9e-08,0.0,0.0,0.0,9e-08,0.0,0.0,0.0,9e-08
1538769983228569792,9480,1538769983227862240,base_link,0.0,0.0,0.0,0.0,-1.0,0.0,0.0,0.0,0.0,0.0,0.0,0.0,0.0,0.126,-0.325,0.265,1.21846967915e-07,0.0,0.0,0.0,1.21846967915e-07,0.0,0.0,0.0,1.21846967915e-07,0.1372931,0.10787315,12.8467115,9e-08,0.0,0.0,0.0,9e-08,0.0,0.0,0.0,9e-08
1538769983339955840,9481,1538769983339609184,base_link,0.0,0.0,0.0,0.0,-1.0,0.0,0.0,0.0,0.0,0.0,0.0,0.0,0.0,0.234,-0.331,0.266,1.21846967915e-07,0.0,0.0,0.0,1.21846967915e-07,0.0,0.0,0.0,1.21846967915e-07,0.06864655,-0.14709975,15.2003075,9e-08,0.0,0.0,0.0,9e-08,0.0,0.0,0.0,9e-08
1538769983435756768,9482,1538769983434252896,base_link,0.0,0.0,0.0,0.0,-1.0,0.0,0.0,0.0,0.0,0.0,0.0,0.0,0.0,0.191,-0.307,0.327,1.21846967915e-07,0.0,0.0,0.0,1.21846967915e-07,0.0,0.0,0.0,1.21846967915e-07,0.14709975,-0.1765197,14.24906245,9e-08,0.0,0.0,0.0,9e-08,0.0,0.0,0.0,9e-08
1538769983534822304,9483,1538769983531842208,base_link,0.0,0.0,0.0,0.0,-1.0,0.0,0.0,0.0,0.0,0.0,0.0,0.0,0.0,0.438,-0.247,0.31,1.21846967915e-07,0.0,0.0,0.0,1.21846967915e-07,0.0,0.0,0.0,1.21846967915e-07,0.0,0.22555295,11.77778665,9e-08,0.0,0.0,0.0,9e-08,0.0,0.0,0.0,9e-08
1538769983631236800,9484,1538769983630328352,base_link,0.0,0.0,0.0,0.0,-1.0,0.0,0.0,0.0,0.0,0.0,0.0,0.0,0.0,0.108,-0.261,0.295,1.21846967915e-07,0.0,0.0,0.0,1.21846967915e-07,0.0,0.0,0.0,1.21846967915e-07,-0.0196133,0.3334261,11.99353295,9e-08,0.0,0.0,0.0,9e-08,0.0,0.0,0.0,9e-08
1538769983712947456,9485,1538769983711917216,base_link,0.0,0.0,0.0,0.0,-1.0,0.0,0.0,0.0,0.0,0.0,0.0,0.0,0.0,0.079,-0.247,0.259,1.21846967915e-07,0.0,0.0,0.0,1.21846967915e-07,0.0,0.0,0.0,1.21846967915e-07,-0.0392266,0.51975245,12.42502555,9e-08,0.0,0.0,0.0,9e-08,0.0,0.0,0.0,9e-08
1538769983840788800,9486,1538769983840338912,base_link,0.0,0.0,0.0,0.0,-1.0,0.0,0.0,0.0,0.0,0.0,0.0,0.0,0.0,0.199,-0.218,0.224,1.21846967915e-07,0.0,0.0,0.0,1.21846967915e-07,0.0,0.0,0.0,1.21846967915e-07,-0.0588399,0.3138128,12.24850585,9e-08,0.0,0.0,0.0,9e-08,0.0,0.0,0.0,9e-08
1538769983945403648,9487,1538769983944922016,base_link,0.0,0.0,0.0,0.0,-1.0,0.0,0.0,0.0,0.0,0.0,0.0,0.0,0.0,0.277,-0.22,0.187,1.21846967915e-07,0.0,0.0,0.0,1.21846967915e-07,0.0,0.0,0.0,1.21846967915e-07,-0.08825985,0.196133,12.60154525,9e-08,0.0,0.0,0.0,9e-08,0.0,0.0,0.0,9e-08
1538769984033912992,9488,1538769984030404736,base_link,0.0,0.0,0.0,0.0,-1.0,0.0,0.0,0.0,0.0,0.0,0.0,0.0,0.0,0.4,-0.203,0.188,1.21846967915e-07,0.0,0.0,0.0,1.21846967915e-07,0.0,0.0,0.0,1.21846967915e-07,-0.04903325,0.26477955,12.89574475,9e-08,0.0,0.0,0.0,9e-08,0.0,0.0,0.0,9e-08
1538769984144775776,9489,1538769984142743520,base_link,0.0,0.0,0.0,0.0,-1.0,0.0,0.0,0.0,0.0,0.0,0.0,0.0,0.0,0.476,-0.166,0.201,1.21846967915e-07,0.0,0.0,0.0,1.21846967915e-07,0.0,0.0,0.0,1.21846967915e-07,-0.0588399,0.18632635,12.4348322,9e-08,0.0,0.0,0.0,9e-08,0.0,0.0,0.0,9e-08
1538769984274009920,9490,1538769984273441632,base_link,0.0,0.0,0.0,0.0,-1.0,0.0,0.0,0.0,0.0,0.0,0.0,0.0,0.0,0.5,-0.141,0.22,1.21846967915e-07,0.0,0.0,0.0,1.21846967915e-07,0.0,0.0,0.0,1.21846967915e-07,-0.16671305,0.2157463,12.1994726,9e-08,0.0,0.0,0.0,9e-08,0.0,0.0,0.0,9e-08
1538769984361626752,9491,1538769984360365312,base_link,0.0,0.0,0.0,0.0,-1.0,0.0,0.0,0.0,0.0,0.0,0.0,0.0,0.0,0.538,-0.125,0.229,1.21846967915e-07,0.0,0.0,0.0,1.21846967915e-07,0.0,0.0,0.0,1.21846967915e-07,-0.16671305,0.1765197,12.0621795,9e-08,0.0,0.0,0.0,9e-08,0.0,0.0,0.0,9e-08
1538769984447422496,9492,1538769984445849792,base_link,0.0,0.0,0.0,0.0,-1.0,0.0,0.0,0.0,0.0,0.0,0.0,0.0,0.0,0.528,-0.092,0.23,1.21846967915e-07,0.0,0.0,0.0,1.21846967915e-07,0.0,0.0,0.0,1.21846967915e-07,-0.14709975,0.3334261,11.4737805,9e-08,0.0,0.0,0.0,9e-08,0.0,0.0,0.0,9e-08
1538769984539060608,9493,1538769984538038112,base_link,0.0,0.0,0.0,0.0,-1.0,0.0,0.0,0.0,0.0,0.0,0.0,0.0,0.0,0.484,-0.093,0.199,1.21846967915e-07,0.0,0.0,0.0,1.21846967915e-07,0.0,0.0,0.0,1.21846967915e-07,-0.14709975,0.3138128,11.34629405,9e-08,0.0,0.0,0.0,9e-08,0.0,0.0,0.0,9e-08
1538769984637022112,9494,1538769984636370656,base_link,0.0,0.0,0.0,0.0,-1.0,0.0,0.0,0.0,0.0,0.0,0.0,0.0,0.0,0.511,-0.07,0.17,1.21846967915e-07,0.0,0.0,0.0,1.21846967915e-07,0.0,0.0,0.0,1.21846967915e-07,-0.2353596,0.44129925,11.52281375,9e-08,0.0,0.0,0.0,9e-08,0.0,0.0,0.0,9e-08
1538769984718979872,9495,1538769984717202976,base_link,0.0,0.0,0.0,0.0,-1.0,0.0,0.0,0.0,0.0,0.0,0.0,0.0,0.0,0.435,-0.039,0.153,1.21846967915e-07,0.0,0.0,0.0,1.21846967915e-07,0.0,0.0,0.0,1.21846967915e-07,-0.16671305,0.51975245,11.44436055,9e-08,0.0,0.0,0.0,9e-08,0.0,0.0,0.0,9e-08
1538769984838396736,9496,1538769984837703296,base_link,0.0,0.0,0.0,0.0,-1.0,0.0,0.0,0.0,0.0,0.0,0.0,0.0,0.0,0.456,-0.024,0.104,1.21846967915e-07,0.0,0.0,0.0,1.21846967915e-07,0.0,0.0,0.0,1.21846967915e-07,-0.20593965,0.3530394,11.01286795,9e-08,0.0,0.0,0.0,9e-08,0.0,0.0,0.0,9e-08
1538769984989209472,9497,1538769984988499808,base_link,0.0,0.0,0.0,0.0,-1.0,0.0,0.0,0.0,0.0,0.0,0.0,0.0,0.0,0.449,-0.011,0.086,1.21846967915e-07,0.0,0.0,0.0,1.21846967915e-07,0.0,0.0,0.0,1.21846967915e-07,-0.196133,0.46091255,11.07170785,9e-08,0.0,0.0,0.0,9e-08,0.0,0.0,0.0,9e-08
1538769985035953152,9498,1538769985035530592,base_link,0.0,0.0,0.0,0.0,-1.0,0.0,0.0,0.0,0.0,0.0,0.0,0.0,0.0,0.408,-0.006,0.083,1.21846967915e-07,0.0,0.0,0.0,1.21846967915e-07,0.0,0.0,0.0,1.21846967915e-07,-0.22555295,0.4314926,11.0815145,9e-08,0.0,0.0,0.0,9e-08,0.0,0.0,0.0,9e-08
1538769985148699712,9499,1538769985148035072,base_link,0.0,0.0,0.0,0.0,-1.0,0.0,0.0,0.0,0.0,0.0,0.0,0.0,0.0,0.318,0.009,0.037,1.21846967915e-07,0.0,0.0,0.0,1.21846967915e-07,0.0,0.0,0.0,1.21846967915e-07,-0.1765197,0.48052585,9.97336305,9e-08,0.0,0.0,0.0,9e-08,0.0,0.0,0.0,9e-08
1538769985229174368,9500,1538769985227942112,base_link,0.0,0.0,0.0,0.0,-1.0,0.0,0.0,0.0,0.0,0.0,0.0,0.0,0.0,0.371,0.003,-0.013,1.21846967915e-07,0.0,0.0,0.0,1.21846967915e-07,0.0,0.0,0.0,1.21846967915e-07,-0.26477955,0.5295591,10.0812362,9e-08,0.0,0.0,0.0,9e-08,0.0,0.0,0.0,9e-08
1538769985329134752,9501,1538769985328059296,base_link,0.0,0.0,0.0,0.0,-1.0,0.0,0.0,0.0,0.0,0.0,0.0,0.0,0.0,0.364,0.007,-0.026,1.21846967915e-07,0.0,0.0,0.0,1.21846967915e-07,0.0,0.0,0.0,1.21846967915e-07,-0.22555295,0.2745862,10.198916,9e-08,0.0,0.0,0.0,9e-08,0.0,0.0,0.0,9e-08
1538769985475057408,9502,1538769985474347776,base_link,0.0,0.0,0.0,0.0,-1.0,0.0,0.0,0.0,0.0,0.0,0.0,0.0,0.0,0.253,0.02,-0.014,1.21846967915e-07,0.0,0.0,0.0,1.21846967915e-07,0.0,0.0,0.0,1.21846967915e-07,-0.14709975,0.2745862,10.2969825,9e-08,0.0,0.0,0.0,9e-08,0.0,0.0,0.0,9e-08
1538769985552652768,9503,1538769985551262592,base_link,0.0,0.0,0.0,0.0,-1.0,0.0,0.0,0.0,0.0,0.0,0.0,0.0,0.0,0.175,0.03,0.002,1.21846967915e-07,0.0,0.0,0.0,1.21846967915e-07,0.0,0.0,0.0,1.21846967915e-07,-0.1372931,0.3334261,9.6889702,9e-08,0.0,0.0,0.0,9e-08,0.0,0.0,0.0,9e-08
1538769985626561568,9504,1538769985625924736,base_link,0.0,0.0,0.0,0.0,-1.0,0.0,0.0,0.0,0.0,0.0,0.0,0.0,0.0,0.106,0.028,0.015,1.21846967915e-07,0.0,0.0,0.0,1.21846967915e-07,0.0,0.0,0.0,1.21846967915e-07,-0.1765197,0.2745862,9.83606995,9e-08,0.0,0.0,0.0,9e-08,0.0,0.0,0.0,9e-08
1538769985734135968,9505,1538769985733545952,base_link,0.0,0.0,0.0,0.0,-1.0,0.0,0.0,0.0,0.0,0.0,0.0,0.0,0.0,0.101,0.017,-2.08189955855e-18,1.21846967915e-07,0.0,0.0,0.0,1.21846967915e-07,0.0,0.0,0.0,1.21846967915e-07,-0.1372931,0.50013915,10.77750835,9e-08,0.0,0.0,0.0,9e-08,0.0,0.0,0.0,9e-08
1538769985852988832,9506,1538769985852128736,base_link,0.0,0.0,0.0,0.0,-1.0,0.0,0.0,0.0,0.0,0.0,0.0,0.0,0.0,0.062,0.041,0.012,1.21846967915e-07,0.0,0.0,0.0,1.21846967915e-07,0.0,0.0,0.0,1.21846967915e-07,-0.20593965,0.2745862,9.5712904,9e-08,0.0,0.0,0.0,9e-08,0.0,0.0,0.0,9e-08
1538769985924967776,9507,1538769985924441344,base_link,0.0,0.0,0.0,0.0,-1.0,0.0,0.0,0.0,0.0,0.0,0.0,0.0,0.0,0.035,0.038,0.024,1.21846967915e-07,0.0,0.0,0.0,1.21846967915e-07,0.0,0.0,0.0,1.21846967915e-07,-0.12748645,0.42168595,9.36535075,9e-08,0.0,0.0,0.0,9e-08,0.0,0.0,0.0,9e-08
1538769986085090080,9508,1538769986083598400,base_link,0.0,0.0,0.0,0.0,-1.0,0.0,0.0,0.0,0.0,0.0,0.0,0.0,0.0,-0.009,0.042,-0.008,1.21846967915e-07,0.0,0.0,0.0,1.21846967915e-07,0.0,0.0,0.0,1.21846967915e-07,-0.20593965,0.6080123,9.2770909,9e-08,0.0,0.0,0.0,9e-08,0.0,0.0,0.0,9e-08
1538769986163736864,9509,1538769986163094176,base_link,0.0,0.0,0.0,0.0,-1.0,0.0,0.0,0.0,0.0,0.0,0.0,0.0,0.0,-0.01,0.043,-0.039,1.21846967915e-07,0.0,0.0,0.0,1.21846967915e-07,0.0,0.0,0.0,1.21846967915e-07,-0.20593965,0.50013915,9.4536106,9e-08,0.0,0.0,0.0,9e-08,0.0,0.0,0.0,9e-08
1538769986234463808,9510,1538769986233111680,base_link,0.0,0.0,0.0,0.0,-1.0,0.0,0.0,0.0,0.0,0.0,0.0,0.0,0.0,-0.012,0.052,-0.06,1.21846967915e-07,0.0,0.0,0.0,1.21846967915e-07,0.0,0.0,0.0,1.21846967915e-07,-0.12748645,0.6668522,9.2770909,9e-08,0.0,0.0,0.0,9e-08,0.0,0.0,0.0,9e-08
1538769986311635200,9511,1538769986311067424,base_link,0.0,0.0,0.0,0.0,-1.0,0.0,0.0,0.0,0.0,0.0,0.0,0.0,0.0,0.058,0.063,-0.115,1.21846967915e-07,0.0,0.0,0.0,1.21846967915e-07,0.0,0.0,0.0,1.21846967915e-07,-0.16671305,0.32361945,8.9436648,9e-08,0.0,0.0,0.0,9e-08,0.0,0.0,0.0,9e-08
1538769986433754656,9512,1538769986433103392,base_link,0.0,0.0,0.0,0.0,-1.0,0.0,0.0,0.0,0.0,0.0,0.0,0.0,0.0,0.08,0.058,-0.082,1.21846967915e-07,0.0,0.0,0.0,1.21846967915e-07,0.0,0.0,0.0,1.21846967915e-07,-0.2353596,0.32361945,8.71811185,9e-08,0.0,0.0,0.0,9e-08,0.0,0.0,0.0,9e-08
1538769986533753600,9513,1538769986533097856,base_link,0.0,0.0,0.0,0.0,-1.0,0.0,0.0,0.0,0.0,0.0,0.0,0.0,0.0,0.016,0.065,-0.063,1.21846967915e-07,0.0,0.0,0.0,1.21846967915e-07,0.0,0.0,0.0,1.21846967915e-07,-0.2745862,0.3334261,8.85540495,9e-08,0.0,0.0,0.0,9e-08,0.0,0.0,0.0,9e-08
1538769986641366944,9514,1538769986641007232,base_link,0.0,0.0,0.0,0.0,-1.0,0.0,0.0,0.0,0.0,0.0,0.0,0.0,0.0,0.012,0.059,-0.025,1.21846967915e-07,0.0,0.0,0.0,1.21846967915e-07,0.0,0.0,0.0,1.21846967915e-07,-0.24516625,0.3334261,8.629852,9e-08,0.0,0.0,0.0,9e-08,0.0,0.0,0.0,9e-08
1538769986741437024,9515,1538769986740772320,base_link,0.0,0.0,0.0,0.0,-1.0,0.0,0.0,0.0,0.0,0.0,0.0,0.0,0.0,-0.007,0.059,-0.004,1.21846967915e-07,0.0,0.0,0.0,1.21846967915e-07,0.0,0.0,0.0,1.21846967915e-07,-0.2549729,0.30400615,8.6886919,9e-08,0.0,0.0,0.0,9e-08,0.0,0.0,0.0,9e-08
1538769986829891424,9516,1538769986829345440,base_link,0.0,0.0,0.0,0.0,-1.0,0.0,0.0,0.0,0.0,0.0,0.0,0.0,0.0,-0.054,0.033,-0.004,1.21846967915e-07,0.0,0.0,0.0,1.21846967915e-07,0.0,0.0,0.0,1.21846967915e-07,-0.18632635,0.5295591,9.0025047,9e-08,0.0,0.0,0.0,9e-08,0.0,0.0,0.0,9e-08
1538769986925366048,9517,1538769986924875328,base_link,0.0,0.0,0.0,0.0,-1.0,0.0,0.0,0.0,0.0,0.0,0.0,0.0,0.0,-0.104,0.018,-0.035,1.21846967915e-07,0.0,0.0,0.0,1.21846967915e-07,0.0,0.0,0.0,1.21846967915e-07,-0.2353596,0.55897905,9.6301303,9e-08,0.0,0.0,0.0,9e-08,0.0,0.0,0.0,9e-08
1538769987059332864,9518,1538769987058840928,base_link,0.0,0.0,0.0,0.0,-1.0,0.0,0.0,0.0,0.0,0.0,0.0,0.0,0.0,-0.109,0.037,-0.061,1.21846967915e-07,0.0,0.0,0.0,1.21846967915e-07,0.0,0.0,0.0,1.21846967915e-07,-0.22555295,0.8433719,10.56176205,9e-08,0.0,0.0,0.0,9e-08,0.0,0.0,0.0,9e-08
1538769987122687904,9519,1538769987122147840,base_link,0.0,0.0,0.0,0.0,-1.0,0.0,0.0,0.0,0.0,0.0,0.0,0.0,0.0,-0.078,0.059,-0.099,1.21846967915e-07,0.0,0.0,0.0,1.21846967915e-07,0.0,0.0,0.0,1.21846967915e-07,-0.2941995,0.7256921,9.91452315,9e-08,0.0,0.0,0.0,9e-08,0.0,0.0,0.0,9e-08
1538769987226780576,9520,1538769987225934656,base_link,0.0,0.0,0.0,0.0,-1.0,0.0,0.0,0.0,0.0,0.0,0.0,0.0,0.0,-0.023,0.032,-0.119,1.21846967915e-07,0.0,0.0,0.0,1.21846967915e-07,0.0,0.0,0.0,1.21846967915e-07,-0.24516625,0.63743225,9.5516771,9e-08,0.0,0.0,0.0,9e-08,0.0,0.0,0.0,9e-08
1538769987365863744,9521,1538769987363595744,base_link,0.0,0.0,0.0,0.0,-1.0,0.0,0.0,0.0,0.0,0.0,0.0,0.0,0.0,0.11,-0.009,-0.107,1.21846967915e-07,0.0,0.0,0.0,1.21846967915e-07,0.0,0.0,0.0,1.21846967915e-07,-0.2353596,0.3726527,10.48330885,9e-08,0.0,0.0,0.0,9e-08,0.0,0.0,0.0,9e-08
1538769987458403520,9522,1538769987457909024,base_link,0.0,0.0,0.0,0.0,-1.0,0.0,0.0,0.0,0.0,0.0,0.0,0.0,0.0,0.177,-0.007,-0.099,1.21846967915e-07,0.0,0.0,0.0,1.21846967915e-07,0.0,0.0,0.0,1.21846967915e-07,-0.3138128,0.44129925,9.89490985,9e-08,0.0,0.0,0.0,9e-08,0.0,0.0,0.0,9e-08
1538769987546316256,9523,1538769987545706688,base_link,0.0,0.0,0.0,0.0,-1.0,0.0,0.0,0.0,0.0,0.0,0.0,0.0,0.0,0.173,-0.005,-0.109,1.21846967915e-07,0.0,0.0,0.0,1.21846967915e-07,0.0,0.0,0.0,1.21846967915e-07,-0.3530394,0.3530394,9.73800345,9e-08,0.0,0.0,0.0,9e-08,0.0,0.0,0.0,9e-08
1538769987622883936,9524,1538769987621566208,base_link,0.0,0.0,0.0,0.0,-1.0,0.0,0.0,0.0,0.0,0.0,0.0,0.0,0.0,0.108,-0.017,-0.144,1.21846967915e-07,0.0,0.0,0.0,1.21846967915e-07,0.0,0.0,0.0,1.21846967915e-07,-0.28439285,0.42168595,9.5909037,9e-08,0.0,0.0,0.0,9e-08,0.0,0.0,0.0,9e-08
1538769987751793952,9525,1538769987744237568,base_link,0.0,0.0,0.0,0.0,-1.0,0.0,0.0,0.0,0.0,0.0,0.0,0.0,0.0,0.1,-0.036,-0.122,1.21846967915e-07,0.0,0.0,0.0,1.21846967915e-07,0.0,0.0,0.0,1.21846967915e-07,-0.2745862,0.196133,11.1207411,9e-08,0.0,0.0,0.0,9e-08,0.0,0.0,0.0,9e-08
1538769987828796032,9526,1538769987828354144,base_link,0.0,0.0,0.0,0.0,-1.0,0.0,0.0,0.0,0.0,0.0,0.0,0.0,0.0,0.224,-0.047,-0.041,1.21846967915e-07,0.0,0.0,0.0,1.21846967915e-07,0.0,0.0,0.0,1.21846967915e-07,-0.2745862,0.28439285,11.964113,9e-08,0.0,0.0,0.0,9e-08,0.0,0.0,0.0,9e-08
1538769987933045440,9527,1538769987932432032,base_link,0.0,0.0,0.0,0.0,-1.0,0.0,0.0,0.0,0.0,0.0,0.0,0.0,0.0,0.312,-0.016,-0.01,1.21846967915e-07,0.0,0.0,0.0,1.21846967915e-07,0.0,0.0,0.0,1.21846967915e-07,-0.36284605,0.6276256,10.3558224,9e-08,0.0,0.0,0.0,9e-08,0.0,0.0,0.0,9e-08
1538769988077483392,9528,1538769988076828832,base_link,0.0,0.0,0.0,0.0,-1.0,0.0,0.0,0.0,0.0,0.0,0.0,0.0,0.0,0.347,-0.024,-0.069,1.21846967915e-07,0.0,0.0,0.0,1.21846967915e-07,0.0,0.0,0.0,1.21846967915e-07,-0.3334261,0.85317855,8.7671451,9e-08,0.0,0.0,0.0,9e-08,0.0,0.0,0.0,9e-08
1538769988149065120,9529,1538769988148585856,base_link,0.0,0.0,0.0,0.0,-1.0,0.0,0.0,0.0,0.0,0.0,0.0,0.0,0.0,0.281,-0.032,-0.1,1.21846967915e-07,0.0,0.0,0.0,1.21846967915e-07,0.0,0.0,0.0,1.21846967915e-07,-0.34323275,1.0198916,8.81617835,9e-08,0.0,0.0,0.0,9e-08,0.0,0.0,0.0,9e-08
1538769988216894592,9530,1538769988216436608,base_link,0.0,0.0,0.0,0.0,-1.0,0.0,0.0,0.0,0.0,0.0,0.0,0.0,0.0,0.107,-0.036,-0.18,1.21846967915e-07,0.0,0.0,0.0,1.21846967915e-07,0.0,0.0,0.0,1.21846967915e-07,-0.392266,1.0002783,9.6497436,9e-08,0.0,0.0,0.0,9e-08,0.0,0.0,0.0,9e-08
1538769988332290432,9531,1538769988331800128,base_link,0.0,0.0,0.0,0.0,-1.0,0.0,0.0,0.0,0.0,0.0,0.0,0.0,0.0,0.065,-0.046,-0.241,1.21846967915e-07,0.0,0.0,0.0,1.21846967915e-07,0.0,0.0,0.0,1.21846967915e-07,-0.3530394,0.8237586,10.983448,9e-08,0.0,0.0,0.0,9e-08,0.0,0.0,0.0,9e-08
1538769988419073632,9532,1538769988418480832,base_link,0.0,0.0,0.0,0.0,-1.0,0.0,0.0,0.0,0.0,0.0,0.0,0.0,0.0,0.145,-0.059,-0.273,1.21846967915e-07,0.0,0.0,0.0,1.21846967915e-07,0.0,0.0,0.0,1.21846967915e-07,-0.3334261,0.65704555,11.34629405,9e-08,0.0,0.0,0.0,9e-08,0.0,0.0,0.0,9e-08
1538769988554471360,9533,1538769988553757184,base_link,0.0,0.0,0.0,0.0,-1.0,0.0,0.0,0.0,0.0,0.0,0.0,0.0,0.0,0.434,-0.083,-0.265,1.21846967915e-07,0.0,0.0,0.0,1.21846967915e-07,0.0,0.0,0.0,1.21846967915e-07,-0.26477955,0.2941995,11.11093445,9e-08,0.0,0.0,0.0,9e-08,0.0,0.0,0.0,9e-08
1538769988662344384,9534,1538769988661980448,base_link,0.0,0.0,0.0,0.0,-1.0,0.0,0.0,0.0,0.0,0.0,0.0,0.0,0.0,0.569,-0.08,-0.227,1.21846967915e-07,0.0,0.0,0.0,1.21846967915e-07,0.0,0.0,0.0,1.21846967915e-07,-0.3530394,0.1372931,9.54187045,9e-08,0.0,0.0,0.0,9e-08,0.0,0.0,0.0,9e-08
1538769988731860416,9535,1538769988731244128,base_link,0.0,0.0,0.0,0.0,-1.0,0.0,0.0,0.0,0.0,0.0,0.0,0.0,0.0,0.45,-0.126,-0.175,1.21846967915e-07,0.0,0.0,0.0,1.21846967915e-07,0.0,0.0,0.0,1.21846967915e-07,-0.34323275,0.10787315,10.6892485,9e-08,0.0,0.0,0.0,9e-08,0.0,0.0,0.0,9e-08
1538769988802575040,9536,1538769988802109984,base_link,0.0,0.0,0.0,0.0,-1.0,0.0,0.0,0.0,0.0,0.0,0.0,0.0,0.0,0.375,-0.123,-0.117,1.21846967915e-07,0.0,0.0,0.0,1.21846967915e-07,0.0,0.0,0.0,1.21846967915e-07,-0.34323275,0.2745862,10.01258965,9e-08,0.0,0.0,0.0,9e-08,0.0,0.0,0.0,9e-08
1538769988933008320,9537,1538769988932278592,base_link,0.0,0.0,0.0,0.0,-1.0,0.0,0.0,0.0,0.0,0.0,0.0,0.0,0.0,0.228,-0.191,-0.088,1.21846967915e-07,0.0,0.0,0.0,1.21846967915e-07,0.0,0.0,0.0,1.21846967915e-07,-0.22555295,0.57859235,11.76798,9e-08,0.0,0.0,0.0,9e-08,0.0,0.0,0.0,9e-08
1538769989052557088,9538,1538769989052058656,base_link,0.0,0.0,0.0,0.0,-1.0,0.0,0.0,0.0,0.0,0.0,0.0,0.0,0.0,0.172,-0.194,-0.131,1.21846967915e-07,0.0,0.0,0.0,1.21846967915e-07,0.0,0.0,0.0,1.21846967915e-07,-0.1569064,0.8041453,12.1014061,9e-08,0.0,0.0,0.0,9e-08,0.0,0.0,0.0,9e-08
1538769989129432384,9539,1538769989128118208,base_link,0.0,0.0,0.0,0.0,-1.0,0.0,0.0,0.0,0.0,0.0,0.0,0.0,0.0,0.147,-0.172,-0.185,1.21846967915e-07,0.0,0.0,0.0,1.21846967915e-07,0.0,0.0,0.0,1.21846967915e-07,-0.1176798,0.83356525,10.8657682,9e-08,0.0,0.0,0.0,9e-08,0.0,0.0,0.0,9e-08
1538769989231581088,9540,1538769989231076832,base_link,0.0,0.0,0.0,0.0,-1.0,0.0,0.0,0.0,0.0,0.0,0.0,0.0,0.0,0.026,-0.161,-0.212,1.21846967915e-07,0.0,0.0,0.0,1.21846967915e-07,0.0,0.0,0.0,1.21846967915e-07,-0.06864655,1.12776475,10.6892485,9e-08,0.0,0.0,0.0,9e-08,0.0,0.0,0.0,9e-08
1538769989324976736,9541,1538769989324492544,base_link,0.0,0.0,0.0,0.0,-1.0,0.0,0.0,0.0,0.0,0.0,0.0,0.0,0.0,-0.074,-0.183,-0.28,1.21846967915e-07,0.0,0.0,0.0,1.21846967915e-07,0.0,0.0,0.0,1.21846967915e-07,-0.0784532,0.8629852,12.4544455,9e-08,0.0,0.0,0.0,9e-08,0.0,0.0,0.0,9e-08
1538769989415519232,9542,1538769989415076544,base_link,0.0,0.0,0.0,0.0,-1.0,0.0,0.0,0.0,0.0,0.0,0.0,0.0,0.0,0.079,-0.197,-0.302,1.21846967915e-07,0.0,0.0,0.0,1.21846967915e-07,0.0,0.0,0.0,1.21846967915e-07,0.0588399,0.67665885,13.1997509,9e-08,0.0,0.0,0.0,9e-08,0.0,0.0,0.0,9e-08
1538769989525054624,9543,1538769989524525856,base_link,0.0,0.0,0.0,0.0,-1.0,0.0,0.0,0.0,0.0,0.0,0.0,0.0,0.0,0.041,-0.194,-0.265,1.21846967915e-07,0.0,0.0,0.0,1.21846967915e-07,0.0,0.0,0.0,1.21846967915e-07,-0.0196133,0.5687857,12.356379,9e-08,0.0,0.0,0.0,9e-08,0.0,0.0,0.0,9e-08
1538769989630056192,9544,1538769989629480768,base_link,0.0,0.0,0.0,0.0,-1.0,0.0,0.0,0.0,0.0,0.0,0.0,0.0,0.0,0.085,-0.223,-0.244,1.21846967915e-07,0.0,0.0,0.0,1.21846967915e-07,0.0,0.0,0.0,1.21846967915e-07,0.0196133,0.48052585,12.77806495,9e-08,0.0,0.0,0.0,9e-08,0.0,0.0,0.0,9e-08
1538769989732851040,9545,1538769989732214624,base_link,0.0,0.0,0.0,0.0,-1.0,0.0,0.0,0.0,0.0,0.0,0.0,0.0,0.0,0.109,-0.238,-0.251,1.21846967915e-07,0.0,0.0,0.0,1.21846967915e-07,0.0,0.0,0.0,1.21846967915e-07,0.0784532,0.61781895,13.0820711,9e-08,0.0,0.0,0.0,9e-08,0.0,0.0,0.0,9e-08
1538769989842955424,9546,1538769989842414496,base_link,0.0,0.0,0.0,0.0,-1.0,0.0,0.0,0.0,0.0,0.0,0.0,0.0,0.0,0.272,-0.226,-0.289,1.21846967915e-07,0.0,0.0,0.0,1.21846967915e-07,0.0,0.0,0.0,1.21846967915e-07,0.02941995,0.8041453,12.2975391,9e-08,0.0,0.0,0.0,9e-08,0.0,0.0,0.0,9e-08
1538769989924858368,9547,1538769989924100736,base_link,0.0,0.0,0.0,0.0,-1.0,0.0,0.0,0.0,0.0,0.0,0.0,0.0,0.0,0.238,-0.222,-0.318,1.21846967915e-07,0.0,0.0,0.0,1.21846967915e-07,0.0,0.0,0.0,1.21846967915e-07,0.02941995,0.7453054,10.81673495,9e-08,0.0,0.0,0.0,9e-08,0.0,0.0,0.0,9e-08
1538769990020209280,9548,1538769990019004448,base_link,0.0,0.0,0.0,0.0,-1.0,0.0,0.0,0.0,0.0,0.0,0.0,0.0,0.0,0.07,-0.2,-0.303,1.21846967915e-07,0.0,0.0,0.0,1.21846967915e-07,0.0,0.0,0.0,1.21846967915e-07,0.0,0.59820565,9.8262633,9e-08,0.0,0.0,0.0,9e-08,0.0,0.0,0.0,9e-08
1538769990118727840,9549,1538769990118376160,base_link,0.0,0.0,0.0,0.0,-1.0,0.0,0.0,0.0,0.0,0.0,0.0,0.0,0.0,0.002,-0.233,-0.308,1.21846967915e-07,0.0,0.0,0.0,1.21846967915e-07,0.0,0.0,0.0,1.21846967915e-07,0.02941995,0.6668522,10.5323421,9e-08,0.0,0.0,0.0,9e-08,0.0,0.0,0.0,9e-08
1538769990229631712,9550,1538769990229283456,base_link,0.0,0.0,0.0,0.0,-1.0,0.0,0.0,0.0,0.0,0.0,0.0,0.0,0.0,-0.001,-0.234,-0.307,1.21846967915e-07,0.0,0.0,0.0,1.21846967915e-07,0.0,0.0,0.0,1.21846967915e-07,0.06864655,0.51975245,10.38524235,9e-08,0.0,0.0,0.0,9e-08,0.0,0.0,0.0,9e-08
1538769990351120736,9551,1538769990350534752,base_link,0.0,0.0,0.0,0.0,-1.0,0.0,0.0,0.0,0.0,0.0,0.0,0.0,0.0,0.055,-0.273,-0.248,1.21846967915e-07,0.0,0.0,0.0,1.21846967915e-07,0.0,0.0,0.0,1.21846967915e-07,0.30400615,0.69627215,12.3367657,9e-08,0.0,0.0,0.0,9e-08,0.0,0.0,0.0,9e-08
1538769990440043968,9552,1538769990439742240,base_link,0.0,0.0,0.0,0.0,-1.0,0.0,0.0,0.0,0.0,0.0,0.0,0.0,0.0,0.069,-0.277,-0.236,1.21846967915e-07,0.0,0.0,0.0,1.21846967915e-07,0.0,0.0,0.0,1.21846967915e-07,0.18632635,0.75511205,12.13082605,9e-08,0.0,0.0,0.0,9e-08,0.0,0.0,0.0,9e-08
1538769990525077696,9553,1538769990524584000,base_link,0.0,0.0,0.0,0.0,-1.0,0.0,0.0,0.0,0.0,0.0,0.0,0.0,0.0,0.154,-0.294,-0.24,1.21846967915e-07,0.0,0.0,0.0,1.21846967915e-07,0.0,0.0,0.0,1.21846967915e-07,0.2549729,1.0002783,12.2975391,9e-08,0.0,0.0,0.0,9e-08,0.0,0.0,0.0,9e-08
1538769990630597216,9554,1538769990629774144,base_link,0.0,0.0,0.0,0.0,-1.0,0.0,0.0,0.0,0.0,0.0,0.0,0.0,0.0,0.06,-0.276,-0.247,1.21846967915e-07,0.0,0.0,0.0,1.21846967915e-07,0.0,0.0,0.0,1.21846967915e-07,0.3334261,1.1571847,12.0621795,9e-08,0.0,0.0,0.0,9e-08,0.0,0.0,0.0,9e-08
1538769990735603264,9555,1538769990734635264,base_link,0.0,0.0,0.0,0.0,-1.0,0.0,0.0,0.0,0.0,0.0,0.0,0.0,0.0,-0.037,-0.266,-0.291,1.21846967915e-07,0.0,0.0,0.0,1.21846967915e-07,0.0,0.0,0.0,1.21846967915e-07,0.26477955,1.28467115,11.964113,9e-08,0.0,0.0,0.0,9e-08,0.0,0.0,0.0,9e-08
1538769990822704928,9556,1538769990822218912,base_link,0.0,0.0,0.0,0.0,-1.0,0.0,0.0,0.0,0.0,0.0,0.0,0.0,0.0,-0.053,-0.266,-0.342,1.21846967915e-07,0.0,0.0,0.0,1.21846967915e-07,0.0,0.0,0.0,1.21846967915e-07,0.34323275,1.176798,12.56231865,9e-08,0.0,0.0,0.0,9e-08,0.0,0.0,0.0,9e-08
1538769990929653632,9557,1538769990928758752,base_link,0.0,0.0,0.0,0.0,-1.0,0.0,0.0,0.0,0.0,0.0,0.0,0.0,0.0,-0.02,-0.262,-0.413,1.21846967915e-07,0.0,0.0,0.0,1.21846967915e-07,0.0,0.0,0.0,1.21846967915e-07,0.4118793,1.0198916,12.60154525,9e-08,0.0,0.0,0.0,9e-08,0.0,0.0,0.0,9e-08
1538769991038848640,9558,1538769991038073568,base_link,0.0,0.0,0.0,0.0,-1.0,0.0,0.0,0.0,0.0,0.0,0.0,0.0,0.0,0.012,-0.287,-0.417,1.21846967915e-07,0.0,0.0,0.0,1.21846967915e-07,0.0,0.0,0.0,1.21846967915e-07,0.4118793,1.01008495,12.4936721,9e-08,0.0,0.0,0.0,9e-08,0.0,0.0,0.0,9e-08
1538769991133917792,9559,1538769991133092288,base_link,0.0,0.0,0.0,0.0,-1.0,0.0,0.0,0.0,0.0,0.0,0.0,0.0,0.0,0.0,-0.329,-0.414,1.21846967915e-07,0.0,0.0,0.0,1.21846967915e-07,0.0,0.0,0.0,1.21846967915e-07,0.4707192,0.81395195,13.4743371,9e-08,0.0,0.0,0.0,9e-08,0.0,0.0,0.0,9e-08
1538769991222995264,9560,1538769991222300480,base_link,0.0,0.0,0.0,0.0,-1.0,0.0,0.0,0.0,0.0,0.0,0.0,0.0,0.0,0.067,-0.331,-0.384,1.21846967915e-07,0.0,0.0,0.0,1.21846967915e-07,0.0,0.0,0.0,1.21846967915e-07,0.4707192,0.69627215,13.44491715,9e-08,0.0,0.0,0.0,9e-08,0.0,0.0,0.0,9e-08
1538769991332053888,9561,1538769991331508864,base_link,0.0,0.0,0.0,0.0,-1.0,0.0,0.0,0.0,0.0,0.0,0.0,0.0,0.0,0.092,-0.348,-0.336,1.21846967915e-07,0.0,0.0,0.0,1.21846967915e-07,0.0,0.0,0.0,1.21846967915e-07,0.4511059,0.7649187,13.6312435,9e-08,0.0,0.0,0.0,9e-08,0.0,0.0,0.0,9e-08
1538769991437269728,9562,1538769991431548672,base_link,0.0,0.0,0.0,0.0,-1.0,0.0,0.0,0.0,0.0,0.0,0.0,0.0,0.0,-0.062,-0.363,-0.288,1.21846967915e-07,0.0,0.0,0.0,1.21846967915e-07,0.0,0.0,0.0,1.21846967915e-07,0.51975245,1.1375714,14.0431228,9e-08,0.0,0.0,0.0,9e-08,0.0,0.0,0.0,9e-08
1538769991541683968,9563,1538769991541068576,base_link,0.0,0.0,0.0,0.0,-1.0,0.0,0.0,0.0,0.0,0.0,0.0,0.0,0.0,-0.171,-0.378,-0.297,1.21846967915e-07,0.0,0.0,0.0,1.21846967915e-07,0.0,0.0,0.0,1.21846967915e-07,0.7256921,1.3140911,15.32779395,9e-08,0.0,0.0,0.0,9e-08,0.0,0.0,0.0,9e-08
1538769991687816384,9564,1538769991686340608,base_link,0.0,0.0,0.0,0.0,-1.0,0.0,0.0,0.0,0.0,0.0,0.0,0.0,0.0,0.039,-0.367,-0.385,1.21846967915e-07,0.0,0.0,0.0,1.21846967915e-07,0.0,0.0,0.0,1.21846967915e-07,0.59820565,0.75511205,14.8276548,9e-08,0.0,0.0,0.0,9e-08,0.0,0.0,0.0,9e-08
1538769991755630752,9565,1538769991755042944,base_link,0.0,0.0,0.0,0.0,-1.0,0.0,0.0,0.0,0.0,0.0,0.0,0.0,0.0,0.103,-0.37,-0.366,1.21846967915e-07,0.0,0.0,0.0,1.21846967915e-07,0.0,0.0,0.0,1.21846967915e-07,0.4903325,0.61781895,14.0823494,9e-08,0.0,0.0,0.0,9e-08,0.0,0.0,0.0,9e-08
1538769991825743744,9566,1538769991825100320,base_link,0.0,0.0,0.0,0.0,-1.0,0.0,0.0,0.0,0.0,0.0,0.0,0.0,0.0,0.125,-0.395,-0.354,1.21846967915e-07,0.0,0.0,0.0,1.21846967915e-07,0.0,0.0,0.0,1.21846967915e-07,0.5099458,0.5687857,14.75900825,9e-08,0.0,0.0,0.0,9e-08,0.0,0.0,0.0,9e-08
1538769991932220544,9567,1538769991931418336,base_link,0.0,0.0,0.0,0.0,-1.0,0.0,0.0,0.0,0.0,0.0,0.0,0.0,0.0,0.223,-0.421,-0.307,1.21846967915e-07,0.0,0.0,0.0,1.21846967915e-07,0.0,0.0,0.0,1.21846967915e-07,0.588399,0.6668522,15.3376006,9e-08,0.0,0.0,0.0,9e-08,0.0,0.0,0.0,9e-08
1538769992026306176,9568,1538769992025059360,base_link,0.0,0.0,0.0,0.0,-1.0,0.0,0.0,0.0,0.0,0.0,0.0,0.0,0.0,0.23,-0.411,-0.262,1.21846967915e-07,0.0,0.0,0.0,1.21846967915e-07,0.0,0.0,0.0,1.21846967915e-07,0.63743225,1.04931155,14.93552795,9e-08,0.0,0.0,0.0,9e-08,0.0,0.0,0.0,9e-08
1538769992142562432,9569,1538769992141893952,base_link,0.0,0.0,0.0,0.0,-1.0,0.0,0.0,0.0,0.0,0.0,0.0,0.0,0.0,-0.118,-0.41,-0.285,1.21846967915e-07,0.0,0.0,0.0,1.21846967915e-07,0.0,0.0,0.0,1.21846967915e-07,0.7256921,0.69627215,14.56287525,9e-08,0.0,0.0,0.0,9e-08,0.0,0.0,0.0,9e-08
1538769992231904896,9570,1538769992231331040,base_link,0.0,0.0,0.0,0.0,-1.0,0.0,0.0,0.0,0.0,0.0,0.0,0.0,0.0,-0.022,-0.418,-0.311,1.21846967915e-07,0.0,0.0,0.0,1.21846967915e-07,0.0,0.0,0.0,1.21846967915e-07,0.81395195,0.8825985,14.87668805,9e-08,0.0,0.0,0.0,9e-08,0.0,0.0,0.0,9e-08
1538769992324752000,9571,1538769992324120000,base_link,0.0,0.0,0.0,0.0,-1.0,0.0,0.0,0.0,0.0,0.0,0.0,0.0,0.0,-0.072,-0.414,-0.303,1.21846967915e-07,0.0,0.0,0.0,1.21846967915e-07,0.0,0.0,0.0,1.21846967915e-07,0.81395195,1.0198916,14.44519545,9e-08,0.0,0.0,0.0,9e-08,0.0,0.0,0.0,9e-08
1538769992427148224,9572,1538769992426480448,base_link,0.0,0.0,0.0,0.0,-1.0,0.0,0.0,0.0,0.0,0.0,0.0,0.0,0.0,-0.123,-0.418,-0.272,1.21846967915e-07,0.0,0.0,0.0,1.21846967915e-07,0.0,0.0,0.0,1.21846967915e-07,0.93163175,1.569064,16.1025193,9e-08,0.0,0.0,0.0,9e-08,0.0,0.0,0.0,9e-08
1538769992551984672,9573,1538769992551209440,base_link,0.0,0.0,0.0,0.0,-1.0,0.0,0.0,0.0,0.0,0.0,0.0,0.0,0.0,-0.072,-0.309,-0.376,1.21846967915e-07,0.0,0.0,0.0,1.21846967915e-07,0.0,0.0,0.0,1.21846967915e-07,0.67665885,1.50041745,14.17060925,9e-08,0.0,0.0,0.0,9e-08,0.0,0.0,0.0,9e-08
1538769992649094560,9574,1538769992648505152,base_link,0.0,0.0,0.0,0.0,-1.0,0.0,0.0,0.0,0.0,0.0,0.0,0.0,0.0,0.065,-0.281,-0.444,1.21846967915e-07,0.0,0.0,0.0,1.21846967915e-07,0.0,0.0,0.0,1.21846967915e-07,0.5099458,1.2552512,12.13082605,9e-08,0.0,0.0,0.0,9e-08,0.0,0.0,0.0,9e-08
1538769992756110560,9575,1538769992755653760,base_link,0.0,0.0,0.0,0.0,-1.0,0.0,0.0,0.0,0.0,0.0,0.0,0.0,0.0,-0.025,-0.301,-0.489,1.21846967915e-07,0.0,0.0,0.0,1.21846967915e-07,0.0,0.0,0.0,1.21846967915e-07,0.2745862,1.10815145,11.7091401,9e-08,0.0,0.0,0.0,9e-08,0.0,0.0,0.0,9e-08
1538769992846611072,9576,1538769992842472000,base_link,0.0,0.0,0.0,0.0,-1.0,0.0,0.0,0.0,0.0,0.0,0.0,0.0,0.0,-0.019,-0.308,-0.504,1.21846967915e-07,0.0,0.0,0.0,1.21846967915e-07,0.0,0.0,0.0,1.21846967915e-07,0.34323275,0.8629852,11.66010685,9e-08,0.0,0.0,0.0,9e-08,0.0,0.0,0.0,9e-08
1538769992932522208,9577,1538769992931898880,base_link,0.0,0.0,0.0,0.0,-1.0,0.0,0.0,0.0,0.0,0.0,0.0,0.0,0.0,-0.07,-0.35,-0.476,1.21846967915e-07,0.0,0.0,0.0,1.21846967915e-07,0.0,0.0,0.0,1.21846967915e-07,0.3334261,0.8433719,11.75817335,9e-08,0.0,0.0,0.0,9e-08,0.0,0.0,0.0,9e-08
1538769993003184736,9578,1538769993002427808,base_link,0.0,0.0,0.0,0.0,-1.0,0.0,0.0,0.0,0.0,0.0,0.0,0.0,0.0,-0.198,-0.387,-0.457,1.21846967915e-07,0.0,0.0,0.0,1.21846967915e-07,0.0,0.0,0.0,1.21846967915e-07,0.3530394,0.79433865,12.93497135,9e-08,0.0,0.0,0.0,9e-08,0.0,0.0,0.0,9e-08
1538769993134847456,9579,1538769993133915808,base_link,0.0,0.0,0.0,0.0,-1.0,0.0,0.0,0.0,0.0,0.0,0.0,0.0,0.0,-0.156,-0.398,-0.432,1.21846967915e-07,0.0,0.0,0.0,1.21846967915e-07,0.0,0.0,0.0,1.21846967915e-07,0.48052585,0.40207265,14.4746154,9e-08,0.0,0.0,0.0,9e-08,0.0,0.0,0.0,9e-08
1538769993242837792,9580,1538769993242300928,base_link,0.0,0.0,0.0,0.0,-1.0,0.0,0.0,0.0,0.0,0.0,0.0,0.0,0.0,0.06,-0.434,-0.311,1.21846967915e-07,0.0,0.0,0.0,1.21846967915e-07,0.0,0.0,0.0,1.21846967915e-07,0.6276256,-0.1176798,16.2986523,9e-08,0.0,0.0,0.0,9e-08,0.0,0.0,0.0,9e-08
1538769993330540448,9581,1538769993330041728,base_link,0.0,0.0,0.0,0.0,-1.0,0.0,0.0,0.0,0.0,0.0,0.0,0.0,0.0,0.004,-0.474,-0.153,1.21846967915e-07,0.0,0.0,0.0,1.21846967915e-07,0.0,0.0,0.0,1.21846967915e-07,0.67665885,0.588399,19.15238745,9e-08,0.0,0.0,0.0,9e-08,0.0,0.0,0.0,9e-08
1538769993425202048,9582,1538769993424136512,base_link,0.0,0.0,0.0,0.0,-1.0,0.0,0.0,0.0,0.0,0.0,0.0,0.0,0.0,-0.148,-0.429,-0.136,1.21846967915e-07,0.0,0.0,0.0,1.21846967915e-07,0.0,0.0,0.0,1.21846967915e-07,0.65704555,0.75511205,16.38691215,9e-08,0.0,0.0,0.0,9e-08,0.0,0.0,0.0,9e-08
1538769993545953632,9583,1538769993545439744,base_link,0.0,0.0,0.0,0.0,-1.0,0.0,0.0,0.0,0.0,0.0,0.0,0.0,0.0,-0.101,-0.404,-0.196,1.21846967915e-07,0.0,0.0,0.0,1.21846967915e-07,0.0,0.0,0.0,1.21846967915e-07,0.588399,0.980665,15.7494799,9e-08,0.0,0.0,0.0,9e-08,0.0,0.0,0.0,9e-08
1538769993614041600,9584,1538769993613540800,base_link,0.0,0.0,0.0,0.0,-1.0,0.0,0.0,0.0,0.0,0.0,0.0,0.0,0.0,-0.086,-0.348,-0.233,1.21846967915e-07,0.0,0.0,0.0,1.21846967915e-07,0.0,0.0,0.0,1.21846967915e-07,0.6668522,1.0787315,15.494507,9e-08,0.0,0.0,0.0,9e-08,0.0,0.0,0.0,9e-08
1538769993732761056,9585,1538769993725119680,base_link,0.0,0.0,0.0,0.0,-1.0,0.0,0.0,0.0,0.0,0.0,0.0,0.0,0.0,-0.129,-0.263,-0.274,1.21846967915e-07,0.0,0.0,0.0,1.21846967915e-07,0.0,0.0,0.0,1.21846967915e-07,0.38245935,1.32389775,13.9058297,9e-08,0.0,0.0,0.0,9e-08,0.0,0.0,0.0,9e-08
1538769993818974816,9586,1538769993818468640,base_link,0.0,0.0,0.0,0.0,-1.0,0.0,0.0,0.0,0.0,0.0,0.0,0.0,0.0,0.0,-0.242,-0.357,1.21846967915e-07,0.0,0.0,0.0,1.21846967915e-07,0.0,0.0,0.0,1.21846967915e-07,0.24516625,0.9022118,13.0232312,9e-08,0.0,0.0,0.0,9e-08,0.0,0.0,0.0,9e-08
1538769993937192448,9587,1538769993935069152,base_link,0.0,0.0,0.0,0.0,-1.0,0.0,0.0,0.0,0.0,0.0,0.0,0.0,0.0,0.326,-0.247,-0.393,1.21846967915e-07,0.0,0.0,0.0,1.21846967915e-07,0.0,0.0,0.0,1.21846967915e-07,0.22555295,0.85317855,12.2190859,9e-08,0.0,0.0,0.0,9e-08,0.0,0.0,0.0,9e-08
1538769994024275712,9588,1538769994023430912,base_link,0.0,0.0,0.0,0.0,-1.0,0.0,0.0,0.0,0.0,0.0,0.0,0.0,0.0,0.19,-0.253,-0.382,1.21846967915e-07,0.0,0.0,0.0,1.21846967915e-07,0.0,0.0,0.0,1.21846967915e-07,0.12748645,0.89240515,11.44436055,9e-08,0.0,0.0,0.0,9e-08,0.0,0.0,0.0,9e-08
1538769994132338560,9589,1538769994131313440,base_link,0.0,0.0,0.0,0.0,-1.0,0.0,0.0,0.0,0.0,0.0,0.0,0.0,0.0,0.073,-0.273,-0.386,1.21846967915e-07,0.0,0.0,0.0,1.21846967915e-07,0.0,0.0,0.0,1.21846967915e-07,0.28439285,0.7453054,12.0033396,9e-08,0.0,0.0,0.0,9e-08,0.0,0.0,0.0,9e-08
1538769994263921472,9590,1538769994263086784,base_link,0.0,0.0,0.0,0.0,-1.0,0.0,0.0,0.0,0.0,0.0,0.0,0.0,0.0,-0.059,-0.273,-0.343,1.21846967915e-07,0.0,0.0,0.0,1.21846967915e-07,0.0,0.0,0.0,1.21846967915e-07,0.2941995,0.63743225,12.0817928,9e-08,0.0,0.0,0.0,9e-08,0.0,0.0,0.0,9e-08
1538769994341000672,9591,1538769994336336672,base_link,0.0,0.0,0.0,0.0,-1.0,0.0,0.0,0.0,0.0,0.0,0.0,0.0,0.0,-0.071,-0.261,-0.312,1.21846967915e-07,0.0,0.0,0.0,1.21846967915e-07,0.0,0.0,0.0,1.21846967915e-07,0.3138128,0.75511205,10.87557485,9e-08,0.0,0.0,0.0,9e-08,0.0,0.0,0.0,9e-08
1538769994456132960,9592,1538769994449087264,base_link,0.0,0.0,0.0,0.0,-1.0,0.0,0.0,0.0,0.0,0.0,0.0,0.0,0.0,-0.052,-0.253,-0.329,1.21846967915e-07,0.0,0.0,0.0,1.21846967915e-07,0.0,0.0,0.0,1.21846967915e-07,0.2157463,0.9414384,10.44408225,9e-08,0.0,0.0,0.0,9e-08,0.0,0.0,0.0,9e-08
1538769994530526304,9593,1538769994525900000,base_link,0.0,0.0,0.0,0.0,-1.0,0.0,0.0,0.0,0.0,0.0,0.0,0.0,0.0,-0.092,-0.263,-0.386,1.21846967915e-07,0.0,0.0,0.0,1.21846967915e-07,0.0,0.0,0.0,1.21846967915e-07,0.16671305,0.83356525,10.09104285,9e-08,0.0,0.0,0.0,9e-08,0.0,0.0,0.0,9e-08
1538769994632034176,9594,1538769994630400736,base_link,0.0,0.0,0.0,0.0,-1.0,0.0,0.0,0.0,0.0,0.0,0.0,0.0,0.0,-0.023,-0.271,-0.402,1.21846967915e-07,0.0,0.0,0.0,1.21846967915e-07,0.0,0.0,0.0,1.21846967915e-07,0.08825985,0.95124505,10.983448,9e-08,0.0,0.0,0.0,9e-08,0.0,0.0,0.0,9e-08
1538769994769651584,9595,1538769994768889472,base_link,0.0,0.0,0.0,0.0,-1.0,0.0,0.0,0.0,0.0,0.0,0.0,0.0,0.0,-0.186,-0.282,-0.43,1.21846967915e-07,0.0,0.0,0.0,1.21846967915e-07,0.0,0.0,0.0,1.21846967915e-07,0.00980665,1.0002783,11.38552065,9e-08,0.0,0.0,0.0,9e-08,0.0,0.0,0.0,9e-08
1538769994811006464,9596,1538769994810319456,base_link,0.0,0.0,0.0,0.0,-1.0,0.0,0.0,0.0,0.0,0.0,0.0,0.0,0.0,-0.261,-0.266,-0.45,1.21846967915e-07,0.0,0.0,0.0,1.21846967915e-07,0.0,0.0,0.0,1.21846967915e-07,-0.06864655,0.6276256,9.97336305,9e-08,0.0,0.0,0.0,9e-08,0.0,0.0,0.0,9e-08
1538769994954633120,9597,1538769994944351104,base_link,0.0,0.0,0.0,0.0,-1.0,0.0,0.0,0.0,0.0,0.0,0.0,0.0,0.0,-0.253,-0.301,-0.409,1.21846967915e-07,0.0,0.0,0.0,1.21846967915e-07,0.0,0.0,0.0,1.21846967915e-07,0.00980665,0.73549875,11.2188076,9e-08,0.0,0.0,0.0,9e-08,0.0,0.0,0.0,9e-08
1538769995022979456,9598,1538769995022391136,base_link,0.0,0.0,0.0,0.0,-1.0,0.0,0.0,0.0,0.0,0.0,0.0,0.0,0.0,-0.122,-0.309,-0.407,1.21846967915e-07,0.0,0.0,0.0,1.21846967915e-07,0.0,0.0,0.0,1.21846967915e-07,0.08825985,0.53936575,11.7875933,9e-08,0.0,0.0,0.0,9e-08,0.0,0.0,0.0,9e-08
1538769995146541856,9599,1538769995145830400,base_link,0.0,0.0,0.0,0.0,-1.0,0.0,0.0,0.0,0.0,0.0,0.0,0.0,0.0,-0.099,-0.345,-0.377,1.21846967915e-07,0.0,0.0,0.0,1.21846967915e-07,0.0,0.0,0.0,1.21846967915e-07,0.04903325,0.6080123,11.0815145,9e-08,0.0,0.0,0.0,9e-08,0.0,0.0,0.0,9e-08
1538769995218241728,9600,1538769995217680672,base_link,0.0,0.0,0.0,0.0,-1.0,0.0,0.0,0.0,0.0,0.0,0.0,0.0,0.0,-0.132,-0.353,-0.396,1.21846967915e-07,0.0,0.0,0.0,1.21846967915e-07,0.0,0.0,0.0,1.21846967915e-07,0.06864655,0.5295591,11.81701325,9e-08,0.0,0.0,0.0,9e-08,0.0,0.0,0.0,9e-08
1538769995331695168,9601,1538769995331049728,base_link,0.0,0.0,0.0,0.0,-1.0,0.0,0.0,0.0,0.0,0.0,0.0,0.0,0.0,0.134,-0.352,-0.345,1.21846967915e-07,0.0,0.0,0.0,1.21846967915e-07,0.0,0.0,0.0,1.21846967915e-07,0.12748645,0.4314926,13.533177,9e-08,0.0,0.0,0.0,9e-08,0.0,0.0,0.0,9e-08
1538769995431125696,9602,1538769995429787296,base_link,0.0,0.0,0.0,0.0,-1.0,0.0,0.0,0.0,0.0,0.0,0.0,0.0,0.0,0.125,-0.356,-0.282,1.21846967915e-07,0.0,0.0,0.0,1.21846967915e-07,0.0,0.0,0.0,1.21846967915e-07,0.1765197,0.588399,13.62143685,9e-08,0.0,0.0,0.0,9e-08,0.0,0.0,0.0,9e-08
1538769995536288000,9603,1538769995535186912,base_link,0.0,0.0,0.0,0.0,-1.0,0.0,0.0,0.0,0.0,0.0,0.0,0.0,0.0,0.015,-0.371,-0.273,1.21846967915e-07,0.0,0.0,0.0,1.21846967915e-07,0.0,0.0,0.0,1.21846967915e-07,0.2157463,0.57859235,14.2000292,9e-08,0.0,0.0,0.0,9e-08,0.0,0.0,0.0,9e-08
1538769995618384128,9604,1538769995617558688,base_link,0.0,0.0,0.0,0.0,-1.0,0.0,0.0,0.0,0.0,0.0,0.0,0.0,0.0,0.03,-0.368,-0.251,1.21846967915e-07,0.0,0.0,0.0,1.21846967915e-07,0.0,0.0,0.0,1.21846967915e-07,0.24516625,0.55897905,13.8469898,9e-08,0.0,0.0,0.0,9e-08,0.0,0.0,0.0,9e-08
1538769995731302016,9605,1538769995730608736,base_link,0.0,0.0,0.0,0.0,-1.0,0.0,0.0,0.0,0.0,0.0,0.0,0.0,0.0,-0.118,-0.357,-0.214,1.21846967915e-07,0.0,0.0,0.0,1.21846967915e-07,0.0,0.0,0.0,1.21846967915e-07,0.4511059,0.9610517,13.6312435,9e-08,0.0,0.0,0.0,9e-08,0.0,0.0,0.0,9e-08
1538769995832533152,9606,1538769995831842208,base_link,0.0,0.0,0.0,0.0,-1.0,0.0,0.0,0.0,0.0,0.0,0.0,0.0,0.0,-0.168,-0.348,-0.248,1.21846967915e-07,0.0,0.0,0.0,1.21846967915e-07,0.0,0.0,0.0,1.21846967915e-07,0.44129925,1.1964113,13.89602305,9e-08,0.0,0.0,0.0,9e-08,0.0,0.0,0.0,9e-08
1538769995925930240,9607,1538769995925499008,base_link,0.0,0.0,0.0,0.0,-1.0,0.0,0.0,0.0,0.0,0.0,0.0,0.0,0.0,-0.253,-0.334,-0.313,1.21846967915e-07,0.0,0.0,0.0,1.21846967915e-07,0.0,0.0,0.0,1.21846967915e-07,0.5099458,1.176798,14.6707484,9e-08,0.0,0.0,0.0,9e-08,0.0,0.0,0.0,9e-08
1538769996030849440,9608,1538769996029768992,base_link,0.0,0.0,0.0,0.0,-1.0,0.0,0.0,0.0,0.0,0.0,0.0,0.0,0.0,-0.25,-0.304,-0.322,1.21846967915e-07,0.0,0.0,0.0,1.21846967915e-07,0.0,0.0,0.0,1.21846967915e-07,0.3334261,1.0787315,14.07254275,9e-08,0.0,0.0,0.0,9e-08,0.0,0.0,0.0,9e-08
1538769996141484224,9609,1538769996140143424,base_link,0.0,0.0,0.0,0.0,-1.0,0.0,0.0,0.0,0.0,0.0,0.0,0.0,0.0,-0.304,-0.319,-0.307,1.21846967915e-07,0.0,0.0,0.0,1.21846967915e-07,0.0,0.0,0.0,1.21846967915e-07,0.4118793,0.85317855,14.50403535,9e-08,0.0,0.0,0.0,9e-08,0.0,0.0,0.0,9e-08
1538769996233760832,9610,1538769996233212960,base_link,0.0,0.0,0.0,0.0,-1.0,0.0,0.0,0.0,0.0,0.0,0.0,0.0,0.0,-0.378,-0.294,-0.309,1.21846967915e-07,0.0,0.0,0.0,1.21846967915e-07,0.0,0.0,0.0,1.21846967915e-07,0.28439285,1.1179581,13.7685366,9e-08,0.0,0.0,0.0,9e-08,0.0,0.0,0.0,9e-08
1538769996346596864,9611,1538769996345180000,base_link,0.0,0.0,0.0,0.0,-1.0,0.0,0.0,0.0,0.0,0.0,0.0,0.0,0.0,-0.392,-0.249,-0.314,1.21846967915e-07,0.0,0.0,0.0,1.21846967915e-07,0.0,0.0,0.0,1.21846967915e-07,0.1176798,0.71588545,11.89546645,9e-08,0.0,0.0,0.0,9e-08,0.0,0.0,0.0,9e-08
1538769996442418432,9612,1538769996442073344,base_link,0.0,0.0,0.0,0.0,-1.0,0.0,0.0,0.0,0.0,0.0,0.0,0.0,0.0,-0.056,-0.28,-0.303,1.21846967915e-07,0.0,0.0,0.0,1.21846967915e-07,0.0,0.0,0.0,1.21846967915e-07,0.30400615,0.38245935,14.46480875,9e-08,0.0,0.0,0.0,9e-08,0.0,0.0,0.0,9e-08
1538769996544566592,9613,1538769996543363968,base_link,0.0,0.0,0.0,0.0,-1.0,0.0,0.0,0.0,0.0,0.0,0.0,0.0,0.0,-0.35,-0.257,-0.22,1.21846967915e-07,0.0,0.0,0.0,1.21846967915e-07,0.0,0.0,0.0,1.21846967915e-07,0.0980665,0.63743225,13.40569055,9e-08,0.0,0.0,0.0,9e-08,0.0,0.0,0.0,9e-08
1538769996629305120,9614,1538769996628643072,base_link,0.0,0.0,0.0,0.0,-1.0,0.0,0.0,0.0,0.0,0.0,0.0,0.0,0.0,-0.478,-0.218,-0.162,1.21846967915e-07,0.0,0.0,0.0,1.21846967915e-07,0.0,0.0,0.0,1.21846967915e-07,0.0588399,0.93163175,12.356379,9e-08,0.0,0.0,0.0,9e-08,0.0,0.0,0.0,9e-08
1538769996751075360,9615,1538769996750264480,base_link,0.0,0.0,0.0,0.0,-1.0,0.0,0.0,0.0,0.0,0.0,0.0,0.0,0.0,-0.612,-0.23,-0.234,1.21846967915e-07,0.0,0.0,0.0,1.21846967915e-07,0.0,0.0,0.0,1.21846967915e-07,0.16671305,0.71588545,15.2591474,9e-08,0.0,0.0,0.0,9e-08,0.0,0.0,0.0,9e-08
1538769996823893536,9616,1538769996823136128,base_link,0.0,0.0,0.0,0.0,-1.0,0.0,0.0,0.0,0.0,0.0,0.0,0.0,0.0,-0.633,-0.196,-0.208,1.21846967915e-07,0.0,0.0,0.0,1.21846967915e-07,0.0,0.0,0.0,1.21846967915e-07,0.10787315,0.5099458,14.3961622,9e-08,0.0,0.0,0.0,9e-08,0.0,0.0,0.0,9e-08
1538769996963917568,9617,1538769996962108352,base_link,0.0,0.0,0.0,0.0,-1.0,0.0,0.0,0.0,0.0,0.0,0.0,0.0,0.0,-0.555,-0.128,-0.185,1.21846967915e-07,0.0,0.0,0.0,1.21846967915e-07,0.0,0.0,0.0,1.21846967915e-07,-0.0392266,0.69627215,12.7094184,9e-08,0.0,0.0,0.0,9e-08,0.0,0.0,0.0,9e-08
1538769997038670688,9618,1538769997037092352,base_link,0.0,0.0,0.0,0.0,-1.0,0.0,0.0,0.0,0.0,0.0,0.0,0.0,0.0,-0.487,-0.102,-0.207,1.21846967915e-07,0.0,0.0,0.0,1.21846967915e-07,0.0,0.0,0.0,1.21846967915e-07,-0.1372931,0.50013915,11.89546645,9e-08,0.0,0.0,0.0,9e-08,0.0,0.0,0.0,9e-08
1538769997137455232,9619,1538769997136771520,base_link,0.0,0.0,0.0,0.0,-1.0,0.0,0.0,0.0,0.0,0.0,0.0,0.0,0.0,-0.463,-0.11,-0.143,1.21846967915e-07,0.0,0.0,0.0,1.21846967915e-07,0.0,0.0,0.0,1.21846967915e-07,-0.16671305,0.30400615,11.60126695,9e-08,0.0,0.0,0.0,9e-08,0.0,0.0,0.0,9e-08
1538769997259733248,9620,1538769997258384960,base_link,0.0,0.0,0.0,0.0,-1.0,0.0,0.0,0.0,0.0,0.0,0.0,0.0,0.0,-0.576,-0.094,-0.061,1.21846967915e-07,0.0,0.0,0.0,1.21846967915e-07,0.0,0.0,0.0,1.21846967915e-07,-0.18632635,0.1569064,11.4345539,9e-08,0.0,0.0,0.0,9e-08,0.0,0.0,0.0,9e-08
1538769997358354720,9621,1538769997357500928,base_link,0.0,0.0,0.0,0.0,-1.0,0.0,0.0,0.0,0.0,0.0,0.0,0.0,0.0,-0.787,-0.081,0.05,1.21846967915e-07,0.0,0.0,0.0,1.21846967915e-07,0.0,0.0,0.0,1.21846967915e-07,-0.0784532,0.588399,11.5914603,9e-08,0.0,0.0,0.0,9e-08,0.0,0.0,0.0,9e-08
1538769997430980512,9622,1538769997428835968,base_link,0.0,0.0,0.0,0.0,-1.0,0.0,0.0,0.0,0.0,0.0,0.0,0.0,0.0,-0.149,-0.026,-0.008,1.21846967915e-07,0.0,0.0,0.0,1.21846967915e-07,0.0,0.0,0.0,1.21846967915e-07,-0.1372931,0.65704555,11.26784085,9e-08,0.0,0.0,0.0,9e-08,0.0,0.0,0.0,9e-08
1538769997529673728,9623,1538769997529062464,base_link,0.0,0.0,0.0,0.0,-1.0,0.0,0.0,0.0,0.0,0.0,0.0,0.0,0.0,0.709,0.016,-0.144,1.21846967915e-07,0.0,0.0,0.0,1.21846967915e-07,0.0,0.0,0.0,1.21846967915e-07,-0.1372931,0.71588545,9.9635564,9e-08,0.0,0.0,0.0,9e-08,0.0,0.0,0.0,9e-08
1538769997627176640,9624,1538769997626364800,base_link,0.0,0.0,0.0,0.0,-1.0,0.0,0.0,0.0,0.0,0.0,0.0,0.0,0.0,0.677,-0.008,-0.16,1.21846967915e-07,0.0,0.0,0.0,1.21846967915e-07,0.0,0.0,0.0,1.21846967915e-07,-0.1176798,0.57859235,10.3165958,9e-08,0.0,0.0,0.0,9e-08,0.0,0.0,0.0,9e-08
1538769997719956800,9625,1538769997719319456,base_link,0.0,0.0,0.0,0.0,-1.0,0.0,0.0,0.0,0.0,0.0,0.0,0.0,0.0,0.572,-0.001,-0.163,1.21846967915e-07,0.0,0.0,0.0,1.21846967915e-07,0.0,0.0,0.0,1.21846967915e-07,-0.10787315,0.4118793,10.1596894,9e-08,0.0,0.0,0.0,9e-08,0.0,0.0,0.0,9e-08
1538769997832677888,9626,1538769997832214464,base_link,0.0,0.0,0.0,0.0,-1.0,0.0,0.0,0.0,0.0,0.0,0.0,0.0,0.0,0.542,0.031,-0.164,1.21846967915e-07,0.0,0.0,0.0,1.21846967915e-07,0.0,0.0,0.0,1.21846967915e-07,-0.16671305,0.196133,8.9436648,9e-08,0.0,0.0,0.0,9e-08,0.0,0.0,0.0,9e-08
1538769997944214528,9627,1538769997943800352,base_link,0.0,0.0,0.0,0.0,-1.0,0.0,0.0,0.0,0.0,0.0,0.0,0.0,0.0,0.517,-0.021,-0.146,1.21846967915e-07,0.0,0.0,0.0,1.21846967915e-07,0.0,0.0,0.0,1.21846967915e-07,-0.0784532,0.4118793,10.5715687,9e-08,0.0,0.0,0.0,9e-08,0.0,0.0,0.0,9e-08
1538769998058664128,9628,1538769998058149120,base_link,0.0,0.0,0.0,0.0,-1.0,0.0,0.0,0.0,0.0,0.0,0.0,0.0,0.0,0.435,-0.001,-0.118,1.21846967915e-07,0.0,0.0,0.0,1.21846967915e-07,0.0,0.0,0.0,1.21846967915e-07,-0.1372931,0.5687857,9.91452315,9e-08,0.0,0.0,0.0,9e-08,0.0,0.0,0.0,9e-08
1538769998151593824,9629,1538769998149816704,base_link,0.0,0.0,0.0,0.0,-1.0,0.0,0.0,0.0,0.0,0.0,0.0,0.0,0.0,0.222,-0.021,-0.108,1.21846967915e-07,0.0,0.0,0.0,1.21846967915e-07,0.0,0.0,0.0,1.21846967915e-07,-0.06864655,0.55897905,9.3163175,9e-08,0.0,0.0,0.0,9e-08,0.0,0.0,0.0,9e-08
1538769998243900864,9630,1538769998243275712,base_link,0.0,0.0,0.0,0.0,-1.0,0.0,0.0,0.0,0.0,0.0,0.0,0.0,0.0,0.156,-0.044,-0.118,1.21846967915e-07,0.0,0.0,0.0,1.21846967915e-07,0.0,0.0,0.0,1.21846967915e-07,-0.0588399,0.65704555,9.22805765,9e-08,0.0,0.0,0.0,9e-08,0.0,0.0,0.0,9e-08
1538769998346425248,9631,1538769998345329376,base_link,0.0,0.0,0.0,0.0,-1.0,0.0,0.0,0.0,0.0,0.0,0.0,0.0,0.0,0.012,-0.039,-0.172,1.21846967915e-07,0.0,0.0,0.0,1.21846967915e-07,0.0,0.0,0.0,1.21846967915e-07,-0.06864655,0.7649187,8.97308475,9e-08,0.0,0.0,0.0,9e-08,0.0,0.0,0.0,9e-08
1538769998432159904,9632,1538769998431533248,base_link,0.0,0.0,0.0,0.0,-1.0,0.0,0.0,0.0,0.0,0.0,0.0,0.0,0.0,0.09,-0.015,-0.244,1.21846967915e-07,0.0,0.0,0.0,1.21846967915e-07,0.0,0.0,0.0,1.21846967915e-07,-0.04903325,0.8825985,8.6494653,9e-08,0.0,0.0,0.0,9e-08,0.0,0.0,0.0,9e-08
1538769998528997472,9633,1538769998528345920,base_link,0.0,0.0,0.0,0.0,-1.0,0.0,0.0,0.0,0.0,0.0,0.0,0.0,0.0,0.114,-3.79640507736e-17,-0.31,1.21846967915e-07,0.0,0.0,0.0,1.21846967915e-07,0.0,0.0,0.0,1.21846967915e-07,-0.0588399,0.8629852,8.3944924,9e-08,0.0,0.0,0.0,9e-08,0.0,0.0,0.0,9e-08
1538769998623334944,9634,1538769998621060416,base_link,0.0,0.0,0.0,0.0,-1.0,0.0,0.0,0.0,0.0,0.0,0.0,0.0,0.0,0.108,-0.033,-0.346,1.21846967915e-07,0.0,0.0,0.0,1.21846967915e-07,0.0,0.0,0.0,1.21846967915e-07,-0.04903325,1.04931155,9.218251,9e-08,0.0,0.0,0.0,9e-08,0.0,0.0,0.0,9e-08
1538769998748083456,9635,1538769998745575744,base_link,0.0,0.0,0.0,0.0,-1.0,0.0,0.0,0.0,0.0,0.0,0.0,0.0,0.0,0.171,-0.055,-0.444,1.21846967915e-07,0.0,0.0,0.0,1.21846967915e-07,0.0,0.0,0.0,1.21846967915e-07,-0.06864655,0.65704555,8.97308475,9e-08,0.0,0.0,0.0,9e-08,0.0,0.0,0.0,9e-08
1538769998855175200,9636,1538769998854597632,base_link,0.0,0.0,0.0,0.0,-1.0,0.0,0.0,0.0,0.0,0.0,0.0,0.0,0.0,0.2,-0.103,-0.426,1.21846967915e-07,0.0,0.0,0.0,1.21846967915e-07,0.0,0.0,0.0,1.21846967915e-07,0.0,0.48052585,9.4928372,9e-08,0.0,0.0,0.0,9e-08,0.0,0.0,0.0,9e-08
1538769998926587872,9637,1538769998924533984,base_link,0.0,0.0,0.0,0.0,-1.0,0.0,0.0,0.0,0.0,0.0,0.0,0.0,0.0,0.23,-0.132,-0.411,1.21846967915e-07,0.0,0.0,0.0,1.21846967915e-07,0.0,0.0,0.0,1.21846967915e-07,-0.0784532,0.67665885,9.79684335,9e-08,0.0,0.0,0.0,9e-08,0.0,0.0,0.0,9e-08
1538769999030527584,9638,1538769999029866560,base_link,0.0,0.0,0.0,0.0,-1.0,0.0,0.0,0.0,0.0,0.0,0.0,0.0,0.0,0.172,-0.136,-0.378,1.21846967915e-07,0.0,0.0,0.0,1.21846967915e-07,0.0,0.0,0.0,1.21846967915e-07,-0.0980665,0.5491724,8.3552658,9e-08,0.0,0.0,0.0,9e-08,0.0,0.0,0.0,9e-08
1538769999136389888,9639,1538769999135904736,base_link,0.0,0.0,0.0,0.0,-1.0,0.0,0.0,0.0,0.0,0.0,0.0,0.0,0.0,0.416,-0.185,-0.412,1.21846967915e-07,0.0,0.0,0.0,1.21846967915e-07,0.0,0.0,0.0,1.21846967915e-07,-0.1372931,0.1176798,8.12971285,9e-08,0.0,0.0,0.0,9e-08,0.0,0.0,0.0,9e-08
1538769999235264064,9640,1538769999234503456,base_link,0.0,0.0,0.0,0.0,-1.0,0.0,0.0,0.0,0.0,0.0,0.0,0.0,0.0,0.23,-0.276,-0.329,1.21846967915e-07,0.0,0.0,0.0,1.21846967915e-07,0.0,0.0,0.0,1.21846967915e-07,-0.12748645,0.3530394,9.9635564,9e-08,0.0,0.0,0.0,9e-08,0.0,0.0,0.0,9e-08
1538769999325807872,9641,1538769999325071744,base_link,0.0,0.0,0.0,0.0,-1.0,0.0,0.0,0.0,0.0,0.0,0.0,0.0,0.0,0.252,-0.342,-0.296,1.21846967915e-07,0.0,0.0,0.0,1.21846967915e-07,0.0,0.0,0.0,1.21846967915e-07,0.0784532,0.1372931,11.91507975,9e-08,0.0,0.0,0.0,9e-08,0.0,0.0,0.0,9e-08
1538769999444092448,9642,1538769999442689792,base_link,0.0,0.0,0.0,0.0,-1.0,0.0,0.0,0.0,0.0,0.0,0.0,0.0,0.0,0.231,-0.353,-0.199,1.21846967915e-07,0.0,0.0,0.0,1.21846967915e-07,0.0,0.0,0.0,1.21846967915e-07,0.196133,1.49040160233e-15,12.17005265,9e-08,0.0,0.0,0.0,9e-08,0.0,0.0,0.0,9e-08
1538769999541864512,9643,1538769999536989216,base_link,0.0,0.0,0.0,0.0,-1.0,0.0,0.0,0.0,0.0,0.0,0.0,0.0,0.0,0.107,-0.381,-0.086,1.21846967915e-07,0.0,0.0,0.0,1.21846967915e-07,0.0,0.0,0.0,1.21846967915e-07,0.2549729,0.5295591,12.7290317,9e-08,0.0,0.0,0.0,9e-08,0.0,0.0,0.0,9e-08
1538769999633987328,9644,1538769999633518144,base_link,0.0,0.0,0.0,0.0,-1.0,0.0,0.0,0.0,0.0,0.0,0.0,0.0,0.0,0.067,-0.401,-0.073,1.21846967915e-07,0.0,0.0,0.0,1.21846967915e-07,0.0,0.0,0.0,1.21846967915e-07,0.44129925,1.1571847,13.1801376,9e-08,0.0,0.0,0.0,9e-08,0.0,0.0,0.0,9e-08
1538769999756278784,9645,1538769999755611104,base_link,0.0,0.0,0.0,0.0,-1.0,0.0,0.0,0.0,0.0,0.0,0.0,0.0,0.0,-0.073,-0.364,-0.144,1.21846967915e-07,0.0,0.0,0.0,1.21846967915e-07,0.0,0.0,0.0,1.21846967915e-07,0.67665885,1.38273765,13.03303785,9e-08,0.0,0.0,0.0,9e-08,0.0,0.0,0.0,9e-08
1538769999830489984,9646,1538769999829830976,base_link,0.0,0.0,0.0,0.0,-1.0,0.0,0.0,0.0,0.0,0.0,0.0,0.0,0.0,-0.169,-0.341,-0.189,1.21846967915e-07,0.0,0.0,0.0,1.21846967915e-07,0.0,0.0,0.0,1.21846967915e-07,0.5295591,1.85345685,12.6701918,9e-08,0.0,0.0,0.0,9e-08,0.0,0.0,0.0,9e-08
1538769999944462688,9647,1538769999944040288,base_link,0.0,0.0,0.0,0.0,-1.0,0.0,0.0,0.0,0.0,0.0,0.0,0.0,0.0,-0.237,-0.293,-0.321,1.21846967915e-07,0.0,0.0,0.0,1.21846967915e-07,0.0,0.0,0.0,1.21846967915e-07,0.7060788,2.14765635,12.42502555,9e-08,0.0,0.0,0.0,9e-08,0.0,0.0,0.0,9e-08
1538770000050612288,9648,1538770000049935424,base_link,0.0,0.0,0.0,0.0,-1.0,0.0,0.0,0.0,0.0,0.0,0.0,0.0,0.0,0.012,-0.255,-0.524,1.21846967915e-07,0.0,0.0,0.0,1.21846967915e-07,0.0,0.0,0.0,1.21846967915e-07,0.7649187,2.0593965,12.1014061,9e-08,0.0,0.0,0.0,9e-08,0.0,0.0,0.0,9e-08
1538770000139637280,9649,1538770000138801856,base_link,0.0,0.0,0.0,0.0,-1.0,0.0,0.0,0.0,0.0,0.0,0.0,0.0,0.0,0.212,-0.259,-0.681,1.21846967915e-07,0.0,0.0,0.0,1.21846967915e-07,0.0,0.0,0.0,1.21846967915e-07,0.7453054,1.7063571,12.5328987,9e-08,0.0,0.0,0.0,9e-08,0.0,0.0,0.0,9e-08
1538770000238639488,9650,1538770000238197024,base_link,0.0,0.0,0.0,0.0,-1.0,0.0,0.0,0.0,0.0,0.0,0.0,0.0,0.0,0.16,-0.324,-0.701,1.21846967915e-07,0.0,0.0,0.0,1.21846967915e-07,0.0,0.0,0.0,1.21846967915e-07,0.7453054,0.6864655,12.1210194,9e-08,0.0,0.0,0.0,9e-08,0.0,0.0,0.0,9e-08
1538770000339093088,9651,1538770000338712448,base_link,0.0,0.0,0.0,0.0,-1.0,0.0,0.0,0.0,0.0,0.0,0.0,0.0,0.0,0.298,-0.43,-0.554,1.21846967915e-07,0.0,0.0,0.0,1.21846967915e-07,0.0,0.0,0.0,1.21846967915e-07,0.91201845,0.3138128,13.5135637,9e-08,0.0,0.0,0.0,9e-08,0.0,0.0,0.0,9e-08
1538770000437321728,9652,1538770000436687712,base_link,0.0,0.0,0.0,0.0,-1.0,0.0,0.0,0.0,0.0,0.0,0.0,0.0,0.0,0.071,-0.518,-0.388,1.21846967915e-07,0.0,0.0,0.0,1.21846967915e-07,0.0,0.0,0.0,1.21846967915e-07,1.14737805,0.9414384,16.89685795,9e-08,0.0,0.0,0.0,9e-08,0.0,0.0,0.0,9e-08
1538770000530042112,9653,1538770000529506848,base_link,0.0,0.0,0.0,0.0,-1.0,0.0,0.0,0.0,0.0,0.0,0.0,0.0,0.0,-0.11,-0.568,-0.334,1.21846967915e-07,0.0,0.0,0.0,1.21846967915e-07,0.0,0.0,0.0,1.21846967915e-07,1.4709975,1.0198916,18.7503148,9e-08,0.0,0.0,0.0,9e-08,0.0,0.0,0.0,9e-08
1538770000651559648,9654,1538770000650891072,base_link,0.0,0.0,0.0,0.0,-1.0,0.0,0.0,0.0,0.0,0.0,0.0,0.0,0.0,-0.195,-0.565,-0.27,1.21846967915e-07,0.0,0.0,0.0,1.21846967915e-07,0.0,0.0,0.0,1.21846967915e-07,1.6867438,0.7256921,17.3577705,9e-08,0.0,0.0,0.0,9e-08,0.0,0.0,0.0,9e-08
1538770000731572704,9655,1538770000731020288,base_link,0.0,0.0,0.0,0.0,-1.0,0.0,0.0,0.0,0.0,0.0,0.0,0.0,0.0,-0.14,-0.529,-0.245,1.21846967915e-07,0.0,0.0,0.0,1.21846967915e-07,0.0,0.0,0.0,1.21846967915e-07,1.75539035,0.7649187,17.2008641,9e-08,0.0,0.0,0.0,9e-08,0.0,0.0,0.0,9e-08
1538770000825615456,9656,1538770000824972192,base_link,0.0,0.0,0.0,0.0,-1.0,0.0,0.0,0.0,0.0,0.0,0.0,0.0,0.0,0.2,-0.587,-0.231,1.21846967915e-07,0.0,0.0,0.0,1.21846967915e-07,0.0,0.0,0.0,1.21846967915e-07,2.2359162,0.6080123,20.2409256,9e-08,0.0,0.0,0.0,9e-08,0.0,0.0,0.0,9e-08
1538770000925035584,9657,1538770000924562912,base_link,0.0,0.0,0.0,0.0,-1.0,0.0,0.0,0.0,0.0,0.0,0.0,0.0,0.0,-0.119,-0.46,-0.125,1.21846967915e-07,0.0,0.0,0.0,1.21846967915e-07,0.0,0.0,0.0,1.21846967915e-07,1.3140911,0.51975245,15.34740725,9e-08,0.0,0.0,0.0,9e-08,0.0,0.0,0.0,9e-08
1538770001032812512,9658,1538770001030790048,base_link,0.0,0.0,0.0,0.0,-1.0,0.0,0.0,0.0,0.0,0.0,0.0,0.0,0.0,0.278,-0.516,-0.143,1.21846967915e-07,0.0,0.0,0.0,1.21846967915e-07,0.0,0.0,0.0,1.21846967915e-07,1.7848103,0.59820565,18.07365595,9e-08,0.0,0.0,0.0,9e-08,0.0,0.0,0.0,9e-08
1538770001106124704,9659,1538770001105644256,base_link,0.0,0.0,0.0,0.0,-1.0,0.0,0.0,0.0,0.0,0.0,0.0,0.0,0.0,-0.003,-0.496,-0.093,1.21846967915e-07,0.0,0.0,0.0,1.21846967915e-07,0.0,0.0,0.0,1.21846967915e-07,1.765197,0.784532,17.848103,9e-08,0.0,0.0,0.0,9e-08,0.0,0.0,0.0,9e-08
1538770001248192672,9660,1538770001243957792,base_link,0.0,0.0,0.0,0.0,-1.0,0.0,0.0,0.0,0.0,0.0,0.0,0.0,0.0,-0.22,-0.467,-0.112,1.21846967915e-07,0.0,0.0,0.0,1.21846967915e-07,0.0,0.0,0.0,1.21846967915e-07,1.85345685,1.44157755,17.259704,9e-08,0.0,0.0,0.0,9e-08,0.0,0.0,0.0,9e-08
1538770001337117376,9661,1538770001331810656,base_link,0.0,0.0,0.0,0.0,-1.0,0.0,0.0,0.0,0.0,0.0,0.0,0.0,0.0,-0.247,-0.385,-0.211,1.21846967915e-07,0.0,0.0,0.0,1.21846967915e-07,0.0,0.0,0.0,1.21846967915e-07,1.6082906,1.7063571,16.7105316,9e-08,0.0,0.0,0.0,9e-08,0.0,0.0,0.0,9e-08
1538770001415821248,9662,1538770001415291072,base_link,0.0,0.0,0.0,0.0,-1.0,0.0,0.0,0.0,0.0,0.0,0.0,0.0,0.0,-0.236,-0.345,-0.285,1.21846967915e-07,0.0,0.0,0.0,1.21846967915e-07,0.0,0.0,0.0,1.21846967915e-07,1.46119085,1.6279039,16.05348605,9e-08,0.0,0.0,0.0,9e-08,0.0,0.0,0.0,9e-08
1538770001524832480,9663,1538770001524376768,base_link,0.0,0.0,0.0,0.0,-1.0,0.0,0.0,0.0,0.0,0.0,0.0,0.0,0.0,-0.217,-0.32,-0.367,1.21846967915e-07,0.0,0.0,0.0,1.21846967915e-07,0.0,0.0,0.0,1.21846967915e-07,1.32389775,1.372931,15.1414676,9e-08,0.0,0.0,0.0,9e-08,0.0,0.0,0.0,9e-08
1538770001629929664,9664,1538770001629111840,base_link,0.0,0.0,0.0,0.0,-1.0,0.0,0.0,0.0,0.0,0.0,0.0,0.0,0.0,-0.171,-0.314,-0.404,1.21846967915e-07,0.0,0.0,0.0,1.21846967915e-07,0.0,0.0,0.0,1.21846967915e-07,1.2748645,1.16699135,14.85707475,9e-08,0.0,0.0,0.0,9e-08,0.0,0.0,0.0,9e-08
1538770001740209312,9665,1538770001739808800,base_link,0.0,0.0,0.0,0.0,-1.0,0.0,0.0,0.0,0.0,0.0,0.0,0.0,0.0,-0.105,-0.315,-0.405,1.21846967915e-07,0.0,0.0,0.0,1.21846967915e-07,0.0,0.0,0.0,1.21846967915e-07,1.0002783,0.9218251,14.0627361,9e-08,0.0,0.0,0.0,9e-08,0.0,0.0,0.0,9e-08
1538770001829080160,9666,1538770001828469376,base_link,0.0,0.0,0.0,0.0,-1.0,0.0,0.0,0.0,0.0,0.0,0.0,0.0,0.0,-0.062,-0.334,-0.392,1.21846967915e-07,0.0,0.0,0.0,1.21846967915e-07,0.0,0.0,0.0,1.21846967915e-07,0.9610517,0.77472535,13.87640975,9e-08,0.0,0.0,0.0,9e-08,0.0,0.0,0.0,9e-08
1538770001933846880,9667,1538770001933233504,base_link,0.0,0.0,0.0,0.0,-1.0,0.0,0.0,0.0,0.0,0.0,0.0,0.0,0.0,-0.027,-0.349,-0.374,1.21846967915e-07,0.0,0.0,0.0,1.21846967915e-07,0.0,0.0,0.0,1.21846967915e-07,0.9610517,0.5687857,13.99408955,9e-08,0.0,0.0,0.0,9e-08,0.0,0.0,0.0,9e-08
1538770002030505280,9668,1538770002029876864,base_link,0.0,0.0,0.0,0.0,-1.0,0.0,0.0,0.0,0.0,0.0,0.0,0.0,0.0,-0.065,-0.357,-0.344,1.21846967915e-07,0.0,0.0,0.0,1.21846967915e-07,0.0,0.0,0.0,1.21846967915e-07,0.89240515,0.8433719,14.09215605,9e-08,0.0,0.0,0.0,9e-08,0.0,0.0,0.0,9e-08
1538770002146768864,9669,1538770002146085888,base_link,0.0,0.0,0.0,0.0,-1.0,0.0,0.0,0.0,0.0,0.0,0.0,0.0,0.0,-0.065,-0.353,-0.302,1.21846967915e-07,0.0,0.0,0.0,1.21846967915e-07,0.0,0.0,0.0,1.21846967915e-07,0.89240515,0.980665,14.5726819,9e-08,0.0,0.0,0.0,9e-08,0.0,0.0,0.0,9e-08
1538770002240712832,9670,1538770002239797248,base_link,0.0,0.0,0.0,0.0,-1.0,0.0,0.0,0.0,0.0,0.0,0.0,0.0,0.0,-0.095,-0.344,-0.28,1.21846967915e-07,0.0,0.0,0.0,1.21846967915e-07,0.0,0.0,0.0,1.21846967915e-07,0.9414384,0.5491724,14.2588691,9e-08,0.0,0.0,0.0,9e-08,0.0,0.0,0.0,9e-08
1538770002339819360,9671,1538770002339312864,base_link,0.0,0.0,0.0,0.0,-1.0,0.0,0.0,0.0,0.0,0.0,0.0,0.0,0.0,-0.107,-0.324,-0.245,1.21846967915e-07,0.0,0.0,0.0,1.21846967915e-07,0.0,0.0,0.0,1.21846967915e-07,0.71588545,0.87279185,13.77834325,9e-08,0.0,0.0,0.0,9e-08,0.0,0.0,0.0,9e-08
1538770002455803520,9672,1538770002455156352,base_link,0.0,0.0,0.0,0.0,-1.0,0.0,0.0,0.0,0.0,0.0,0.0,0.0,0.0,-0.174,-0.295,-0.25,1.21846967915e-07,0.0,0.0,0.0,1.21846967915e-07,0.0,0.0,0.0,1.21846967915e-07,0.75511205,0.784532,13.4939504,9e-08,0.0,0.0,0.0,9e-08,0.0,0.0,0.0,9e-08
1538770002562871424,9673,1538770002562351840,base_link,0.0,0.0,0.0,0.0,-1.0,0.0,0.0,0.0,0.0,0.0,0.0,0.0,0.0,-0.219,-0.25,-0.231,1.21846967915e-07,0.0,0.0,0.0,1.21846967915e-07,0.0,0.0,0.0,1.21846967915e-07,0.6472389,1.0787315,12.9840046,9e-08,0.0,0.0,0.0,9e-08,0.0,0.0,0.0,9e-08
1538770002629203232,9674,1538770002628697120,base_link,0.0,0.0,0.0,0.0,-1.0,0.0,0.0,0.0,0.0,0.0,0.0,0.0,0.0,-0.297,-0.234,-0.236,1.21846967915e-07,0.0,0.0,0.0,1.21846967915e-07,0.0,0.0,0.0,1.21846967915e-07,0.59820565,1.14737805,12.56231865,9e-08,0.0,0.0,0.0,9e-08,0.0,0.0,0.0,9e-08
1538770002721485632,9675,1538770002721149568,base_link,0.0,0.0,0.0,0.0,-1.0,0.0,0.0,0.0,0.0,0.0,0.0,0.0,0.0,-0.341,-0.208,-0.274,1.21846967915e-07,0.0,0.0,0.0,1.21846967915e-07,0.0,0.0,0.0,1.21846967915e-07,0.5491724,1.3533177,12.9055514,9e-08,0.0,0.0,0.0,9e-08,0.0,0.0,0.0,9e-08
1538770002848001120,9676,1538770002847349408,base_link,0.0,0.0,0.0,0.0,-1.0,0.0,0.0,0.0,0.0,0.0,0.0,0.0,0.0,-0.367,-0.127,-0.394,1.21846967915e-07,0.0,0.0,0.0,1.21846967915e-07,0.0,0.0,0.0,1.21846967915e-07,0.22555295,1.20621795,11.1011278,9e-08,0.0,0.0,0.0,9e-08,0.0,0.0,0.0,9e-08
1538770002936779904,9677,1538770002936430560,base_link,0.0,0.0,0.0,0.0,-1.0,0.0,0.0,0.0,0.0,0.0,0.0,0.0,0.0,-0.339,-0.109,-0.411,1.21846967915e-07,0.0,0.0,0.0,1.21846967915e-07,0.0,0.0,0.0,1.21846967915e-07,0.06864655,0.89240515,10.0616229,9e-08,0.0,0.0,0.0,9e-08,0.0,0.0,0.0,9e-08
1538770003077413120,9678,1538770003076908000,base_link,0.0,0.0,0.0,0.0,-1.0,0.0,0.0,0.0,0.0,0.0,0.0,0.0,0.0,-0.408,-0.146,-0.393,1.21846967915e-07,0.0,0.0,0.0,1.21846967915e-07,0.0,0.0,0.0,1.21846967915e-07,0.0392266,0.5491724,9.52225715,9e-08,0.0,0.0,0.0,9e-08,0.0,0.0,0.0,9e-08
1538770003141146048,9679,1538770003138938592,base_link,0.0,0.0,0.0,0.0,-1.0,0.0,0.0,0.0,0.0,0.0,0.0,0.0,0.0,-0.363,-0.168,-0.348,1.21846967915e-07,0.0,0.0,0.0,1.21846967915e-07,0.0,0.0,0.0,1.21846967915e-07,0.0,0.5099458,10.6500219,9e-08,0.0,0.0,0.0,9e-08,0.0,0.0,0.0,9e-08
1538770003239101984,9680,1538770003238443744,base_link,0.0,0.0,0.0,0.0,-1.0,0.0,0.0,0.0,0.0,0.0,0.0,0.0,0.0,-0.3,-0.159,-0.305,1.21846967915e-07,0.0,0.0,0.0,1.21846967915e-07,0.0,0.0,0.0,1.21846967915e-07,0.0392266,0.588399,10.7480884,9e-08,0.0,0.0,0.0,9e-08,0.0,0.0,0.0,9e-08
1538770003319996128,9681,1538770003319521632,base_link,0.0,0.0,0.0,0.0,-1.0,0.0,0.0,0.0,0.0,0.0,0.0,0.0,0.0,-0.404,-0.136,-0.282,1.21846967915e-07,0.0,0.0,0.0,1.21846967915e-07,0.0,0.0,0.0,1.21846967915e-07,-0.0196133,0.2941995,10.9638347,9e-08,0.0,0.0,0.0,9e-08,0.0,0.0,0.0,9e-08
1538770003479039040,9682,1538770003478421216,base_link,0.0,0.0,0.0,0.0,-1.0,0.0,0.0,0.0,0.0,0.0,0.0,0.0,0.0,-0.449,-0.126,-0.161,1.21846967915e-07,0.0,0.0,0.0,1.21846967915e-07,0.0,0.0,0.0,1.21846967915e-07,-0.08825985,0.4903325,11.40513395,9e-08,0.0,0.0,0.0,9e-08,0.0,0.0,0.0,9e-08
1538770003547011232,9683,1538770003546493792,base_link,0.0,0.0,0.0,0.0,-1.0,0.0,0.0,0.0,0.0,0.0,0.0,0.0,0.0,-0.466,-0.096,-0.128,1.21846967915e-07,0.0,0.0,0.0,1.21846967915e-07,0.0,0.0,0.0,1.21846967915e-07,-0.10787315,0.6472389,11.38552065,9e-08,0.0,0.0,0.0,9e-08,0.0,0.0,0.0,9e-08
1538770003628030784,9684,1538770003627655584,base_link,0.0,0.0,0.0,0.0,-1.0,0.0,0.0,0.0,0.0,0.0,0.0,0.0,0.0,-0.557,-0.083,-0.121,1.21846967915e-07,0.0,0.0,0.0,1.21846967915e-07,0.0,0.0,0.0,1.21846967915e-07,-0.06864655,0.6080123,11.67972015,9e-08,0.0,0.0,0.0,9e-08,0.0,0.0,0.0,9e-08
1538770003737326336,9685,1538770003736590464,base_link,0.0,0.0,0.0,0.0,-1.0,0.0,0.0,0.0,0.0,0.0,0.0,0.0,0.0,-0.606,-0.019,-0.117,1.21846967915e-07,0.0,0.0,0.0,1.21846967915e-07,0.0,0.0,0.0,1.21846967915e-07,-0.0980665,0.7453054,10.6892485,9e-08,0.0,0.0,0.0,9e-08,0.0,0.0,0.0,9e-08
1538770003844460256,9686,1538770003843960576,base_link,0.0,0.0,0.0,0.0,-1.0,0.0,0.0,0.0,0.0,0.0,0.0,0.0,0.0,-0.59,0.008,-0.135,1.21846967915e-07,0.0,0.0,0.0,1.21846967915e-07,0.0,0.0,0.0,1.21846967915e-07,-0.10787315,0.85317855,10.30678915,9e-08,0.0,0.0,0.0,9e-08,0.0,0.0,0.0,9e-08
1538770003969439520,9687,1538770003967303872,base_link,0.0,0.0,0.0,0.0,-1.0,0.0,0.0,0.0,0.0,0.0,0.0,0.0,0.0,-0.521,0.059,-0.168,1.21846967915e-07,0.0,0.0,0.0,1.21846967915e-07,0.0,0.0,0.0,1.21846967915e-07,-0.28439285,0.81395195,9.5712904,9e-08,0.0,0.0,0.0,9e-08,0.0,0.0,0.0,9e-08
1538770004036094528,9688,1538770004035607392,base_link,0.0,0.0,0.0,0.0,-1.0,0.0,0.0,0.0,0.0,0.0,0.0,0.0,0.0,-0.549,0.078,-0.219,1.21846967915e-07,0.0,0.0,0.0,1.21846967915e-07,0.0,0.0,0.0,1.21846967915e-07,-0.32361945,0.81395195,9.5124505,9e-08,0.0,0.0,0.0,9e-08,0.0,0.0,0.0,9e-08
1538770004127085088,9689,1538770004126680896,base_link,0.0,0.0,0.0,0.0,-1.0,0.0,0.0,0.0,0.0,0.0,0.0,0.0,0.0,-0.553,0.084,-0.248,1.21846967915e-07,0.0,0.0,0.0,1.21846967915e-07,0.0,0.0,0.0,1.21846967915e-07,-0.3138128,0.46091255,8.8848249,9e-08,0.0,0.0,0.0,9e-08,0.0,0.0,0.0,9e-08
1538770004275288832,9690,1538770004274019040,base_link,0.0,0.0,0.0,0.0,-1.0,0.0,0.0,0.0,0.0,0.0,0.0,0.0,0.0,-0.703,0.073,-0.168,1.21846967915e-07,0.0,0.0,0.0,1.21846967915e-07,0.0,0.0,0.0,1.21846967915e-07,-0.38245935,0.196133,8.4141057,9e-08,0.0,0.0,0.0,9e-08,0.0,0.0,0.0,9e-08
1538770004326264768,9691,1538770004325302432,base_link,0.0,0.0,0.0,0.0,-1.0,0.0,0.0,0.0,0.0,0.0,0.0,0.0,0.0,-0.748,0.067,-0.085,1.21846967915e-07,0.0,0.0,0.0,1.21846967915e-07,0.0,0.0,0.0,1.21846967915e-07,-0.32361945,0.16671305,8.22777935,9e-08,0.0,0.0,0.0,9e-08,0.0,0.0,0.0,9e-08
1538770004427940576,9692,1538770004426637664,base_link,0.0,0.0,0.0,0.0,-1.0,0.0,0.0,0.0,0.0,0.0,0.0,0.0,0.0,-0.756,0.06,-0.02,1.21846967915e-07,0.0,0.0,0.0,1.21846967915e-07,0.0,0.0,0.0,1.21846967915e-07,-0.32361945,0.24516625,9.18883105,9e-08,0.0,0.0,0.0,9e-08,0.0,0.0,0.0,9e-08
1538770004540938240,9693,1538770004540544064,base_link,0.0,0.0,0.0,0.0,-1.0,0.0,0.0,0.0,0.0,0.0,0.0,0.0,0.0,-0.755,0.048,0.046,1.21846967915e-07,0.0,0.0,0.0,1.21846967915e-07,0.0,0.0,0.0,1.21846967915e-07,-0.4707192,0.08825985,8.62004535,9e-08,0.0,0.0,0.0,9e-08,0.0,0.0,0.0,9e-08
1538770004622864160,9694,1538770004622183424,base_link,0.0,0.0,0.0,0.0,-1.0,0.0,0.0,0.0,0.0,0.0,0.0,0.0,0.0,-0.613,0.044,0.057,1.21846967915e-07,0.0,0.0,0.0,1.21846967915e-07,0.0,0.0,0.0,1.21846967915e-07,-0.44129925,9.94401713721e-16,8.1199062,9e-08,0.0,0.0,0.0,9e-08,0.0,0.0,0.0,9e-08
1538770004718575552,9695,1538770004717036448,base_link,0.0,0.0,0.0,0.0,-1.0,0.0,0.0,0.0,0.0,0.0,0.0,0.0,0.0,-0.65,0.044,0.128,1.21846967915e-07,0.0,0.0,0.0,1.21846967915e-07,0.0,0.0,0.0,1.21846967915e-07,-0.44129925,0.12748645,7.63938035,9e-08,0.0,0.0,0.0,9e-08,0.0,0.0,0.0,9e-08
1538770004865415136,9696,1538770004864835552,base_link,0.0,0.0,0.0,0.0,-1.0,0.0,0.0,0.0,0.0,0.0,0.0,0.0,0.0,-0.758,0.016,0.179,1.21846967915e-07,0.0,0.0,0.0,1.21846967915e-07,0.0,0.0,0.0,1.21846967915e-07,-0.42168595,0.20593965,8.77695175,9e-08,0.0,0.0,0.0,9e-08,0.0,0.0,0.0,9e-08
1538770004928057728,9697,1538770004926523296,base_link,0.0,0.0,0.0,0.0,-1.0,0.0,0.0,0.0,0.0,0.0,0.0,0.0,0.0,-0.648,0.024,0.16,1.21846967915e-07,0.0,0.0,0.0,1.21846967915e-07,0.0,0.0,0.0,1.21846967915e-07,-0.4118793,0.08825985,8.7867584,9e-08,0.0,0.0,0.0,9e-08,0.0,0.0,0.0,9e-08
1538770005054036960,9698,1538770005053480064,base_link,0.0,0.0,0.0,0.0,-1.0,0.0,0.0,0.0,0.0,0.0,0.0,0.0,0.0,-0.523,0.025,0.218,1.21846967915e-07,0.0,0.0,0.0,1.21846967915e-07,0.0,0.0,0.0,1.21846967915e-07,-0.63743225,-0.1765197,8.01203305,9e-08,0.0,0.0,0.0,9e-08,0.0,0.0,0.0,9e-08
1538770005125339424,9699,1538770005123516032,base_link,0.0,0.0,0.0,0.0,-1.0,0.0,0.0,0.0,0.0,0.0,0.0,0.0,0.0,-0.354,-0.002,0.237,1.21846967915e-07,0.0,0.0,0.0,1.21846967915e-07,0.0,0.0,0.0,1.21846967915e-07,-0.50013915,-0.12748645,7.79628675,9e-08,0.0,0.0,0.0,9e-08,0.0,0.0,0.0,9e-08
1538770005223802336,9700,1538770005222019072,base_link,0.0,0.0,0.0,0.0,-1.0,0.0,0.0,0.0,0.0,0.0,0.0,0.0,0.0,-0.353,-0.052,0.253,1.21846967915e-07,0.0,0.0,0.0,1.21846967915e-07,0.0,0.0,0.0,1.21846967915e-07,-0.5099458,-0.10787315,8.75733845,9e-08,0.0,0.0,0.0,9e-08,0.0,0.0,0.0,9e-08
1538770005338237152,9701,1538770005337693504,base_link,0.0,0.0,0.0,0.0,-1.0,0.0,0.0,0.0,0.0,0.0,0.0,0.0,0.0,-0.317,-0.096,0.295,1.21846967915e-07,0.0,0.0,0.0,1.21846967915e-07,0.0,0.0,0.0,1.21846967915e-07,-0.5491724,-0.14709975,9.1594111,9e-08,0.0,0.0,0.0,9e-08,0.0,0.0,0.0,9e-08
1538770005422401536,9702,1538770005422038176,base_link,0.0,0.0,0.0,0.0,-1.0,0.0,0.0,0.0,0.0,0.0,0.0,0.0,0.0,-0.285,-0.135,0.328,1.21846967915e-07,0.0,0.0,0.0,1.21846967915e-07,0.0,0.0,0.0,1.21846967915e-07,-0.4314926,-0.00980665,9.69877685,9e-08,0.0,0.0,0.0,9e-08,0.0,0.0,0.0,9e-08
1538770005555089568,9703,1538770005550790304,base_link,0.0,0.0,0.0,0.0,-1.0,0.0,0.0,0.0,0.0,0.0,0.0,0.0,0.0,-0.344,-0.15,0.366,1.21846967915e-07,0.0,0.0,0.0,1.21846967915e-07,0.0,0.0,0.0,1.21846967915e-07,-0.40207265,0.06864655,9.22805765,9e-08,0.0,0.0,0.0,9e-08,0.0,0.0,0.0,9e-08
1538770005637982304,9704,1538770005637273856,base_link,0.0,0.0,0.0,0.0,-1.0,0.0,0.0,0.0,0.0,0.0,0.0,0.0,0.0,-0.281,-0.169,0.331,1.21846967915e-07,0.0,0.0,0.0,1.21846967915e-07,0.0,0.0,0.0,1.21846967915e-07,-0.4314926,0.0588399,9.34573745,9e-08,0.0,0.0,0.0,9e-08,0.0,0.0,0.0,9e-08
1538770005731848800,9705,1538770005731227328,base_link,0.0,0.0,0.0,0.0,-1.0,0.0,0.0,0.0,0.0,0.0,0.0,0.0,0.0,-0.257,-0.219,0.301,1.21846967915e-07,0.0,0.0,0.0,1.21846967915e-07,0.0,0.0,0.0,1.21846967915e-07,-0.3530394,-0.0784532,10.1008495,9e-08,0.0,0.0,0.0,9e-08,0.0,0.0,0.0,9e-08
1538770005856485120,9706,1538770005855907744,base_link,0.0,0.0,0.0,0.0,-1.0,0.0,0.0,0.0,0.0,0.0,0.0,0.0,0.0,-0.227,-0.246,0.345,1.21846967915e-07,0.0,0.0,0.0,1.21846967915e-07,0.0,0.0,0.0,1.21846967915e-07,-0.3530394,-0.02941995,11.01286795,9e-08,0.0,0.0,0.0,9e-08,0.0,0.0,0.0,9e-08
1538770005940551072,9707,1538770005939192256,base_link,0.0,0.0,0.0,0.0,-1.0,0.0,0.0,0.0,0.0,0.0,0.0,0.0,0.0,-0.172,-0.271,0.37,1.21846967915e-07,0.0,0.0,0.0,1.21846967915e-07,0.0,0.0,0.0,1.21846967915e-07,-0.3530394,1.39912801508e-15,11.42474725,9e-08,0.0,0.0,0.0,9e-08,0.0,0.0,0.0,9e-08
1538770006033990432,9708,1538770006033225088,base_link,0.0,0.0,0.0,0.0,-1.0,0.0,0.0,0.0,0.0,0.0,0.0,0.0,0.0,-0.144,-0.319,0.378,1.21846967915e-07,0.0,0.0,0.0,1.21846967915e-07,0.0,0.0,0.0,1.21846967915e-07,-0.06864655,-0.00980665,12.7290317,9e-08,0.0,0.0,0.0,9e-08,0.0,0.0,0.0,9e-08
1538770006139325440,9709,1538770006138696128,base_link,0.0,0.0,0.0,0.0,-1.0,0.0,0.0,0.0,0.0,0.0,0.0,0.0,0.0,-0.151,-0.34,0.383,1.21846967915e-07,0.0,0.0,0.0,1.21846967915e-07,0.0,0.0,0.0,1.21846967915e-07,-0.0196133,-0.10787315,12.73883835,9e-08,0.0,0.0,0.0,9e-08,0.0,0.0,0.0,9e-08
1538770006223638400,9710,1538770006222359232,base_link,0.0,0.0,0.0,0.0,-1.0,0.0,0.0,0.0,0.0,0.0,0.0,0.0,0.0,-0.128,-0.344,0.341,1.21846967915e-07,0.0,0.0,0.0,1.21846967915e-07,0.0,0.0,0.0,1.21846967915e-07,0.0392266,-0.0784532,13.5920169,9e-08,0.0,0.0,0.0,9e-08,0.0,0.0,0.0,9e-08
1538770006342444032,9711,1538770006342059456,base_link,0.0,0.0,0.0,0.0,-1.0,0.0,0.0,0.0,0.0,0.0,0.0,0.0,0.0,-0.139,-0.393,0.383,1.21846967915e-07,0.0,0.0,0.0,1.21846967915e-07,0.0,0.0,0.0,1.21846967915e-07,0.12748645,-0.0784532,14.5726819,9e-08,0.0,0.0,0.0,9e-08,0.0,0.0,0.0,9e-08
1538770006447320704,9712,1538770006445172896,base_link,0.0,0.0,0.0,0.0,-1.0,0.0,0.0,0.0,0.0,0.0,0.0,0.0,0.0,-0.172,-0.412,0.413,1.21846967915e-07,0.0,0.0,0.0,1.21846967915e-07,0.0,0.0,0.0,1.21846967915e-07,0.2549729,-0.04903325,14.79823485,9e-08,0.0,0.0,0.0,9e-08,0.0,0.0,0.0,9e-08
1538770006533304320,9713,1538770006531532960,base_link,0.0,0.0,0.0,0.0,-1.0,0.0,0.0,0.0,0.0,0.0,0.0,0.0,0.0,-0.185,-0.415,0.425,1.21846967915e-07,0.0,0.0,0.0,1.21846967915e-07,0.0,0.0,0.0,1.21846967915e-07,0.32361945,0.20593965,14.91591465,9e-08,0.0,0.0,0.0,9e-08,0.0,0.0,0.0,9e-08
1538770006674654208,9714,1538770006673102400,base_link,0.0,0.0,0.0,0.0,-1.0,0.0,0.0,0.0,0.0,0.0,0.0,0.0,0.0,-0.099,-0.423,0.386,1.21846967915e-07,0.0,0.0,0.0,1.21846967915e-07,0.0,0.0,0.0,1.21846967915e-07,0.3726527,0.4118793,14.5726819,9e-08,0.0,0.0,0.0,9e-08,0.0,0.0,0.0,9e-08
1538770006736093120,9715,1538770006734582560,base_link,0.0,0.0,0.0,0.0,-1.0,0.0,0.0,0.0,0.0,0.0,0.0,0.0,0.0,-0.08,-0.424,0.339,1.21846967915e-07,0.0,0.0,0.0,1.21846967915e-07,0.0,0.0,0.0,1.21846967915e-07,0.3726527,0.4314926,15.1806942,9e-08,0.0,0.0,0.0,9e-08,0.0,0.0,0.0,9e-08
1538770006829723648,9716,1538770006829289408,base_link,0.0,0.0,0.0,0.0,-1.0,0.0,0.0,0.0,0.0,0.0,0.0,0.0,0.0,-0.027,-0.425,0.308,1.21846967915e-07,0.0,0.0,0.0,1.21846967915e-07,0.0,0.0,0.0,1.21846967915e-07,0.32361945,0.04903325,14.4353888,9e-08,0.0,0.0,0.0,9e-08,0.0,0.0,0.0,9e-08
1538770006923193312,9717,1538770006919075904,base_link,0.0,0.0,0.0,0.0,-1.0,0.0,0.0,0.0,0.0,0.0,0.0,0.0,0.0,0.022,-0.423,0.333,1.21846967915e-07,0.0,0.0,0.0,1.21846967915e-07,0.0,0.0,0.0,1.21846967915e-07,0.4511059,-0.0784532,14.36674225,9e-08,0.0,0.0,0.0,9e-08,0.0,0.0,0.0,9e-08
1538770007037538848,9718,1538770007033032096,base_link,0.0,0.0,0.0,0.0,-1.0,0.0,0.0,0.0,0.0,0.0,0.0,0.0,0.0,0.089,-0.448,0.386,1.21846967915e-07,0.0,0.0,0.0,1.21846967915e-07,0.0,0.0,0.0,1.21846967915e-07,0.4903325,-0.18632635,15.72005995,9e-08,0.0,0.0,0.0,9e-08,0.0,0.0,0.0,9e-08
1538770007141054592,9719,1538770007139356096,base_link,0.0,0.0,0.0,0.0,-1.0,0.0,0.0,0.0,0.0,0.0,0.0,0.0,0.0,0.256,-0.448,0.439,1.21846967915e-07,0.0,0.0,0.0,1.21846967915e-07,0.0,0.0,0.0,1.21846967915e-07,0.53936575,-0.0588399,15.52392695,9e-08,0.0,0.0,0.0,9e-08,0.0,0.0,0.0,9e-08
1538770007242122432,9720,1538770007241581792,base_link,0.0,0.0,0.0,0.0,-1.0,0.0,0.0,0.0,0.0,0.0,0.0,0.0,0.0,0.261,-0.44,0.471,1.21846967915e-07,0.0,0.0,0.0,1.21846967915e-07,0.0,0.0,0.0,1.21846967915e-07,0.5295591,0.1176798,15.8279331,9e-08,0.0,0.0,0.0,9e-08,0.0,0.0,0.0,9e-08
1538770007334429664,9721,1538770007332323904,base_link,0.0,0.0,0.0,0.0,-1.0,0.0,0.0,0.0,0.0,0.0,0.0,0.0,0.0,0.247,-0.412,0.442,1.21846967915e-07,0.0,0.0,0.0,1.21846967915e-07,0.0,0.0,0.0,1.21846967915e-07,0.51975245,0.24516625,15.7690932,9e-08,0.0,0.0,0.0,9e-08,0.0,0.0,0.0,9e-08
1538770007435420800,9722,1538770007434579584,base_link,0.0,0.0,0.0,0.0,-1.0,0.0,0.0,0.0,0.0,0.0,0.0,0.0,0.0,0.322,-0.403,0.418,1.21846967915e-07,0.0,0.0,0.0,1.21846967915e-07,0.0,0.0,0.0,1.21846967915e-07,0.46091255,0.3530394,15.56315355,9e-08,0.0,0.0,0.0,9e-08,0.0,0.0,0.0,9e-08
1538770007529139360,9723,1538770007528534112,base_link,0.0,0.0,0.0,0.0,-1.0,0.0,0.0,0.0,0.0,0.0,0.0,0.0,0.0,0.439,-0.371,0.368,1.21846967915e-07,0.0,0.0,0.0,1.21846967915e-07,0.0,0.0,0.0,1.21846967915e-07,0.44129925,0.44129925,15.5337336,9e-08,0.0,0.0,0.0,9e-08,0.0,0.0,0.0,9e-08
1538770007662450560,9724,1538770007661874400,base_link,0.0,0.0,0.0,0.0,-1.0,0.0,0.0,0.0,0.0,0.0,0.0,0.0,0.0,0.58,-0.314,0.297,1.21846967915e-07,0.0,0.0,0.0,1.21846967915e-07,0.0,0.0,0.0,1.21846967915e-07,0.3138128,0.588399,14.9257213,9e-08,0.0,0.0,0.0,9e-08,0.0,0.0,0.0,9e-08
1538770007739194368,9725,1538770007736870208,base_link,0.0,0.0,0.0,0.0,-1.0,0.0,0.0,0.0,0.0,0.0,0.0,0.0,0.0,0.696,-0.288,0.251,1.21846967915e-07,0.0,0.0,0.0,1.21846967915e-07,0.0,0.0,0.0,1.21846967915e-07,0.30400615,0.5295591,14.75900825,9e-08,0.0,0.0,0.0,9e-08,0.0,0.0,0.0,9e-08
1538770007822616704,9726,1538770007821874464,base_link,0.0,0.0,0.0,0.0,-1.0,0.0,0.0,0.0,0.0,0.0,0.0,0.0,0.0,0.703,-0.231,0.243,1.21846967915e-07,0.0,0.0,0.0,1.21846967915e-07,0.0,0.0,0.0,1.21846967915e-07,0.20593965,0.5687857,13.8273765,9e-08,0.0,0.0,0.0,9e-08,0.0,0.0,0.0,9e-08
1538770007920928736,9727,1538770007920037120,base_link,0.0,0.0,0.0,0.0,-1.0,0.0,0.0,0.0,0.0,0.0,0.0,0.0,0.0,0.734,-0.204,0.22,1.21846967915e-07,0.0,0.0,0.0,1.21846967915e-07,0.0,0.0,0.0,1.21846967915e-07,0.18632635,0.588399,13.8862164,9e-08,0.0,0.0,0.0,9e-08,0.0,0.0,0.0,9e-08
1538770008039714240,9728,1538770008031794592,base_link,0.0,0.0,0.0,0.0,-1.0,0.0,0.0,0.0,0.0,0.0,0.0,0.0,0.0,0.797,-0.164,0.179,1.21846967915e-07,0.0,0.0,0.0,1.21846967915e-07,0.0,0.0,0.0,1.21846967915e-07,0.06864655,0.5295591,14.0627361,9e-08,0.0,0.0,0.0,9e-08,0.0,0.0,0.0,9e-08
1538770008125976416,9729,1538770008125079616,base_link,0.0,0.0,0.0,0.0,-1.0,0.0,0.0,0.0,0.0,0.0,0.0,0.0,0.0,0.745,-0.111,0.163,1.21846967915e-07,0.0,0.0,0.0,1.21846967915e-07,0.0,0.0,0.0,1.21846967915e-07,-0.1372931,0.51975245,11.9444997,9e-08,0.0,0.0,0.0,9e-08,0.0,0.0,0.0,9e-08
1538770008244576672,9730,1538770008243860896,base_link,0.0,0.0,0.0,0.0,-1.0,0.0,0.0,0.0,0.0,0.0,0.0,0.0,0.0,0.721,-0.077,0.047,1.21846967915e-07,0.0,0.0,0.0,1.21846967915e-07,0.0,0.0,0.0,1.21846967915e-07,-0.3138128,0.7256921,10.8657682,9e-08,0.0,0.0,0.0,9e-08,0.0,0.0,0.0,9e-08
1538770008335553184,9731,1538770008334520256,base_link,0.0,0.0,0.0,0.0,-1.0,0.0,0.0,0.0,0.0,0.0,0.0,0.0,0.0,0.68,-0.075,-0.054,1.21846967915e-07,0.0,0.0,0.0,1.21846967915e-07,0.0,0.0,0.0,1.21846967915e-07,-0.22555295,0.53936575,11.7091401,9e-08,0.0,0.0,0.0,9e-08,0.0,0.0,0.0,9e-08
1538770008460617344,9732,1538770008459761216,base_link,0.0,0.0,0.0,0.0,-1.0,0.0,0.0,0.0,0.0,0.0,0.0,0.0,0.0,0.727,-0.053,-0.074,1.21846967915e-07,0.0,0.0,0.0,1.21846967915e-07,0.0,0.0,0.0,1.21846967915e-07,-0.28439285,0.14709975,11.0815145,9e-08,0.0,0.0,0.0,9e-08,0.0,0.0,0.0,9e-08
1538770008532174880,9733,1538770008531660512,base_link,0.0,0.0,0.0,0.0,-1.0,0.0,0.0,0.0,0.0,0.0,0.0,0.0,0.0,0.733,-0.035,-0.037,1.21846967915e-07,0.0,0.0,0.0,1.21846967915e-07,0.0,0.0,0.0,1.21846967915e-07,-0.3726527,0.2549729,10.65982855,9e-08,0.0,0.0,0.0,9e-08,0.0,0.0,0.0,9e-08
1538770008648088608,9734,1538770008646201120,base_link,0.0,0.0,0.0,0.0,-1.0,0.0,0.0,0.0,0.0,0.0,0.0,0.0,0.0,0.65,-0.012,0.002,1.21846967915e-07,0.0,0.0,0.0,1.21846967915e-07,0.0,0.0,0.0,1.21846967915e-07,-0.32361945,0.1176798,9.8851032,9e-08,0.0,0.0,0.0,9e-08,0.0,0.0,0.0,9e-08
1538770008733531296,9735,1538770008732994944,base_link,0.0,0.0,0.0,0.0,-1.0,0.0,0.0,0.0,0.0,0.0,0.0,0.0,0.0,0.574,-0.036,0.016,1.21846967915e-07,0.0,0.0,0.0,1.21846967915e-07,0.0,0.0,0.0,1.21846967915e-07,-0.2353596,0.32361945,10.4735022,9e-08,0.0,0.0,0.0,9e-08,0.0,0.0,0.0,9e-08
1538770008837561984,9736,1538770008836694624,base_link,0.0,0.0,0.0,0.0,-1.0,0.0,0.0,0.0,0.0,0.0,0.0,0.0,0.0,0.401,-0.016,-0.011,1.21846967915e-07,0.0,0.0,0.0,1.21846967915e-07,0.0,0.0,0.0,1.21846967915e-07,-0.22555295,0.5687857,10.6500219,9e-08,0.0,0.0,0.0,9e-08,0.0,0.0,0.0,9e-08
1538770008925300992,9737,1538770008924678336,base_link,0.0,0.0,0.0,0.0,-1.0,0.0,0.0,0.0,0.0,0.0,0.0,0.0,0.0,0.231,-0.019,-0.053,1.21846967915e-07,0.0,0.0,0.0,1.21846967915e-07,0.0,0.0,0.0,1.21846967915e-07,-0.18632635,0.69627215,11.26784085,9e-08,0.0,0.0,0.0,9e-08,0.0,0.0,0.0,9e-08
1538770009044054464,9738,1538770009040908128,base_link,0.0,0.0,0.0,0.0,-1.0,0.0,0.0,0.0,0.0,0.0,0.0,0.0,0.0,0.244,0.008,-0.085,1.21846967915e-07,0.0,0.0,0.0,1.21846967915e-07,0.0,0.0,0.0,1.21846967915e-07,-0.3138128,0.50013915,9.2378643,9e-08,0.0,0.0,0.0,9e-08,0.0,0.0,0.0,9e-08
1538770009132746432,9739,1538770009132078048,base_link,0.0,0.0,0.0,0.0,-1.0,0.0,0.0,0.0,0.0,0.0,0.0,0.0,0.0,0.172,0.007,-0.099,1.21846967915e-07,0.0,0.0,0.0,1.21846967915e-07,0.0,0.0,0.0,1.21846967915e-07,-0.2157463,0.59820565,8.56120545,9e-08,0.0,0.0,0.0,9e-08,0.0,0.0,0.0,9e-08
1538770009255327360,9740,1538770009238175264,base_link,0.0,0.0,0.0,0.0,-1.0,0.0,0.0,0.0,0.0,0.0,0.0,0.0,0.0,0.131,0.014,-0.131,1.21846967915e-07,0.0,0.0,0.0,1.21846967915e-07,0.0,0.0,0.0,1.21846967915e-07,-0.1765197,0.6668522,8.3748791,9e-08,0.0,0.0,0.0,9e-08,0.0,0.0,0.0,9e-08
1538770009331875328,9741,1538770009329998624,base_link,0.0,0.0,0.0,0.0,-1.0,0.0,0.0,0.0,0.0,0.0,0.0,0.0,0.0,0.016,0.017,-0.14,1.21846967915e-07,0.0,0.0,0.0,1.21846967915e-07,0.0,0.0,0.0,1.21846967915e-07,-0.2941995,0.69627215,8.8455983,9e-08,0.0,0.0,0.0,9e-08,0.0,0.0,0.0,9e-08
1538770009434819488,9742,1538770009427250144,base_link,0.0,0.0,0.0,0.0,-1.0,0.0,0.0,0.0,0.0,0.0,0.0,0.0,0.0,-0.033,0.008,-0.149,1.21846967915e-07,0.0,0.0,0.0,1.21846967915e-07,0.0,0.0,0.0,1.21846967915e-07,-0.2157463,0.7649187,8.7867584,9e-08,0.0,0.0,0.0,9e-08,0.0,0.0,0.0,9e-08
1538770009539678272,9743,1538770009538766368,base_link,0.0,0.0,0.0,0.0,-1.0,0.0,0.0,0.0,0.0,0.0,0.0,0.0,0.0,-0.031,-0.018,-0.184,1.21846967915e-07,0.0,0.0,0.0,1.21846967915e-07,0.0,0.0,0.0,1.21846967915e-07,-0.18632635,0.6472389,9.3751574,9e-08,0.0,0.0,0.0,9e-08,0.0,0.0,0.0,9e-08
1538770009684154048,9744,1538770009683245568,base_link,0.0,0.0,0.0,0.0,-1.0,0.0,0.0,0.0,0.0,0.0,0.0,0.0,0.0,0.001,-0.018,-0.251,1.21846967915e-07,0.0,0.0,0.0,1.21846967915e-07,0.0,0.0,0.0,1.21846967915e-07,-0.22555295,0.588399,9.4928372,9e-08,0.0,0.0,0.0,9e-08,0.0,0.0,0.0,9e-08
1538770009758046112,9745,1538770009751847680,base_link,0.0,0.0,0.0,0.0,-1.0,0.0,0.0,0.0,0.0,0.0,0.0,0.0,0.0,0.09,-0.021,-0.243,1.21846967915e-07,0.0,0.0,0.0,1.21846967915e-07,0.0,0.0,0.0,1.21846967915e-07,-0.2157463,0.57859235,8.89463155,9e-08,0.0,0.0,0.0,9e-08,0.0,0.0,0.0,9e-08
1538770009836609632,9746,1538770009835717920,base_link,0.0,0.0,0.0,0.0,-1.0,0.0,0.0,0.0,0.0,0.0,0.0,0.0,0.0,0.016,-0.069,-0.236,1.21846967915e-07,0.0,0.0,0.0,1.21846967915e-07,0.0,0.0,0.0,1.21846967915e-07,-0.24516625,0.3726527,10.1008495,9e-08,0.0,0.0,0.0,9e-08,0.0,0.0,0.0,9e-08
1538770009935171616,9747,1538770009932439584,base_link,0.0,0.0,0.0,0.0,-1.0,0.0,0.0,0.0,0.0,0.0,0.0,0.0,0.0,-0.057,-0.076,-0.181,1.21846967915e-07,0.0,0.0,0.0,1.21846967915e-07,0.0,0.0,0.0,1.21846967915e-07,-0.18632635,0.1569064,10.24794925,9e-08,0.0,0.0,0.0,9e-08,0.0,0.0,0.0,9e-08
1538770010032650656,9748,1538770010031958496,base_link,0.0,0.0,0.0,0.0,-1.0,0.0,0.0,0.0,0.0,0.0,0.0,0.0,0.0,-0.022,-0.071,-0.111,1.21846967915e-07,0.0,0.0,0.0,1.21846967915e-07,0.0,0.0,0.0,1.21846967915e-07,-0.0980665,0.14709975,9.93413645,9e-08,0.0,0.0,0.0,9e-08,0.0,0.0,0.0,9e-08
1538770010124954912,9749,1538770010124352352,base_link,0.0,0.0,0.0,0.0,-1.0,0.0,0.0,0.0,0.0,0.0,0.0,0.0,0.0,-0.046,-0.063,-0.069,1.21846967915e-07,0.0,0.0,0.0,1.21846967915e-07,0.0,0.0,0.0,1.21846967915e-07,-0.196133,0.28439285,10.07142955,9e-08,0.0,0.0,0.0,9e-08,0.0,0.0,0.0,9e-08
1538770010274346752,9750,1538770010269145952,base_link,0.0,0.0,0.0,0.0,-1.0,0.0,0.0,0.0,0.0,0.0,0.0,0.0,0.0,-0.024,-0.079,-0.041,1.21846967915e-07,0.0,0.0,0.0,1.21846967915e-07,0.0,0.0,0.0,1.21846967915e-07,-0.14709975,0.73549875,11.28745415,9e-08,0.0,0.0,0.0,9e-08,0.0,0.0,0.0,9e-08
1538770010342508608,9751,1538770010342007328,base_link,0.0,0.0,0.0,0.0,-1.0,0.0,0.0,0.0,0.0,0.0,0.0,0.0,0.0,-0.09,-0.067,-0.084,1.21846967915e-07,0.0,0.0,0.0,1.21846967915e-07,0.0,0.0,0.0,1.21846967915e-07,-0.0588399,0.7649187,10.87557485,9e-08,0.0,0.0,0.0,9e-08,0.0,0.0,0.0,9e-08
1538770010428771744,9752,1538770010426923840,base_link,0.0,0.0,0.0,0.0,-1.0,0.0,0.0,0.0,0.0,0.0,0.0,0.0,0.0,-0.244,-0.052,-0.11,1.21846967915e-07,0.0,0.0,0.0,1.21846967915e-07,0.0,0.0,0.0,1.21846967915e-07,-0.0784532,0.8825985,10.91480145,9e-08,0.0,0.0,0.0,9e-08,0.0,0.0,0.0,9e-08
1538770010522793824,9753,1538770010522260384,base_link,0.0,0.0,0.0,0.0,-1.0,0.0,0.0,0.0,0.0,0.0,0.0,0.0,0.0,-0.21,-0.047,-0.134,1.21846967915e-07,0.0,0.0,0.0,1.21846967915e-07,0.0,0.0,0.0,1.21846967915e-07,-0.08825985,0.784532,10.52253545,9e-08,0.0,0.0,0.0,9e-08,0.0,0.0,0.0,9e-08
1538770010629672384,9754,1538770010628744224,base_link,0.0,0.0,0.0,0.0,-1.0,0.0,0.0,0.0,0.0,0.0,0.0,0.0,0.0,-0.311,-0.048,-0.161,1.21846967915e-07,0.0,0.0,0.0,1.21846967915e-07,0.0,0.0,0.0,1.21846967915e-07,-0.08825985,0.6080123,10.8069283,9e-08,0.0,0.0,0.0,9e-08,0.0,0.0,0.0,9e-08
1538770010724391232,9755,1538770010722870688,base_link,0.0,0.0,0.0,0.0,-1.0,0.0,0.0,0.0,0.0,0.0,0.0,0.0,0.0,-0.306,-0.044,-0.178,1.21846967915e-07,0.0,0.0,0.0,1.21846967915e-07,0.0,0.0,0.0,1.21846967915e-07,-0.0980665,0.6080123,10.5519554,9e-08,0.0,0.0,0.0,9e-08,0.0,0.0,0.0,9e-08
1538770010854872576,9756,1538770010853981024,base_link,0.0,0.0,0.0,0.0,-1.0,0.0,0.0,0.0,0.0,0.0,0.0,0.0,0.0,-0.185,-0.051,-0.191,1.21846967915e-07,0.0,0.0,0.0,1.21846967915e-07,0.0,0.0,0.0,1.21846967915e-07,-0.0784532,0.5687857,11.30706745,9e-08,0.0,0.0,0.0,9e-08,0.0,0.0,0.0,9e-08
1538770010934135360,9757,1538770010933697536,base_link,0.0,0.0,0.0,0.0,-1.0,0.0,0.0,0.0,0.0,0.0,0.0,0.0,0.0,-0.23,-0.051,-0.151,1.21846967915e-07,0.0,0.0,0.0,1.21846967915e-07,0.0,0.0,0.0,1.21846967915e-07,-0.04903325,0.392266,11.3364874,9e-08,0.0,0.0,0.0,9e-08,0.0,0.0,0.0,9e-08
1538770011029507296,9758,1538770011028607168,base_link,0.0,0.0,0.0,0.0,-1.0,0.0,0.0,0.0,0.0,0.0,0.0,0.0,0.0,-0.351,-0.063,-0.078,1.21846967915e-07,0.0,0.0,0.0,1.21846967915e-07,0.0,0.0,0.0,1.21846967915e-07,-0.1372931,0.4511059,11.38552065,9e-08,0.0,0.0,0.0,9e-08,0.0,0.0,0.0,9e-08
1538770011134729920,9759,1538770011133724960,base_link,0.0,0.0,0.0,0.0,-1.0,0.0,0.0,0.0,0.0,0.0,0.0,0.0,0.0,-0.337,-0.051,-0.065,1.21846967915e-07,0.0,0.0,0.0,1.21846967915e-07,0.0,0.0,0.0,1.21846967915e-07,-0.02941995,0.5099458,11.8660465,9e-08,0.0,0.0,0.0,9e-08,0.0,0.0,0.0,9e-08
1538770011254182144,9760,1538770011250857472,base_link,0.0,0.0,0.0,0.0,-1.0,0.0,0.0,0.0,0.0,0.0,0.0,0.0,0.0,-0.279,-0.036,-0.081,1.21846967915e-07,0.0,0.0,0.0,1.21846967915e-07,0.0,0.0,0.0,1.21846967915e-07,-0.14709975,0.51975245,10.73828175,9e-08,0.0,0.0,0.0,9e-08,0.0,0.0,0.0,9e-08
1538770011328540032,9761,1538770011327118880,base_link,0.0,0.0,0.0,0.0,-1.0,0.0,0.0,0.0,0.0,0.0,0.0,0.0,0.0,-0.3,-0.058,-0.061,1.21846967915e-07,0.0,0.0,0.0,1.21846967915e-07,0.0,0.0,0.0,1.21846967915e-07,-0.14709975,0.42168595,10.99325465,9e-08,0.0,0.0,0.0,9e-08,0.0,0.0,0.0,9e-08
1538770011453095328,9762,1538770011452362048,base_link,0.0,0.0,0.0,0.0,-1.0,0.0,0.0,0.0,0.0,0.0,0.0,0.0,0.0,-0.229,-0.047,-0.018,1.21846967915e-07,0.0,0.0,0.0,1.21846967915e-07,0.0,0.0,0.0,1.21846967915e-07,-0.08825985,0.51975245,10.20872265,9e-08,0.0,0.0,0.0,9e-08,0.0,0.0,0.0,9e-08
1538770011537456544,9763,1538770011536884480,base_link,0.0,0.0,0.0,0.0,-1.0,0.0,0.0,0.0,0.0,0.0,0.0,0.0,0.0,-0.19,-0.041,-0.021,1.21846967915e-07,0.0,0.0,0.0,1.21846967915e-07,0.0,0.0,0.0,1.21846967915e-07,-0.1372931,0.7256921,10.32640245,9e-08,0.0,0.0,0.0,9e-08,0.0,0.0,0.0,9e-08
1538770011623312704,9764,1538770011622660192,base_link,0.0,0.0,0.0,0.0,-1.0,0.0,0.0,0.0,0.0,0.0,0.0,0.0,0.0,-0.304,-0.044,-0.022,1.21846967915e-07,0.0,0.0,0.0,1.21846967915e-07,0.0,0.0,0.0,1.21846967915e-07,-0.04903325,0.93163175,10.2185293,9e-08,0.0,0.0,0.0,9e-08,0.0,0.0,0.0,9e-08
1538770011746259616,9765,1538770011745198496,base_link,0.0,0.0,0.0,0.0,-1.0,0.0,0.0,0.0,0.0,0.0,0.0,0.0,0.0,-0.415,-0.049,-0.055,1.21846967915e-07,0.0,0.0,0.0,1.21846967915e-07,0.0,0.0,0.0,1.21846967915e-07,0.10787315,0.87279185,12.3759923,9e-08,0.0,0.0,0.0,9e-08,0.0,0.0,0.0,9e-08
1538770011833326496,9766,1538770011832036832,base_link,0.0,0.0,0.0,0.0,-1.0,0.0,0.0,0.0,0.0,0.0,0.0,0.0,0.0,-0.291,-0.034,-0.129,1.21846967915e-07,0.0,0.0,0.0,1.21846967915e-07,0.0,0.0,0.0,1.21846967915e-07,0.0784532,0.65704555,12.160246,9e-08,0.0,0.0,0.0,9e-08,0.0,0.0,0.0,9e-08
1538770011936526848,9767,1538770011936192064,base_link,0.0,0.0,0.0,0.0,-1.0,0.0,0.0,0.0,0.0,0.0,0.0,0.0,0.0,-0.139,-0.03,-0.108,1.21846967915e-07,0.0,0.0,0.0,1.21846967915e-07,0.0,0.0,0.0,1.21846967915e-07,0.0980665,0.4903325,11.3953273,9e-08,0.0,0.0,0.0,9e-08,0.0,0.0,0.0,9e-08
1538770012034306304,9768,1538770012033792480,base_link,0.0,0.0,0.0,0.0,-1.0,0.0,0.0,0.0,0.0,0.0,0.0,0.0,0.0,-0.018,0.007,-0.087,1.21846967915e-07,0.0,0.0,0.0,1.21846967915e-07,0.0,0.0,0.0,1.21846967915e-07,-0.02941995,0.18632635,9.95374975,9e-08,0.0,0.0,0.0,9e-08,0.0,0.0,0.0,9e-08
1538770012163682304,9769,1538770012163073152,base_link,0.0,0.0,0.0,0.0,-1.0,0.0,0.0,0.0,0.0,0.0,0.0,0.0,0.0,0.019,0.009,-0.03,1.21846967915e-07,0.0,0.0,0.0,1.21846967915e-07,0.0,0.0,0.0,1.21846967915e-07,-0.0196133,0.14709975,9.2967042,9e-08,0.0,0.0,0.0,9e-08,0.0,0.0,0.0,9e-08
1538770012223589536,9770,1538770012223028544,base_link,0.0,0.0,0.0,0.0,-1.0,0.0,0.0,0.0,0.0,0.0,0.0,0.0,0.0,0.004,-0.011,0.012,1.21846967915e-07,0.0,0.0,0.0,1.21846967915e-07,0.0,0.0,0.0,1.21846967915e-07,0.0,0.0784532,9.65955025,9e-08,0.0,0.0,0.0,9e-08,0.0,0.0,0.0,9e-08
1538770012345292928,9771,1538770012344886336,base_link,0.0,0.0,0.0,0.0,-1.0,0.0,0.0,0.0,0.0,0.0,0.0,0.0,0.0,-0.028,-0.02,0.066,1.21846967915e-07,0.0,0.0,0.0,1.21846967915e-07,0.0,0.0,0.0,1.21846967915e-07,0.06864655,0.22555295,10.5519554,9e-08,0.0,0.0,0.0,9e-08,0.0,0.0,0.0,9e-08
1538770012419160576,9772,1538770012418579712,base_link,0.0,0.0,0.0,0.0,-1.0,0.0,0.0,0.0,0.0,0.0,0.0,0.0,0.0,-0.078,-0.022,0.099,1.21846967915e-07,0.0,0.0,0.0,1.21846967915e-07,0.0,0.0,0.0,1.21846967915e-07,0.0,0.38245935,11.2188076,9e-08,0.0,0.0,0.0,9e-08,0.0,0.0,0.0,9e-08
1538770012539010304,9773,1538770012535236032,base_link,0.0,0.0,0.0,0.0,-1.0,0.0,0.0,0.0,0.0,0.0,0.0,0.0,0.0,-0.05,-0.005,0.103,1.21846967915e-07,0.0,0.0,0.0,1.21846967915e-07,0.0,0.0,0.0,1.21846967915e-07,-0.06864655,0.32361945,10.4146623,9e-08,0.0,0.0,0.0,9e-08,0.0,0.0,0.0,9e-08
1538770012634952000,9774,1538770012633098048,base_link,0.0,0.0,0.0,0.0,-1.0,0.0,0.0,0.0,0.0,0.0,0.0,0.0,0.0,-0.109,-0.013,0.114,1.21846967915e-07,0.0,0.0,0.0,1.21846967915e-07,0.0,0.0,0.0,1.21846967915e-07,-0.0392266,0.6080123,10.40485565,9e-08,0.0,0.0,0.0,9e-08,0.0,0.0,0.0,9e-08
1538770012757804352,9775,1538770012757236448,base_link,0.0,0.0,0.0,0.0,-1.0,0.0,0.0,0.0,0.0,0.0,0.0,0.0,0.0,-0.153,6.12323399574e-18,0.05,1.21846967915e-07,0.0,0.0,0.0,1.21846967915e-07,0.0,0.0,0.0,1.21846967915e-07,-0.04903325,0.5687857,9.99297635,9e-08,0.0,0.0,0.0,9e-08,0.0,0.0,0.0,9e-08
1538770012827923232,9776,1538770012826765280,base_link,0.0,0.0,0.0,0.0,-1.0,0.0,0.0,0.0,0.0,0.0,0.0,0.0,0.0,-0.159,-0.001,-0.019,1.21846967915e-07,0.0,0.0,0.0,1.21846967915e-07,0.0,0.0,0.0,1.21846967915e-07,0.0,0.61781895,9.9243298,9e-08,0.0,0.0,0.0,9e-08,0.0,0.0,0.0,9e-08
1538770012935730016,9777,1538770012935190400,base_link,0.0,0.0,0.0,0.0,-1.0,0.0,0.0,0.0,0.0,0.0,0.0,0.0,0.0,0.056,0.038,-0.053,1.21846967915e-07,0.0,0.0,0.0,1.21846967915e-07,0.0,0.0,0.0,1.21846967915e-07,-0.12748645,0.4707192,8.71811185,9e-08,0.0,0.0,0.0,9e-08,0.0,0.0,0.0,9e-08
1538770013040945184,9778,1538770013040202368,base_link,0.0,0.0,0.0,0.0,-1.0,0.0,0.0,0.0,0.0,0.0,0.0,0.0,0.0,0.009,0.041,-0.073,1.21846967915e-07,0.0,0.0,0.0,1.21846967915e-07,0.0,0.0,0.0,1.21846967915e-07,-0.0980665,0.2549729,9.0417313,9e-08,0.0,0.0,0.0,9e-08,0.0,0.0,0.0,9e-08
1538770013125658784,9779,1538770013124593184,base_link,0.0,0.0,0.0,0.0,-1.0,0.0,0.0,0.0,0.0,0.0,0.0,0.0,0.0,0.037,0.056,-0.039,1.21846967915e-07,0.0,0.0,0.0,1.21846967915e-07,0.0,0.0,0.0,1.21846967915e-07,-0.16671305,0.0196133,7.5315072,9e-08,0.0,0.0,0.0,9e-08,0.0,0.0,0.0,9e-08
1538770013228283008,9780,1538770013227507328,base_link,0.0,0.0,0.0,0.0,-1.0,0.0,0.0,0.0,0.0,0.0,0.0,0.0,0.0,0.123,0.043,0.004,1.21846967915e-07,0.0,0.0,0.0,1.21846967915e-07,0.0,0.0,0.0,1.21846967915e-07,-0.1569064,-0.08825985,7.7864801,9e-08,0.0,0.0,0.0,9e-08,0.0,0.0,0.0,9e-08
1538770013357331968,9781,1538770013356830240,base_link,0.0,0.0,0.0,0.0,-1.0,0.0,0.0,0.0,0.0,0.0,0.0,0.0,0.0,0.241,0.028,0.073,1.21846967915e-07,0.0,0.0,0.0,1.21846967915e-07,0.0,0.0,0.0,1.21846967915e-07,-0.1372931,-0.196133,9.30651085,9e-08,0.0,0.0,0.0,9e-08,0.0,0.0,0.0,9e-08
1538770013425654464,9782,1538770013424783936,base_link,0.0,0.0,0.0,0.0,-1.0,0.0,0.0,0.0,0.0,0.0,0.0,0.0,0.0,0.185,0.032,0.08,1.21846967915e-07,0.0,0.0,0.0,1.21846967915e-07,0.0,0.0,0.0,1.21846967915e-07,-0.10787315,-0.26477955,9.56148375,9e-08,0.0,0.0,0.0,9e-08,0.0,0.0,0.0,9e-08
1538770013530165280,9783,1538770013528164864,base_link,0.0,0.0,0.0,0.0,-1.0,0.0,0.0,0.0,0.0,0.0,0.0,0.0,0.0,0.125,0.026,0.19,1.21846967915e-07,0.0,0.0,0.0,1.21846967915e-07,0.0,0.0,0.0,1.21846967915e-07,-0.1569064,-0.22555295,9.09076455,9e-08,0.0,0.0,0.0,9e-08,0.0,0.0,0.0,9e-08
1538770013628375072,9784,1538770013627441600,base_link,0.0,0.0,0.0,0.0,-1.0,0.0,0.0,0.0,0.0,0.0,0.0,0.0,0.0,0.065,-0.001,0.256,1.21846967915e-07,0.0,0.0,0.0,1.21846967915e-07,0.0,0.0,0.0,1.21846967915e-07,-0.14709975,0.42168595,10.0420096,9e-08,0.0,0.0,0.0,9e-08,0.0,0.0,0.0,9e-08
1538770013727037856,9785,1538770013726740832,base_link,0.0,0.0,0.0,0.0,-1.0,0.0,0.0,0.0,0.0,0.0,0.0,0.0,0.0,0.029,-0.025,0.211,1.21846967915e-07,0.0,0.0,0.0,1.21846967915e-07,0.0,0.0,0.0,1.21846967915e-07,-0.0980665,0.63743225,10.93441475,9e-08,0.0,0.0,0.0,9e-08,0.0,0.0,0.0,9e-08
1538770013842264480,9786,1538770013838446176,base_link,0.0,0.0,0.0,0.0,-1.0,0.0,0.0,0.0,0.0,0.0,0.0,0.0,0.0,-0.093,0.026,0.143,1.21846967915e-07,0.0,0.0,0.0,1.21846967915e-07,0.0,0.0,0.0,1.21846967915e-07,-0.18632635,0.7649187,10.64021525,9e-08,0.0,0.0,0.0,9e-08,0.0,0.0,0.0,9e-08
1538770013929585472,9787,1538770013928433664,base_link,0.0,0.0,0.0,0.0,-1.0,0.0,0.0,0.0,0.0,0.0,0.0,0.0,0.0,-0.04,0.033,0.021,1.21846967915e-07,0.0,0.0,0.0,1.21846967915e-07,0.0,0.0,0.0,1.21846967915e-07,-0.20593965,0.65704555,9.79684335,9e-08,0.0,0.0,0.0,9e-08,0.0,0.0,0.0,9e-08
1538770014024213344,9788,1538770014023520000,base_link,0.0,0.0,0.0,0.0,-1.0,0.0,0.0,0.0,0.0,0.0,0.0,0.0,0.0,-0.089,0.035,-0.011,1.21846967915e-07,0.0,0.0,0.0,1.21846967915e-07,0.0,0.0,0.0,1.21846967915e-07,-0.28439285,0.8041453,9.46341725,9e-08,0.0,0.0,0.0,9e-08,0.0,0.0,0.0,9e-08
1538770014134924608,9789,1538770014134451360,base_link,0.0,0.0,0.0,0.0,-1.0,0.0,0.0,0.0,0.0,0.0,0.0,0.0,0.0,-0.165,0.038,-0.056,1.21846967915e-07,0.0,0.0,0.0,1.21846967915e-07,0.0,0.0,0.0,1.21846967915e-07,-0.2353596,0.67665885,9.32612415,9e-08,0.0,0.0,0.0,9e-08,0.0,0.0,0.0,9e-08
1538770014244987552,9790,1538770014243969888,base_link,0.0,0.0,0.0,0.0,-1.0,0.0,0.0,0.0,0.0,0.0,0.0,0.0,0.0,0.03,0.05,-0.111,1.21846967915e-07,0.0,0.0,0.0,1.21846967915e-07,0.0,0.0,0.0,1.21846967915e-07,-0.30400615,0.53936575,8.28661925,9e-08,0.0,0.0,0.0,9e-08,0.0,0.0,0.0,9e-08
1538770014347690144,9791,1538770014343849952,base_link,0.0,0.0,0.0,0.0,-1.0,0.0,0.0,0.0,0.0,0.0,0.0,0.0,0.0,0.039,0.008,-0.126,1.21846967915e-07,0.0,0.0,0.0,1.21846967915e-07,0.0,0.0,0.0,1.21846967915e-07,-0.34323275,0.36284605,8.87501825,9e-08,0.0,0.0,0.0,9e-08,0.0,0.0,0.0,9e-08
1538770014431140640,9792,1538770014430637248,base_link,0.0,0.0,0.0,0.0,-1.0,0.0,0.0,0.0,0.0,0.0,0.0,0.0,0.0,0.076,-0.017,-0.091,1.21846967915e-07,0.0,0.0,0.0,1.21846967915e-07,0.0,0.0,0.0,1.21846967915e-07,-0.18632635,0.3334261,10.6304086,9e-08,0.0,0.0,0.0,9e-08,0.0,0.0,0.0,9e-08
1538770014580044576,9793,1538770014579570976,base_link,0.0,0.0,0.0,0.0,-1.0,0.0,0.0,0.0,0.0,0.0,0.0,0.0,0.0,0.084,-0.018,-0.022,1.21846967915e-07,0.0,0.0,0.0,1.21846967915e-07,0.0,0.0,0.0,1.21846967915e-07,-0.04903325,0.14709975,11.0226746,9e-08,0.0,0.0,0.0,9e-08,0.0,0.0,0.0,9e-08
1538770014638905984,9794,1538770014635964832,base_link,0.0,0.0,0.0,0.0,-1.0,0.0,0.0,0.0,0.0,0.0,0.0,0.0,0.0,0.119,-0.024,-0.011,1.21846967915e-07,0.0,0.0,0.0,1.21846967915e-07,0.0,0.0,0.0,1.21846967915e-07,-0.0980665,0.0980665,11.16977435,9e-08,0.0,0.0,0.0,9e-08,0.0,0.0,0.0,9e-08
1538770014735073440,9795,1538770014734568896,base_link,0.0,0.0,0.0,0.0,-1.0,0.0,0.0,0.0,0.0,0.0,0.0,0.0,0.0,0.174,0.003,0.052,1.21846967915e-07,0.0,0.0,0.0,1.21846967915e-07,0.0,0.0,0.0,1.21846967915e-07,-0.2157463,1.23579633263e-15,10.09104285,9e-08,0.0,0.0,0.0,9e-08,0.0,0.0,0.0,9e-08
1538770014863765376,9796,1538770014862673216,base_link,0.0,0.0,0.0,0.0,-1.0,0.0,0.0,0.0,0.0,0.0,0.0,0.0,0.0,0.184,-0.01,0.085,1.21846967915e-07,0.0,0.0,0.0,1.21846967915e-07,0.0,0.0,0.0,1.21846967915e-07,-0.3138128,0.2353596,9.2574776,9e-08,0.0,0.0,0.0,9e-08,0.0,0.0,0.0,9e-08
1538770014916276256,9797,1538770014915753056,base_link,0.0,0.0,0.0,0.0,-1.0,0.0,0.0,0.0,0.0,0.0,0.0,0.0,0.0,0.108,-0.039,0.078,1.21846967915e-07,0.0,0.0,0.0,1.21846967915e-07,0.0,0.0,0.0,1.21846967915e-07,-0.2157463,0.2745862,10.40485565,9e-08,0.0,0.0,0.0,9e-08,0.0,0.0,0.0,9e-08
1538770015036180832,9798,1538770015035436832,base_link,0.0,0.0,0.0,0.0,-1.0,0.0,0.0,0.0,0.0,0.0,0.0,0.0,0.0,-0.024,-0.033,0.042,1.21846967915e-07,0.0,0.0,0.0,1.21846967915e-07,0.0,0.0,0.0,1.21846967915e-07,-0.2353596,0.44129925,9.81645665,9e-08,0.0,0.0,0.0,9e-08,0.0,0.0,0.0,9e-08
1538770015132258688,9799,1538770015131873376,base_link,0.0,0.0,0.0,0.0,-1.0,0.0,0.0,0.0,0.0,0.0,0.0,0.0,0.0,-0.046,-0.043,0.009,1.21846967915e-07,0.0,0.0,0.0,1.21846967915e-07,0.0,0.0,0.0,1.21846967915e-07,-0.12748645,0.48052585,10.34601575,9e-08,0.0,0.0,0.0,9e-08,0.0,0.0,0.0,9e-08
1538770015225793792,9800,1538770015225316640,base_link,0.0,0.0,0.0,0.0,-1.0,0.0,0.0,0.0,0.0,0.0,0.0,0.0,0.0,-0.045,-0.029,-0.022,1.21846967915e-07,0.0,0.0,0.0,1.21846967915e-07,0.0,0.0,0.0,1.21846967915e-07,-0.12748645,0.6080123,10.5519554,9e-08,0.0,0.0,0.0,9e-08,0.0,0.0,0.0,9e-08
1538770015387416736,9801,1538770015386386592,base_link,0.0,0.0,0.0,0.0,-1.0,0.0,0.0,0.0,0.0,0.0,0.0,0.0,0.0,0.17,-0.041,-0.044,1.21846967915e-07,0.0,0.0,0.0,1.21846967915e-07,0.0,0.0,0.0,1.21846967915e-07,-0.10787315,0.06864655,11.66010685,9e-08,0.0,0.0,0.0,9e-08,0.0,0.0,0.0,9e-08
1538770015430835840,9802,1538770015430379200,base_link,0.0,0.0,0.0,0.0,-1.0,0.0,0.0,0.0,0.0,0.0,0.0,0.0,0.0,0.11,-0.02,-0.027,1.21846967915e-07,0.0,0.0,0.0,1.21846967915e-07,0.0,0.0,0.0,1.21846967915e-07,-0.1372931,0.22555295,11.34629405,9e-08,0.0,0.0,0.0,9e-08,0.0,0.0,0.0,9e-08
1538770015561651072,9803,1538770015561302240,base_link,0.0,0.0,0.0,0.0,-1.0,0.0,0.0,0.0,0.0,0.0,0.0,0.0,0.0,-0.002,-0.029,0.034,1.21846967915e-07,0.0,0.0,0.0,1.21846967915e-07,0.0,0.0,0.0,1.21846967915e-07,-0.1372931,0.50013915,10.591182,9e-08,0.0,0.0,0.0,9e-08,0.0,0.0,0.0,9e-08
1538770015641903872,9804,1538770015641159488,base_link,0.0,0.0,0.0,0.0,-1.0,0.0,0.0,0.0,0.0,0.0,0.0,0.0,0.0,-0.102,-0.028,0.008,1.21846967915e-07,0.0,0.0,0.0,1.21846967915e-07,0.0,0.0,0.0,1.21846967915e-07,-0.0392266,0.48052585,10.85596155,9e-08,0.0,0.0,0.0,9e-08,0.0,0.0,0.0,9e-08
1538770015751863232,9805,1538770015751336960,base_link,0.0,0.0,0.0,0.0,-1.0,0.0,0.0,0.0,0.0,0.0,0.0,0.0,0.0,-0.037,-0.008,-0.01,1.21846967915e-07,0.0,0.0,0.0,1.21846967915e-07,0.0,0.0,0.0,1.21846967915e-07,-0.1176798,0.4903325,9.81645665,9e-08,0.0,0.0,0.0,9e-08,0.0,0.0,0.0,9e-08
1538770015827343040,9806,1538770015826787360,base_link,0.0,0.0,0.0,0.0,-1.0,0.0,0.0,0.0,0.0,0.0,0.0,0.0,0.0,-0.036,0.011,-0.054,1.21846967915e-07,0.0,0.0,0.0,1.21846967915e-07,0.0,0.0,0.0,1.21846967915e-07,-0.14709975,0.57859235,8.73772515,9e-08,0.0,0.0,0.0,9e-08,0.0,0.0,0.0,9e-08
1538770015936242464,9807,1538770015935527808,base_link,0.0,0.0,0.0,0.0,-1.0,0.0,0.0,0.0,0.0,0.0,0.0,0.0,0.0,-0.003,-0.005,-0.084,1.21846967915e-07,0.0,0.0,0.0,1.21846967915e-07,0.0,0.0,0.0,1.21846967915e-07,-0.1372931,0.4314926,9.03192465,9e-08,0.0,0.0,0.0,9e-08,0.0,0.0,0.0,9e-08
1538770016036891904,9808,1538770016036256064,base_link,0.0,0.0,0.0,0.0,-1.0,0.0,0.0,0.0,0.0,0.0,0.0,0.0,0.0,-0.02,-0.029,-0.053,1.21846967915e-07,0.0,0.0,0.0,1.21846967915e-07,0.0,0.0,0.0,1.21846967915e-07,-0.06864655,0.3334261,10.2773692,9e-08,0.0,0.0,0.0,9e-08,0.0,0.0,0.0,9e-08
1538770016139429824,9809,1538770016138816352,base_link,0.0,0.0,0.0,0.0,-1.0,0.0,0.0,0.0,0.0,0.0,0.0,0.0,0.0,-0.088,-0.005,-0.027,1.21846967915e-07,0.0,0.0,0.0,1.21846967915e-07,0.0,0.0,0.0,1.21846967915e-07,-0.12748645,0.24516625,9.0613446,9e-08,0.0,0.0,0.0,9e-08,0.0,0.0,0.0,9e-08
1538770016238538304,9810,1538770016237867680,base_link,0.0,0.0,0.0,0.0,-1.0,0.0,0.0,0.0,0.0,0.0,0.0,0.0,0.0,-0.081,-0.043,0.007,1.21846967915e-07,0.0,0.0,0.0,1.21846967915e-07,0.0,0.0,0.0,1.21846967915e-07,-0.0392266,0.4118793,11.16977435,9e-08,0.0,0.0,0.0,9e-08,0.0,0.0,0.0,9e-08
1538770016405522752,9811,1538770016404746816,base_link,0.0,0.0,0.0,0.0,-1.0,0.0,0.0,0.0,0.0,0.0,0.0,0.0,0.0,-0.035,0.006,-0.017,1.21846967915e-07,0.0,0.0,0.0,1.21846967915e-07,0.0,0.0,0.0,1.21846967915e-07,-0.10787315,0.51975245,9.75761675,9e-08,0.0,0.0,0.0,9e-08,0.0,0.0,0.0,9e-08
1538770016438739456,9812,1538770016437518720,base_link,0.0,0.0,0.0,0.0,-1.0,0.0,0.0,0.0,0.0,0.0,0.0,0.0,0.0,-0.008,-0.004,-0.037,1.21846967915e-07,0.0,0.0,0.0,1.21846967915e-07,0.0,0.0,0.0,1.21846967915e-07,-0.06864655,0.40207265,9.67916355,9e-08,0.0,0.0,0.0,9e-08,0.0,0.0,0.0,9e-08
1538770016538292864,9813,1538770016537842560,base_link,0.0,0.0,0.0,0.0,-1.0,0.0,0.0,0.0,0.0,0.0,0.0,0.0,0.0,-0.038,-0.011,-0.056,1.21846967915e-07,0.0,0.0,0.0,1.21846967915e-07,0.0,0.0,0.0,1.21846967915e-07,-0.02941995,0.1372931,9.16921775,9e-08,0.0,0.0,0.0,9e-08,0.0,0.0,0.0,9e-08
1538770016642601408,9814,1538770016642002272,base_link,0.0,0.0,0.0,0.0,-1.0,0.0,0.0,0.0,0.0,0.0,0.0,0.0,0.0,0.003,-0.011,0.023,1.21846967915e-07,0.0,0.0,0.0,1.21846967915e-07,0.0,0.0,0.0,1.21846967915e-07,-0.06864655,0.2157463,9.91452315,9e-08,0.0,0.0,0.0,9e-08,0.0,0.0,0.0,9e-08
1538770016731248448,9815,1538770016729572896,base_link,0.0,0.0,0.0,0.0,-1.0,0.0,0.0,0.0,0.0,0.0,0.0,0.0,0.0,-0.055,-0.029,0.039,1.21846967915e-07,0.0,0.0,0.0,1.21846967915e-07,0.0,0.0,0.0,1.21846967915e-07,-0.0196133,0.24516625,9.7870367,9e-08,0.0,0.0,0.0,9e-08,0.0,0.0,0.0,9e-08
1538770016828530976,9816,1538770016827816608,base_link,0.0,0.0,0.0,0.0,-1.0,0.0,0.0,0.0,0.0,0.0,0.0,0.0,0.0,-0.047,-0.031,0.067,1.21846967915e-07,0.0,0.0,0.0,1.21846967915e-07,0.0,0.0,0.0,1.21846967915e-07,-0.04903325,0.28439285,10.26756255,9e-08,0.0,0.0,0.0,9e-08,0.0,0.0,0.0,9e-08
1538770016935456704,9817,1538770016935035712,base_link,0.0,0.0,0.0,0.0,-1.0,0.0,0.0,0.0,0.0,0.0,0.0,0.0,0.0,-0.007,-0.02,0.042,1.21846967915e-07,0.0,0.0,0.0,1.21846967915e-07,0.0,0.0,0.0,1.21846967915e-07,-0.0588399,0.2745862,9.93413645,9e-08,0.0,0.0,0.0,9e-08,0.0,0.0,0.0,9e-08
1538770017043112224,9818,1538770017041930240,base_link,0.0,0.0,0.0,0.0,-1.0,0.0,0.0,0.0,0.0,0.0,0.0,0.0,0.0,-0.06,-0.021,0.032,1.21846967915e-07,0.0,0.0,0.0,1.21846967915e-07,0.0,0.0,0.0,1.21846967915e-07,0.02941995,0.3726527,9.89490985,9e-08,0.0,0.0,0.0,9e-08,0.0,0.0,0.0,9e-08
1538770017124253152,9819,1538770017123601344,base_link,0.0,0.0,0.0,0.0,-1.0,0.0,0.0,0.0,0.0,0.0,0.0,0.0,0.0,-0.09,-0.024,0.051,1.21846967915e-07,0.0,0.0,0.0,1.21846967915e-07,0.0,0.0,0.0,1.21846967915e-07,0.0,0.4314926,10.62060195,9e-08,0.0,0.0,0.0,9e-08,0.0,0.0,0.0,9e-08
1538770017241048352,9820,1538770017239373984,base_link,0.0,0.0,0.0,0.0,-1.0,0.0,0.0,0.0,0.0,0.0,0.0,0.0,0.0,-0.173,-0.023,0.058,1.21846967915e-07,0.0,0.0,0.0,1.21846967915e-07,0.0,0.0,0.0,1.21846967915e-07,0.0196133,0.4903325,10.9049948,9e-08,0.0,0.0,0.0,9e-08,0.0,0.0,0.0,9e-08
1538770017320850528,9821,1538770017320198400,base_link,0.0,0.0,0.0,0.0,-1.0,0.0,0.0,0.0,0.0,0.0,0.0,0.0,0.0,-0.107,0.005,0.056,1.21846967915e-07,0.0,0.0,0.0,1.21846967915e-07,0.0,0.0,0.0,1.21846967915e-07,-0.0196133,0.32361945,10.50292215,9e-08,0.0,0.0,0.0,9e-08,0.0,0.0,0.0,9e-08
1538770017470456096,9822,1538770017469659168,base_link,0.0,0.0,0.0,0.0,-1.0,0.0,0.0,0.0,0.0,0.0,0.0,0.0,0.0,-0.14,0.007,0.052,1.21846967915e-07,0.0,0.0,0.0,1.21846967915e-07,0.0,0.0,0.0,1.21846967915e-07,0.0588399,0.36284605,10.77750835,9e-08,0.0,0.0,0.0,9e-08,0.0,0.0,0.0,9e-08
1538770017537154784,9823,1538770017536524704,base_link,0.0,0.0,0.0,0.0,-1.0,0.0,0.0,0.0,0.0,0.0,0.0,0.0,0.0,-0.081,0.022,0.049,1.21846967915e-07,0.0,0.0,0.0,1.21846967915e-07,0.0,0.0,0.0,1.21846967915e-07,0.0784532,0.38245935,10.6500219,9e-08,0.0,0.0,0.0,9e-08,0.0,0.0,0.0,9e-08
1538770017634710944,9824,1538770017633913408,base_link,0.0,0.0,0.0,0.0,-1.0,0.0,0.0,0.0,0.0,0.0,0.0,0.0,0.0,0.003,0.033,0.036,1.21846967915e-07,0.0,0.0,0.0,1.21846967915e-07,0.0,0.0,0.0,1.21846967915e-07,-0.0196133,0.4511059,9.48303055,9e-08,0.0,0.0,0.0,9e-08,0.0,0.0,0.0,9e-08
1538770017726031296,9825,1538770017725334624,base_link,0.0,0.0,0.0,0.0,-1.0,0.0,0.0,0.0,0.0,0.0,0.0,0.0,0.0,0.022,0.04,0.009,1.21846967915e-07,0.0,0.0,0.0,1.21846967915e-07,0.0,0.0,0.0,1.21846967915e-07,-0.0588399,0.5099458,9.1790244,9e-08,0.0,0.0,0.0,9e-08,0.0,0.0,0.0,9e-08
1538770017832812448,9826,1538770017832372352,base_link,0.0,0.0,0.0,0.0,-1.0,0.0,0.0,0.0,0.0,0.0,0.0,0.0,0.0,0.041,0.034,-0.035,1.21846967915e-07,0.0,0.0,0.0,1.21846967915e-07,0.0,0.0,0.0,1.21846967915e-07,-0.04903325,0.42168595,9.3555441,9e-08,0.0,0.0,0.0,9e-08,0.0,0.0,0.0,9e-08
