%time,field.header.seq,field.header.stamp,field.header.frame_id,field.orientation.x,field.orientation.y,field.orientation.z,field.orientation.w,field.orientation_covariance0,field.orientation_covariance1,field.orientation_covariance2,field.orientation_covariance3,field.orientation_covariance4,field.orientation_covariance5,field.orientation_covariance6,field.orientation_covariance7,field.orientation_covariance8,field.angular_velocity.x,field.angular_velocity.y,field.angular_velocity.z,field.angular_velocity_covariance0,field.angular_velocity_covariance1,field.angular_velocity_covariance2,field.angular_velocity_covariance3,field.angular_velocity_covariance4,field.angular_velocity_covariance5,field.angular_velocity_covariance6,field.angular_velocity_covariance7,field.angular_velocity_covariance8,field.linear_acceleration.x,field.linear_acceleration.y,field.linear_acceleration.z,field.linear_acceleration_covariance0,field.linear_acceleration_covariance1,field.linear_acceleration_covariance2,field.linear_acceleration_covariance3,field.linear_acceleration_covariance4,field.linear_acceleration_covariance5,field.linear_acceleration_covariance6,field.linear_acceleration_covariance7,field.linear_acceleration_covariance8
1538769975688628448,2704,1538769975688044224,base_link,0.139054739715,-0.0325601079502,0.260910395587,-0.95474048003,1.0,0.0,0.0,0.0,1.0,0.0,0.0,0.0,1.0,0.208903491497,-0.0428329072893,0.211037695408,1.21846967915e-07,0.0,0.0,0.0,1.21846967915e-07,0.0,0.0,0.0,1.21846967915e-07,-0.26477955,2.1182364,11.0619012,9e-08,0.0,0.0,0.0,9e-08,0.0,0.0,0.0,9e-08
1538769976066140608,2705,1538769976065723872,base_link,0.0722721120025,-0.00950545281514,0.265686297362,-0.96129973452,1.0,0.0,0.0,0.0,1.0,0.0,0.0,0.0,1.0,0.454539299011,-0.0468041822314,-0.209929659963,1.21846967915e-07,0.0,0.0,0.0,1.21846967915e-07,0.0,0.0,0.0,1.21846967915e-07,-1.61809725,1.08853815,8.40429905,9e-08,0.0,0.0,0.0,9e-08,0.0,0.0,0.0,9e-08
1538769976464992960,2706,1538769976464647648,base_link,0.0953084808908,-0.00156181197136,0.264509696583,-0.959660603874,1.0,0.0,0.0,0.0,1.0,0.0,0.0,0.0,1.0,-1.17335617542,-0.0788113176823,0.298958688974,1.21846967915e-07,0.0,0.0,0.0,1.21846967915e-07,0.0,0.0,0.0,1.21846967915e-07,-1.57887065,0.44129925,10.4342756,9e-08,0.0,0.0,0.0,9e-08,0.0,0.0,0.0,9e-08
1538769976847265472,2707,1538769976844452160,base_link,0.275446684068,-0.0387330076547,0.2219245082,-0.934547158261,1.0,0.0,0.0,0.0,1.0,0.0,0.0,0.0,1.0,-0.754648149014,-0.0756141617894,0.0507732927799,1.21846967915e-07,0.0,0.0,0.0,1.21846967915e-07,0.0,0.0,0.0,1.21846967915e-07,-1.0591182,1.16699135,12.7878716,9e-08,0.0,0.0,0.0,9e-08,0.0,0.0,0.0,9e-08
1538769977393365600,2708,1538769977392777888,base_link,0.333301986901,-0.0257554450898,0.192745290641,-0.922548478678,1.0,0.0,0.0,0.0,1.0,0.0,0.0,0.0,1.0,0.0208502728492,-0.123678401113,0.343125462532,1.21846967915e-07,0.0,0.0,0.0,1.21846967915e-07,0.0,0.0,0.0,1.21846967915e-07,-0.71588545,-0.63743225,10.8265416,9e-08,0.0,0.0,0.0,9e-08,0.0,0.0,0.0,9e-08
1538769977878754752,2709,1538769977878466432,base_link,0.342030815228,-0.0331233465449,0.1020618848,-0.933542252402,1.0,0.0,0.0,0.0,1.0,0.0,0.0,0.0,1.0,-0.0887029990554,-0.123960420489,0.246052101254,1.21846967915e-07,0.0,0.0,0.0,1.21846967915e-07,0.0,0.0,0.0,1.21846967915e-07,-0.77472535,0.38245935,11.2384209,9e-08,0.0,0.0,0.0,9e-08,0.0,0.0,0.0,9e-08
1538769978163025504,2710,1538769978162724576,base_link,0.351653221057,-0.0302307806545,0.066694864843,-0.933261971273,1.0,0.0,0.0,0.0,1.0,0.0,0.0,0.0,1.0,-0.0516172535717,-0.141959473491,0.260172843933,1.21846967915e-07,0.0,0.0,0.0,1.21846967915e-07,0.0,0.0,0.0,1.21846967915e-07,-0.9218251,-0.1176798,10.67944185,9e-08,0.0,0.0,0.0,9e-08,0.0,0.0,0.0,9e-08
1538769978545958528,2711,1538769978545730528,base_link,0.366642812348,-0.0223945739007,0.00224758942831,-0.93008950083,1.0,0.0,0.0,0.0,1.0,0.0,0.0,0.0,1.0,-0.0383582562208,-0.193555131555,0.284994900227,1.21846967915e-07,0.0,0.0,0.0,1.21846967915e-07,0.0,0.0,0.0,1.21846967915e-07,-0.85317855,-0.00980665,10.65982855,9e-08,0.0,0.0,0.0,9e-08,0.0,0.0,0.0,9e-08
1538769978857611168,2712,1538769978857255360,base_link,0.360193907083,-0.0131645224833,-0.0496916791396,-0.931460026878,1.0,0.0,0.0,0.0,1.0,0.0,0.0,0.0,1.0,-0.119772747159,-0.191883787513,0.25935319066,1.21846967915e-07,0.0,0.0,0.0,1.21846967915e-07,0.0,0.0,0.0,1.21846967915e-07,-0.81395195,0.18632635,11.18938765,9e-08,0.0,0.0,0.0,9e-08,0.0,0.0,0.0,9e-08
1538769979270935584,2713,1538769979270666304,base_link,0.356758447352,0.00619519188625,-0.117442829161,-0.926764377671,1.0,0.0,0.0,0.0,1.0,0.0,0.0,0.0,1.0,0.0581145510077,-0.228778287768,0.297296077013,1.21846967915e-07,0.0,0.0,0.0,1.21846967915e-07,0.0,0.0,0.0,1.21846967915e-07,-0.75511205,-0.06864655,10.77750835,9e-08,0.0,0.0,0.0,9e-08,0.0,0.0,0.0,9e-08
1538769979741772032,2714,1538769979741196352,base_link,0.361812718218,0.0350566109821,-0.21976975378,-0.905297656181,1.0,0.0,0.0,0.0,1.0,0.0,0.0,0.0,1.0,-0.198816239834,-0.343045026064,0.368571221828,1.21846967915e-07,0.0,0.0,0.0,1.21846967915e-07,0.0,0.0,0.0,1.21846967915e-07,-0.6276256,0.0392266,13.46453045,9e-08,0.0,0.0,0.0,9e-08,0.0,0.0,0.0,9e-08
1538769980114338752,2715,1538769980113338816,base_link,0.378407852332,0.0761308422485,-0.304864538165,-0.870671697898,1.0,0.0,0.0,0.0,1.0,0.0,0.0,0.0,1.0,-0.0443988032639,-0.353049695492,0.320816397667,1.21846967915e-07,0.0,0.0,0.0,1.21846967915e-07,0.0,0.0,0.0,1.21846967915e-07,-0.44129925,0.0980665,14.36674225,9e-08,0.0,0.0,0.0,9e-08,0.0,0.0,0.0,9e-08
1538769980458467808,2716,1538769980458236192,base_link,0.358348212938,0.107978872243,-0.374136282307,-0.848498181315,1.0,0.0,0.0,0.0,1.0,0.0,0.0,0.0,1.0,-0.0298405829817,-0.388777196407,0.326998442411,1.21846967915e-07,0.0,0.0,0.0,1.21846967915e-07,0.0,0.0,0.0,1.21846967915e-07,-0.2157463,0.06864655,15.5925735,9e-08,0.0,0.0,0.0,9e-08,0.0,0.0,0.0,9e-08
1538769980756459584,2717,1538769980755796672,base_link,0.345065364764,0.140232319054,-0.442204681961,-0.815916545968,1.0,0.0,0.0,0.0,1.0,0.0,0.0,0.0,1.0,0.0153472255915,-0.384832710028,0.374951303005,1.21846967915e-07,0.0,0.0,0.0,1.21846967915e-07,0.0,0.0,0.0,1.21846967915e-07,-0.2549729,0.2941995,15.68083335,9e-08,0.0,0.0,0.0,9e-08,0.0,0.0,0.0,9e-08
1538769981191001952,2718,1538769981190695552,base_link,0.316360271198,0.185644411453,-0.5248143066,-0.768129074369,1.0,0.0,0.0,0.0,1.0,0.0,0.0,0.0,1.0,-0.00475925952196,-0.397604376078,0.262102127075,1.21846967915e-07,0.0,0.0,0.0,1.21846967915e-07,0.0,0.0,0.0,1.21846967915e-07,-0.12748645,1.75941849106e-15,14.36674225,9e-08,0.0,0.0,0.0,9e-08,0.0,0.0,0.0,9e-08
1538769981727617792,2719,1538769981727055520,base_link,0.270497528227,0.230177919716,-0.621363045999,-0.698396146585,1.0,0.0,0.0,0.0,1.0,0.0,0.0,0.0,1.0,-0.0336165353656,-0.338017076254,0.428253799677,1.21846967915e-07,0.0,0.0,0.0,1.21846967915e-07,0.0,0.0,0.0,1.21846967915e-07,0.0392266,-0.3334261,15.6121868,9e-08,0.0,0.0,0.0,9e-08,0.0,0.0,0.0,9e-08
1538769982181820096,2720,1538769982180430656,base_link,0.25127748148,0.278292254956,-0.687627179183,-0.621757115425,1.0,0.0,0.0,0.0,1.0,0.0,0.0,0.0,1.0,0.0099811013788,-0.335822612047,0.239730507135,1.21846967915e-07,0.0,0.0,0.0,1.21846967915e-07,0.0,0.0,0.0,1.21846967915e-07,-0.08825985,-0.2157463,13.09187775,9e-08,0.0,0.0,0.0,9e-08,0.0,0.0,0.0,9e-08
1538769982457027296,2721,1538769982456333536,base_link,0.225396738713,0.295246401866,-0.728489952795,-0.575611206493,1.0,0.0,0.0,0.0,1.0,0.0,0.0,0.0,1.0,0.118594095111,-0.360010653734,0.374092578888,1.21846967915e-07,0.0,0.0,0.0,1.21846967915e-07,0.0,0.0,0.0,1.21846967915e-07,0.0980665,-0.6276256,16.17116585,9e-08,0.0,0.0,0.0,9e-08,0.0,0.0,0.0,9e-08
1538769982766016000,2722,1538769982765567168,base_link,0.200207321029,0.304816398062,-0.775387200947,-0.515537273809,1.0,0.0,0.0,0.0,1.0,0.0,0.0,0.0,1.0,0.0470230728388,-0.385650008917,0.406484305859,1.21846967915e-07,0.0,0.0,0.0,1.21846967915e-07,0.0,0.0,0.0,1.21846967915e-07,0.22555295,0.0196133,15.46508705,9e-08,0.0,0.0,0.0,9e-08,0.0,0.0,0.0,9e-08
1538769983192532224,2723,1538769983191753280,base_link,0.159478715376,0.321371046349,-0.83075899718,-0.425589800765,1.0,0.0,0.0,0.0,1.0,0.0,0.0,0.0,1.0,0.0841300711036,-0.308092206717,0.301400303841,1.21846967915e-07,0.0,0.0,0.0,1.21846967915e-07,0.0,0.0,0.0,1.21846967915e-07,0.1569064,-0.18632635,15.0041745,9e-08,0.0,0.0,0.0,9e-08,0.0,0.0,0.0,9e-08
1538769983640056544,2724,1538769983639551040,base_link,0.106519004576,0.289902129177,-0.883008003109,-0.353422302081,1.0,0.0,0.0,0.0,1.0,0.0,0.0,0.0,1.0,0.0891547575593,-0.256847888231,0.305339366198,1.21846967915e-07,0.0,0.0,0.0,1.21846967915e-07,0.0,0.0,0.0,1.21846967915e-07,-0.0196133,0.3334261,11.99353295,9e-08,0.0,0.0,0.0,9e-08,0.0,0.0,0.0,9e-08
1538769983950099552,2725,1538769983949846176,base_link,0.0789377957496,0.274351557135,-0.905936675336,-0.312695998984,1.0,0.0,0.0,0.0,1.0,0.0,0.0,0.0,1.0,0.290757030249,-0.216473475099,0.189952477813,1.21846967915e-07,0.0,0.0,0.0,1.21846967915e-07,0.0,0.0,0.0,1.21846967915e-07,-0.08825985,0.196133,12.60154525,9e-08,0.0,0.0,0.0,9e-08,0.0,0.0,0.0,9e-08
1538769984306630848,2726,1538769984306371840,base_link,0.0360446348065,0.204485944949,-0.938965858734,-0.274279781886,1.0,0.0,0.0,0.0,1.0,0.0,0.0,0.0,1.0,0.532760798931,-0.133292794228,0.223646685481,1.21846967915e-07,0.0,0.0,0.0,1.21846967915e-07,0.0,0.0,0.0,1.21846967915e-07,-0.16671305,0.2157463,12.1994726,9e-08,0.0,0.0,0.0,9e-08,0.0,0.0,0.0,9e-08
1538769984683321536,2727,1538769984683082560,base_link,0.00282333670967,0.113014604292,-0.965396588589,-0.23500883968,1.0,0.0,0.0,0.0,1.0,0.0,0.0,0.0,1.0,0.471970498562,-0.0487042143941,0.1633323282,1.21846967915e-07,0.0,0.0,0.0,1.21846967915e-07,0.0,0.0,0.0,1.21846967915e-07,-0.2353596,0.44129925,11.52281375,9e-08,0.0,0.0,0.0,9e-08,0.0,0.0,0.0,9e-08
1538769985101078464,2728,1538769985100868928,base_link,-0.0173661953881,0.0221583646172,-0.976750386239,-0.212523187244,1.0,0.0,0.0,0.0,1.0,0.0,0.0,0.0,1.0,0.354446947575,0.0125148491934,0.0585777126253,1.21846967915e-07,0.0,0.0,0.0,1.21846967915e-07,0.0,0.0,0.0,1.21846967915e-07,-0.22555295,0.4314926,11.0815145,9e-08,0.0,0.0,0.0,9e-08,0.0,0.0,0.0,9e-08
1538769985486088768,2729,1538769985485662976,base_link,-0.0275581629246,-0.0457058030776,-0.975410867137,-0.213834439444,1.0,0.0,0.0,0.0,1.0,0.0,0.0,0.0,1.0,0.266754537821,0.0238966476172,-0.0119543429464,1.21846967915e-07,0.0,0.0,0.0,1.21846967915e-07,0.0,0.0,0.0,1.21846967915e-07,-0.14709975,0.2745862,10.2969825,9e-08,0.0,0.0,0.0,9e-08,0.0,0.0,0.0,9e-08
1538769985820740640,2730,1538769985820371264,base_link,-0.026573050839,-0.0716207452996,-0.974161093563,-0.212542950015,1.0,0.0,0.0,0.0,1.0,0.0,0.0,0.0,1.0,0.0861380770802,0.049122158438,0.00143703853246,1.21846967915e-07,0.0,0.0,0.0,1.21846967915e-07,0.0,0.0,0.0,1.21846967915e-07,-0.1372931,0.50013915,10.77750835,9e-08,0.0,0.0,0.0,9e-08,0.0,0.0,0.0,9e-08
1538769986261089632,2731,1538769986260683232,base_link,-0.015824911262,-0.0811096542375,-0.972924568524,-0.215843879079,1.0,0.0,0.0,0.0,1.0,0.0,0.0,0.0,1.0,0.0202694553882,0.0609264522791,-0.0905322805047,1.21846967915e-07,0.0,0.0,0.0,1.21846967915e-07,0.0,0.0,0.0,1.21846967915e-07,-0.12748645,0.6668522,9.2770909,9e-08,0.0,0.0,0.0,9e-08,0.0,0.0,0.0,9e-08
1538769986594454464,2732,1538769986594195168,base_link,-0.00607113846561,-0.0954053252725,-0.968605150313,-0.229488622758,1.0,0.0,0.0,0.0,1.0,0.0,0.0,0.0,1.0,0.0255062896758,0.0652469396591,-0.0551410727203,1.21846967915e-07,0.0,0.0,0.0,1.21846967915e-07,0.0,0.0,0.0,1.21846967915e-07,-0.2745862,0.3334261,8.85540495,9e-08,0.0,0.0,0.0,9e-08,0.0,0.0,0.0,9e-08
1538769986903279744,2733,1538769986903036000,base_link,0.00312396228851,-0.0965457545597,-0.967918307248,-0.231955402244,1.0,0.0,0.0,0.0,1.0,0.0,0.0,0.0,1.0,-0.0609924606979,0.0361164063215,-0.0261534936726,1.21846967915e-07,0.0,0.0,0.0,1.21846967915e-07,0.0,0.0,0.0,1.21846967915e-07,-0.18632635,0.5295591,9.0025047,9e-08,0.0,0.0,0.0,9e-08,0.0,0.0,0.0,9e-08
1538769987288660800,2734,1538769987288393856,base_link,0.0139994316887,-0.088686465117,-0.964384204581,-0.248800789332,1.0,0.0,0.0,0.0,1.0,0.0,0.0,0.0,1.0,0.081484362483,0.0122204720974,-0.113619580865,1.21846967915e-07,0.0,0.0,0.0,1.21846967915e-07,0.0,0.0,0.0,1.21846967915e-07,-0.24516625,0.63743225,9.5516771,9e-08,0.0,0.0,0.0,9e-08,0.0,0.0,0.0,9e-08
1538769987629025952,2735,1538769987628743168,base_link,0.00838571105161,-0.115699739451,-0.956196060348,-0.268760756651,1.0,0.0,0.0,0.0,1.0,0.0,0.0,0.0,1.0,0.101489171386,-0.0161295719445,-0.139379054308,1.21846967915e-07,0.0,0.0,0.0,1.21846967915e-07,0.0,0.0,0.0,1.21846967915e-07,-0.28439285,0.42168595,9.5909037,9e-08,0.0,0.0,0.0,9e-08,0.0,0.0,0.0,9e-08
1538769988097448128,2736,1538769988097143456,base_link,-0.0115140227301,-0.169091851764,-0.94315306542,-0.285898003031,1.0,0.0,0.0,0.0,1.0,0.0,0.0,0.0,1.0,0.344687968493,-0.0293789412826,-0.0786137729883,1.21846967915e-07,0.0,0.0,0.0,1.21846967915e-07,0.0,0.0,0.0,1.21846967915e-07,-0.3334261,0.85317855,8.7671451,9e-08,0.0,0.0,0.0,9e-08,0.0,0.0,0.0,9e-08
1538769988471199456,2737,1538769988470905696,base_link,-0.0216580225769,-0.196113562913,-0.924592606993,-0.3258817448,1.0,0.0,0.0,0.0,1.0,0.0,0.0,0.0,1.0,0.301989495754,-0.0737365037203,-0.266138911247,1.21846967915e-07,0.0,0.0,0.0,1.21846967915e-07,0.0,0.0,0.0,1.21846967915e-07,-0.3334261,0.65704555,11.34629405,9e-08,0.0,0.0,0.0,9e-08,0.0,0.0,0.0,9e-08
1538769988867372992,2738,1538769988866684512,base_link,-0.0620523042409,-0.272374794368,-0.88850030511,-0.364044902107,1.0,0.0,0.0,0.0,1.0,0.0,0.0,0.0,1.0,0.379537701607,-0.150372475386,-0.0958423987031,1.21846967915e-07,0.0,0.0,0.0,1.21846967915e-07,0.0,0.0,0.0,1.21846967915e-07,-0.34323275,0.2745862,10.01258965,9e-08,0.0,0.0,0.0,9e-08,0.0,0.0,0.0,9e-08
1538769989269633120,2739,1538769989269407328,base_link,-0.10109430347,-0.29206626776,-0.86232510738,-0.401089324497,1.0,0.0,0.0,0.0,1.0,0.0,0.0,0.0,1.0,-0.0089642489329,-0.179963827133,-0.231312379241,1.21846967915e-07,0.0,0.0,0.0,1.21846967915e-07,0.0,0.0,0.0,1.21846967915e-07,-0.06864655,1.12776475,10.6892485,9e-08,0.0,0.0,0.0,9e-08,0.0,0.0,0.0,9e-08
1538769989736618048,2740,1538769989736365280,base_link,-0.132162262187,-0.291681980501,-0.823848149338,-0.467684707401,1.0,0.0,0.0,0.0,1.0,0.0,0.0,0.0,1.0,0.123224325478,-0.2351539433,-0.249777957797,1.21846967915e-07,0.0,0.0,0.0,1.21846967915e-07,0.0,0.0,0.0,1.21846967915e-07,0.0784532,0.61781895,13.0820711,9e-08,0.0,0.0,0.0,9e-08,0.0,0.0,0.0,9e-08
1538769990160323392,2741,1538769990159924288,base_link,-0.169293431557,-0.307125565465,-0.772328934278,-0.529642934765,1.0,0.0,0.0,0.0,1.0,0.0,0.0,0.0,1.0,-0.00705196429044,-0.223375350237,-0.310671776533,1.21846967915e-07,0.0,0.0,0.0,1.21846967915e-07,0.0,0.0,0.0,1.21846967915e-07,0.02941995,0.6668522,10.5323421,9e-08,0.0,0.0,0.0,9e-08,0.0,0.0,0.0,9e-08
1538769990480514624,2742,1538769990480166304,base_link,-0.194357404963,-0.296343781401,-0.737213116953,-0.575258535403,1.0,0.0,0.0,0.0,1.0,0.0,0.0,0.0,1.0,0.0974922552705,-0.265871167183,-0.215044125915,1.21846967915e-07,0.0,0.0,0.0,1.21846967915e-07,0.0,0.0,0.0,1.21846967915e-07,0.18632635,0.75511205,12.13082605,9e-08,0.0,0.0,0.0,9e-08,0.0,0.0,0.0,9e-08
1538769990819795904,2743,1538769990819228544,base_link,-0.22401109029,-0.284258472993,-0.695260713207,-0.620990090605,1.0,0.0,0.0,0.0,1.0,0.0,0.0,0.0,1.0,-0.0398965701461,-0.262861281633,-0.34009039402,1.21846967915e-07,0.0,0.0,0.0,1.21846967915e-07,0.0,0.0,0.0,1.21846967915e-07,0.26477955,1.28467115,11.964113,9e-08,0.0,0.0,0.0,9e-08,0.0,0.0,0.0,9e-08
1538769991216953056,2744,1538769991216531680,base_link,-0.245573660003,-0.265253414117,-0.624348652526,-0.692475966299,1.0,0.0,0.0,0.0,1.0,0.0,0.0,0.0,1.0,0.0815612897277,-0.327957391739,-0.382835865021,1.21846967915e-07,0.0,0.0,0.0,1.21846967915e-07,0.0,0.0,0.0,1.21846967915e-07,0.4707192,0.81395195,13.4743371,9e-08,0.0,0.0,0.0,9e-08,0.0,0.0,0.0,9e-08
1538769991752627680,2745,1538769991752365152,base_link,-0.283958189376,-0.223796552271,-0.529549815051,-0.767372037057,1.0,0.0,0.0,0.0,1.0,0.0,0.0,0.0,1.0,0.117552950978,-0.366723954678,-0.364823043346,1.21846967915e-07,0.0,0.0,0.0,1.21846967915e-07,0.0,0.0,0.0,1.21846967915e-07,0.59820565,0.75511205,14.8276548,9e-08,0.0,0.0,0.0,9e-08,0.0,0.0,0.0,9e-08
1538769992158177440,2746,1538769992157789088,base_link,-0.336454079398,-0.19032547615,-0.442181928697,-0.80935159697,1.0,0.0,0.0,0.0,1.0,0.0,0.0,0.0,1.0,-0.0837147608399,-0.401051282883,-0.287241965532,1.21846967915e-07,0.0,0.0,0.0,1.21846967915e-07,0.0,0.0,0.0,1.21846967915e-07,0.7256921,0.69627215,14.56287525,9e-08,0.0,0.0,0.0,9e-08,0.0,0.0,0.0,9e-08
1538769992497043744,2747,1538769992496488192,base_link,-0.349361210259,-0.144716820335,-0.374459840528,-0.846630742715,1.0,0.0,0.0,0.0,1.0,0.0,0.0,0.0,1.0,-0.11637660116,-0.3421831429,-0.304853796959,1.21846967915e-07,0.0,0.0,0.0,1.21846967915e-07,0.0,0.0,0.0,1.21846967915e-07,0.93163175,1.569064,16.1025193,9e-08,0.0,0.0,0.0,9e-08,0.0,0.0,0.0,9e-08
1538769992917482976,2748,1538769992914933024,base_link,-0.36077816176,-0.123715129942,-0.270970014033,-0.883803675097,1.0,0.0,0.0,0.0,1.0,0.0,0.0,0.0,1.0,-0.00717080105096,-0.320260465145,-0.482354909182,1.21846967915e-07,0.0,0.0,0.0,1.21846967915e-07,0.0,0.0,0.0,1.21846967915e-07,0.34323275,0.8629852,11.66010685,9e-08,0.0,0.0,0.0,9e-08,0.0,0.0,0.0,9e-08
1538769993236305952,2749,1538769993235847296,base_link,-0.353128239083,-0.0889719042583,-0.185007821074,-0.912774097549,1.0,0.0,0.0,0.0,1.0,0.0,0.0,0.0,1.0,0.0166174918413,-0.408957153559,-0.342949062586,1.21846967915e-07,0.0,0.0,0.0,1.21846967915e-07,0.0,0.0,0.0,1.21846967915e-07,0.48052585,0.40207265,14.4746154,9e-08,0.0,0.0,0.0,9e-08,0.0,0.0,0.0,9e-08
1538769993778569792,2750,1538769993778067488,base_link,-0.355138751912,-0.00736275183335,-0.0884597507208,-0.930589667511,1.0,0.0,0.0,0.0,1.0,0.0,0.0,0.0,1.0,-0.110174402595,-0.261253923178,-0.332562297583,1.21846967915e-07,0.0,0.0,0.0,1.21846967915e-07,0.0,0.0,0.0,1.21846967915e-07,0.38245935,1.32389775,13.9058297,9e-08,0.0,0.0,0.0,9e-08,0.0,0.0,0.0,9e-08
1538769994286467808,2751,1538769994284346944,base_link,-0.39366419494,0.0163851308229,0.0240656792313,-0.918793160724,1.0,0.0,0.0,0.0,1.0,0.0,0.0,0.0,1.0,-0.028883587569,-0.255171567202,-0.323996782303,1.21846967915e-07,0.0,0.0,0.0,1.21846967915e-07,0.0,0.0,0.0,1.21846967915e-07,0.2941995,0.63743225,12.0817928,9e-08,0.0,0.0,0.0,9e-08,0.0,0.0,0.0,9e-08
1538769994760635872,2752,1538769994759583744,base_link,-0.383847897527,0.038483875043,0.12998990575,-0.913390610488,1.0,0.0,0.0,0.0,1.0,0.0,0.0,0.0,1.0,-0.172413766384,-0.27896553278,-0.428303718567,1.21846967915e-07,0.0,0.0,0.0,1.21846967915e-07,0.0,0.0,0.0,1.21846967915e-07,0.08825985,0.95124505,10.983448,9e-08,0.0,0.0,0.0,9e-08,0.0,0.0,0.0,9e-08
1538769995082481920,2753,1538769995081532352,base_link,-0.354124611031,0.0514910530271,0.209235462499,-0.910035687516,1.0,0.0,0.0,0.0,1.0,0.0,0.0,0.0,1.0,-0.0587476082146,-0.313634485006,-0.391949653625,1.21846967915e-07,0.0,0.0,0.0,1.21846967915e-07,0.0,0.0,0.0,1.21846967915e-07,0.08825985,0.53936575,11.7875933,9e-08,0.0,0.0,0.0,9e-08,0.0,0.0,0.0,9e-08
1538769995474384160,2754,1538769995471825120,base_link,-0.349761979694,0.092962372174,0.293581755958,-0.884779242234,1.0,0.0,0.0,0.0,1.0,0.0,0.0,0.0,1.0,0.0775514245033,-0.379743725061,-0.273438662291,1.21846967915e-07,0.0,0.0,0.0,1.21846967915e-07,0.0,0.0,0.0,1.21846967915e-07,0.1765197,0.588399,13.62143685,9e-08,0.0,0.0,0.0,9e-08,0.0,0.0,0.0,9e-08
1538769995985351808,2755,1538769995984973536,base_link,-0.314120355539,0.14027944371,0.379690544415,-0.85876956769,1.0,0.0,0.0,0.0,1.0,0.0,0.0,0.0,1.0,-0.244272112846,-0.316144585609,-0.327755302191,1.21846967915e-07,0.0,0.0,0.0,1.21846967915e-07,0.0,0.0,0.0,1.21846967915e-07,0.5099458,1.176798,14.6707484,9e-08,0.0,0.0,0.0,9e-08,0.0,0.0,0.0,9e-08
1538769996352886400,2756,1538769996352580768,base_link,-0.255901522248,0.146874500367,0.448762983456,-0.843536648127,1.0,0.0,0.0,0.0,1.0,0.0,0.0,0.0,1.0,-0.378920644522,-0.246007353067,-0.312512218952,1.21846967915e-07,0.0,0.0,0.0,1.21846967915e-07,0.0,0.0,0.0,1.21846967915e-07,0.1176798,0.71588545,11.89546645,9e-08,0.0,0.0,0.0,9e-08,0.0,0.0,0.0,9e-08
1538769996604865056,2757,1538769996604372192,base_link,-0.225552990931,0.153099922256,0.48621608493,-0.830228993015,1.0,0.0,0.0,0.0,1.0,0.0,0.0,0.0,1.0,-0.429621934891,-0.235002577305,-0.196624517441,1.21846967915e-07,0.0,0.0,0.0,1.21846967915e-07,0.0,0.0,0.0,1.21846967915e-07,0.0980665,0.63743225,13.40569055,9e-08,0.0,0.0,0.0,9e-08,0.0,0.0,0.0,9e-08
1538769996918809024,2758,1538769996918403488,base_link,-0.138125500675,0.128407637454,0.532271720846,-0.825299727308,1.0,0.0,0.0,0.0,1.0,0.0,0.0,0.0,1.0,-0.564201056957,-0.140366405249,-0.197246775031,1.21846967915e-07,0.0,0.0,0.0,1.21846967915e-07,0.0,0.0,0.0,1.21846967915e-07,0.10787315,0.5099458,14.3961622,9e-08,0.0,0.0,0.0,9e-08,0.0,0.0,0.0,9e-08
1538769997266261312,2759,1538769997265296416,base_link,-0.0639462902375,0.0947749842683,0.562658191555,-0.818745585513,1.0,0.0,0.0,0.0,1.0,0.0,0.0,0.0,1.0,-0.562694251537,-0.0910571962595,-0.0593094192445,1.21846967915e-07,0.0,0.0,0.0,1.21846967915e-07,0.0,0.0,0.0,1.21846967915e-07,-0.18632635,0.1569064,11.4345539,9e-08,0.0,0.0,0.0,9e-08,0.0,0.0,0.0,9e-08
1538769997698758272,2760,1538769997698548992,base_link,-0.0916332076148,0.117980615591,0.571260682502,-0.807059577872,1.0,0.0,0.0,0.0,1.0,0.0,0.0,0.0,1.0,0.607968330383,-0.000213240040466,-0.161877796054,1.21846967915e-07,0.0,0.0,0.0,1.21846967915e-07,0.0,0.0,0.0,1.21846967915e-07,-0.1176798,0.57859235,10.3165958,9e-08,0.0,0.0,0.0,9e-08,0.0,0.0,0.0,9e-08
1538769998091948768,2761,1538769998091721728,base_link,-0.179318926553,0.17421452633,0.577708812414,-0.777011293003,1.0,0.0,0.0,0.0,1.0,0.0,0.0,0.0,1.0,0.339377909899,-0.00419198162854,-0.109543502331,1.21846967915e-07,0.0,0.0,0.0,1.21846967915e-07,0.0,0.0,0.0,1.21846967915e-07,-0.1372931,0.5687857,9.91452315,9e-08,0.0,0.0,0.0,9e-08,0.0,0.0,0.0,9e-08
1538769998359267744,2762,1538769998358216928,base_link,-0.19569820682,0.18534766775,0.586801853066,-0.763552250436,1.0,0.0,0.0,0.0,1.0,0.0,0.0,0.0,1.0,0.0414699204266,-0.0299574509263,-0.184287548065,1.21846967915e-07,0.0,0.0,0.0,1.21846967915e-07,0.0,0.0,0.0,1.21846967915e-07,-0.06864655,0.7649187,8.97308475,9e-08,0.0,0.0,0.0,9e-08,0.0,0.0,0.0,9e-08
1538769998697731616,2763,1538769998697538560,base_link,-0.220826662313,0.190534800339,0.620717983635,-0.727764563484,1.0,0.0,0.0,0.0,1.0,0.0,0.0,0.0,1.0,0.176452055573,-0.0340281501412,-0.398487657309,1.21846967915e-07,0.0,0.0,0.0,1.21846967915e-07,0.0,0.0,0.0,1.21846967915e-07,-0.04903325,1.04931155,9.218251,9e-08,0.0,0.0,0.0,9e-08,0.0,0.0,0.0,9e-08
1538769999096513312,2764,1538769999091714208,base_link,-0.256069546744,0.216255986244,0.672504174515,-0.65984836963,1.0,0.0,0.0,0.0,1.0,0.0,0.0,0.0,1.0,0.325925916433,-0.141884982586,-0.396427899599,1.21846967915e-07,0.0,0.0,0.0,1.21846967915e-07,0.0,0.0,0.0,1.21846967915e-07,-0.0980665,0.5491724,8.3552658,9e-08,0.0,0.0,0.0,9e-08,0.0,0.0,0.0,9e-08
1538769999557678656,2765,1538769999557217728,base_link,0.263086857184,-0.287856900109,-0.712157118363,0.583743050837,1.0,0.0,0.0,0.0,1.0,0.0,0.0,0.0,1.0,0.120865322649,-0.375750869513,-0.0780045464635,1.21846967915e-07,0.0,0.0,0.0,1.21846967915e-07,0.0,0.0,0.0,1.21846967915e-07,0.2549729,0.5295591,12.7290317,9e-08,0.0,0.0,0.0,9e-08,0.0,0.0,0.0,9e-08
1538769999941452768,2766,1538769999941153760,base_link,0.220941013593,-0.31382315342,-0.747460874057,0.54221982502,1.0,0.0,0.0,0.0,1.0,0.0,0.0,0.0,1.0,-0.223987773061,-0.290022790432,-0.319391697645,1.21846967915e-07,0.0,0.0,0.0,1.21846967915e-07,0.0,0.0,0.0,1.21846967915e-07,0.5295591,1.85345685,12.6701918,9e-08,0.0,0.0,0.0,9e-08,0.0,0.0,0.0,9e-08
1538770000426016864,2767,1538770000425711424,base_link,0.218737733342,-0.350563922934,-0.81633332746,0.403557478469,1.0,0.0,0.0,0.0,1.0,0.0,0.0,0.0,1.0,0.146288886666,-0.495509028435,-0.406616359949,1.21846967915e-07,0.0,0.0,0.0,1.21846967915e-07,0.0,0.0,0.0,1.21846967915e-07,0.91201845,0.3138128,13.5135637,9e-08,0.0,0.0,0.0,9e-08,0.0,0.0,0.0,9e-08
1538770000643143616,2768,1538770000642897152,base_link,0.177741389755,-0.358831541598,-0.84488047454,0.35471806673,1.0,0.0,0.0,0.0,1.0,0.0,0.0,0.0,1.0,-0.203346326947,-0.567237257957,-0.264496475458,1.21846967915e-07,0.0,0.0,0.0,1.21846967915e-07,0.0,0.0,0.0,1.21846967915e-07,1.4709975,1.0198916,18.7503148,9e-08,0.0,0.0,0.0,9e-08,0.0,0.0,0.0,9e-08
1538770000919021312,2769,1538770000918710528,base_link,0.12236410139,-0.373978331566,-0.868143868116,0.302478856223,1.0,0.0,0.0,0.0,1.0,0.0,0.0,0.0,1.0,-0.20170353353,-0.471391767263,-0.141611650586,1.21846967915e-07,0.0,0.0,0.0,1.21846967915e-07,0.0,0.0,0.0,1.21846967915e-07,2.2359162,0.6080123,20.2409256,9e-08,0.0,0.0,0.0,9e-08,0.0,0.0,0.0,9e-08
1538770001310717056,2770,1538770001310252640,base_link,0.0533156522862,-0.401230553442,-0.880636015763,0.246275642213,1.0,0.0,0.0,0.0,1.0,0.0,0.0,0.0,1.0,-0.226538404822,-0.411742627621,-0.176678881049,1.21846967915e-07,0.0,0.0,0.0,1.21846967915e-07,0.0,0.0,0.0,1.21846967915e-07,1.85345685,1.44157755,17.259704,9e-08,0.0,0.0,0.0,9e-08,0.0,0.0,0.0,9e-08
1538770001658397056,2771,1538770001657724512,base_link,0.0158767344192,-0.382722771197,-0.906896239728,0.175528972191,1.0,0.0,0.0,0.0,1.0,0.0,0.0,0.0,1.0,-0.147197604179,-0.319779872894,-0.408952176571,1.21846967915e-07,0.0,0.0,0.0,1.21846967915e-07,0.0,0.0,0.0,1.21846967915e-07,1.2748645,1.16699135,14.85707475,9e-08,0.0,0.0,0.0,9e-08,0.0,0.0,0.0,9e-08
1538770001952427072,2772,1538770001951663264,base_link,-0.00963680766985,-0.382036077985,-0.919030258915,0.0966382442599,1.0,0.0,0.0,0.0,1.0,0.0,0.0,0.0,1.0,-0.00823291670531,-0.345530182123,-0.353640168905,1.21846967915e-07,0.0,0.0,0.0,1.21846967915e-07,0.0,0.0,0.0,1.21846967915e-07,0.9610517,0.5687857,13.99408955,9e-08,0.0,0.0,0.0,9e-08,0.0,0.0,0.0,9e-08
1538770002275747200,2773,1538770002273728288,base_link,-0.0428198441603,-0.378601595381,-0.924109861324,0.029124854061,1.0,0.0,0.0,0.0,1.0,0.0,0.0,0.0,1.0,-0.0827046856284,-0.328278720379,-0.263775616884,1.21846967915e-07,0.0,0.0,0.0,1.21846967915e-07,0.0,0.0,0.0,1.21846967915e-07,0.9414384,0.5491724,14.2588691,9e-08,0.0,0.0,0.0,9e-08,0.0,0.0,0.0,9e-08
1538770002661505280,2774,1538770002661139776,base_link,-0.0757174779615,-0.350860665389,-0.932658973707,-0.0362062947127,1.0,0.0,0.0,0.0,1.0,0.0,0.0,0.0,1.0,-0.298950999975,-0.215399757028,-0.239502698183,1.21846967915e-07,0.0,0.0,0.0,1.21846967915e-07,0.0,0.0,0.0,1.21846967915e-07,0.59820565,1.14737805,12.56231865,9e-08,0.0,0.0,0.0,9e-08,0.0,0.0,0.0,9e-08
1538770003105988224,2775,1538770003105736992,base_link,-0.0732547448807,-0.287715331832,-0.945915472039,-0.130757599928,1.0,0.0,0.0,0.0,1.0,0.0,0.0,0.0,1.0,-0.419596642256,-0.14501234889,-0.376922398806,1.21846967915e-07,0.0,0.0,0.0,1.21846967915e-07,0.0,0.0,0.0,1.21846967915e-07,0.0392266,0.5491724,9.52225715,9e-08,0.0,0.0,0.0,9e-08,0.0,0.0,0.0,9e-08
1538770003553678688,2776,1538770003553401376,base_link,-0.0738438609099,-0.208986966682,-0.954646742683,-0.19879921692,1.0,0.0,0.0,0.0,1.0,0.0,0.0,0.0,1.0,-0.452786177397,-0.0931516811252,-0.126742452383,1.21846967915e-07,0.0,0.0,0.0,1.21846967915e-07,0.0,0.0,0.0,1.21846967915e-07,-0.10787315,0.6472389,11.38552065,9e-08,0.0,0.0,0.0,9e-08,0.0,0.0,0.0,9e-08
1538770003857623232,2777,1538770003857326720,base_link,-0.0571331951154,-0.12306249392,-0.96468514622,-0.22577419974,1.0,0.0,0.0,0.0,1.0,0.0,0.0,0.0,1.0,-0.57520455122,0.0212458781898,-0.132912307978,1.21846967915e-07,0.0,0.0,0.0,1.21846967915e-07,0.0,0.0,0.0,1.21846967915e-07,-0.10787315,0.85317855,10.30678915,9e-08,0.0,0.0,0.0,9e-08,0.0,0.0,0.0,9e-08
1538770004202288768,2778,1538770004200575648,base_link,-0.0202920706351,-0.0391667899109,-0.964032563645,-0.2620980936,1.0,0.0,0.0,0.0,1.0,0.0,0.0,0.0,1.0,-0.616081535816,0.0829508900642,-0.214982643723,1.21846967915e-07,0.0,0.0,0.0,1.21846967915e-07,0.0,0.0,0.0,1.21846967915e-07,-0.3138128,0.46091255,8.8848249,9e-08,0.0,0.0,0.0,9e-08,0.0,0.0,0.0,9e-08
1538770004538541696,2779,1538770004538297600,base_link,0.0248140652397,0.0746817549624,-0.959005846646,-0.272240121476,1.0,0.0,0.0,0.0,1.0,0.0,0.0,0.0,1.0,-0.741185426712,0.052601326257,0.0487968288362,1.21846967915e-07,0.0,0.0,0.0,1.21846967915e-07,0.0,0.0,0.0,1.21846967915e-07,-0.32361945,0.24516625,9.18883105,9e-08,0.0,0.0,0.0,9e-08,0.0,0.0,0.0,9e-08
1538770004810720640,2780,1538770004810365856,base_link,0.0546475476801,0.151923522706,-0.952908374289,-0.256707068449,1.0,0.0,0.0,0.0,1.0,0.0,0.0,0.0,1.0,-0.727469801903,0.0415389724076,0.157209306955,1.21846967915e-07,0.0,0.0,0.0,1.21846967915e-07,0.0,0.0,0.0,1.21846967915e-07,-0.44129925,0.12748645,7.63938035,9e-08,0.0,0.0,0.0,9e-08,0.0,0.0,0.0,9e-08
1538770005108667360,2781,1538770005106841056,base_link,0.0854859356852,0.235480779566,-0.941906402496,-0.223725917571,1.0,0.0,0.0,0.0,1.0,0.0,0.0,0.0,1.0,-0.392524510622,8.64893663675e-05,0.222461223602,1.21846967915e-07,0.0,0.0,0.0,1.21846967915e-07,0.0,0.0,0.0,1.21846967915e-07,-0.63743225,-0.1765197,8.01203305,9e-08,0.0,0.0,0.0,9e-08,0.0,0.0,0.0,9e-08
1538770005588845632,2782,1538770005588454080,base_link,0.0977374606915,0.305481419304,-0.936975138931,-0.138586003129,1.0,0.0,0.0,0.0,1.0,0.0,0.0,0.0,1.0,-0.308033317327,-0.154531642795,0.365945488214,1.21846967915e-07,0.0,0.0,0.0,1.21846967915e-07,0.0,0.0,0.0,1.21846967915e-07,-0.40207265,0.06864655,9.22805765,9e-08,0.0,0.0,0.0,9e-08,0.0,0.0,0.0,9e-08
1538770005945558400,2783,1538770005945314816,base_link,0.0843553161765,0.343233270561,-0.933230038388,-0.0644732352505,1.0,0.0,0.0,0.0,1.0,0.0,0.0,0.0,1.0,-0.158552393317,-0.268310457468,0.372314780951,1.21846967915e-07,0.0,0.0,0.0,1.21846967915e-07,0.0,0.0,0.0,1.21846967915e-07,-0.3530394,1.39912801508e-15,11.42474725,9e-08,0.0,0.0,0.0,9e-08,0.0,0.0,0.0,9e-08
1538770006360194912,2784,1538770006359816128,base_link,0.0449278393115,0.367282894737,-0.928230042088,0.0383894966531,1.0,0.0,0.0,0.0,1.0,0.0,0.0,0.0,1.0,-0.144930317998,-0.389147669077,0.396477460861,1.21846967915e-07,0.0,0.0,0.0,1.21846967915e-07,0.0,0.0,0.0,1.21846967915e-07,0.12748645,-0.0784532,14.5726819,9e-08,0.0,0.0,0.0,9e-08,0.0,0.0,0.0,9e-08
1538770006738971552,2785,1538770006738644224,base_link,1.35237502223e-05,0.384414173504,-0.912778300218,0.138063455259,1.0,0.0,0.0,0.0,1.0,0.0,0.0,0.0,1.0,-0.0662134438753,-0.420669049025,0.341134607792,1.21846967915e-07,0.0,0.0,0.0,1.21846967915e-07,0.0,0.0,0.0,1.21846967915e-07,0.3726527,0.4314926,15.1806942,9e-08,0.0,0.0,0.0,9e-08,0.0,0.0,0.0,9e-08
1538770007265892448,2786,1538770007265685728,base_link,-0.0661214748976,0.339099174219,-0.893752286178,0.286088363189,1.0,0.0,0.0,0.0,1.0,0.0,0.0,0.0,1.0,0.291441470385,-0.423131078482,0.453098893166,1.21846967915e-07,0.0,0.0,0.0,1.21846967915e-07,0.0,0.0,0.0,1.21846967915e-07,0.5295591,0.1176798,15.8279331,9e-08,0.0,0.0,0.0,9e-08,0.0,0.0,0.0,9e-08
1538770007670500864,2787,1538770007670190112,base_link,-0.0833738563613,0.247368265462,-0.884626021484,0.386386520767,1.0,0.0,0.0,0.0,1.0,0.0,0.0,0.0,1.0,0.614752709866,-0.30241099,0.286961585283,1.21846967915e-07,0.0,0.0,0.0,1.21846967915e-07,0.0,0.0,0.0,1.21846967915e-07,0.3138128,0.588399,14.9257213,9e-08,0.0,0.0,0.0,9e-08,0.0,0.0,0.0,9e-08
1538770008010345088,2788,1538770008009889408,base_link,-0.0630483218256,0.132179742319,-0.886856275406,0.438222970198,1.0,0.0,0.0,0.0,1.0,0.0,0.0,0.0,1.0,0.785960137844,-0.149938091636,0.197582304478,1.21846967915e-07,0.0,0.0,0.0,1.21846967915e-07,0.0,0.0,0.0,1.21846967915e-07,0.18632635,0.588399,13.8862164,9e-08,0.0,0.0,0.0,9e-08,0.0,0.0,0.0,9e-08
1538770008503457248,2789,1538770008502853984,base_link,0.000664941197575,-0.0426248712442,-0.887937317368,0.457984714407,1.0,0.0,0.0,0.0,1.0,0.0,0.0,0.0,1.0,0.758398115635,-0.0390768684447,-0.0557005666196,1.21846967915e-07,0.0,0.0,0.0,1.21846967915e-07,0.0,0.0,0.0,1.21846967915e-07,-0.28439285,0.14709975,11.0815145,9e-08,0.0,0.0,0.0,9e-08,0.0,0.0,0.0,9e-08
1538770008812614592,2790,1538770008811815424,base_link,0.0416881648879,-0.130531844214,-0.879427470672,0.455884698561,1.0,0.0,0.0,0.0,1.0,0.0,0.0,0.0,1.0,0.480949699879,-0.0134490914643,-0.00613742414862,1.21846967915e-07,0.0,0.0,0.0,1.21846967915e-07,0.0,0.0,0.0,1.21846967915e-07,-0.2353596,0.32361945,10.4735022,9e-08,0.0,0.0,0.0,9e-08,0.0,0.0,0.0,9e-08
1538770009142636864,2791,1538770009138359840,base_link,0.064640781704,-0.173217125835,-0.876253823191,0.444968126949,1.0,0.0,0.0,0.0,1.0,0.0,0.0,0.0,1.0,0.186849012971,0.0110782478005,-0.0978340357542,1.21846967915e-07,0.0,0.0,0.0,1.21846967915e-07,0.0,0.0,0.0,1.21846967915e-07,-0.2157463,0.59820565,8.56120545,9e-08,0.0,0.0,0.0,9e-08,0.0,0.0,0.0,9e-08
1538770009499223360,2792,1538770009498826592,base_link,0.0773138424255,-0.182105536269,-0.884590061267,0.422327558818,1.0,0.0,0.0,0.0,1.0,0.0,0.0,0.0,1.0,-0.0307938717306,-0.0123455775902,-0.168786078691,1.21846967915e-07,0.0,0.0,0.0,1.21846967915e-07,0.0,0.0,0.0,1.21846967915e-07,-0.2157463,0.7649187,8.7867584,9e-08,0.0,0.0,0.0,9e-08,0.0,0.0,0.0,9e-08
1538770009914315584,2793,1538770009914002592,base_link,0.0836652474059,-0.187432905279,-0.901918253149,0.380016443107,1.0,0.0,0.0,0.0,1.0,0.0,0.0,0.0,1.0,-0.0291927624494,-0.0766922160983,-0.209067732096,1.21846967915e-07,0.0,0.0,0.0,1.21846967915e-07,0.0,0.0,0.0,1.21846967915e-07,-0.24516625,0.3726527,10.1008495,9e-08,0.0,0.0,0.0,9e-08,0.0,0.0,0.0,9e-08
1538770010312979424,2794,1538770010312014944,base_link,0.0734800484095,-0.187365825027,-0.910653090521,0.360840240026,1.0,0.0,0.0,0.0,1.0,0.0,0.0,0.0,1.0,-0.0366908684373,-0.0692359432578,-0.0655082017183,1.21846967915e-07,0.0,0.0,0.0,1.21846967915e-07,0.0,0.0,0.0,1.21846967915e-07,-0.14709975,0.73549875,11.28745415,9e-08,0.0,0.0,0.0,9e-08,0.0,0.0,0.0,9e-08
1538770010601323264,2795,1538770010600892608,base_link,0.0624080998363,-0.166661265998,-0.920989523892,0.346565359453,1.0,0.0,0.0,0.0,1.0,0.0,0.0,0.0,1.0,-0.24320076406,-0.0382575653493,-0.139486476779,1.21846967915e-07,0.0,0.0,0.0,1.21846967915e-07,0.0,0.0,0.0,1.21846967915e-07,-0.08825985,0.784532,10.52253545,9e-08,0.0,0.0,0.0,9e-08,0.0,0.0,0.0,9e-08
1538770011078900448,2796,1538770011078592224,base_link,0.038038819128,-0.111091166265,-0.942317821921,0.313446843194,1.0,0.0,0.0,0.0,1.0,0.0,0.0,0.0,1.0,-0.360268324614,-0.0716766342521,-0.0659931004047,1.21846967915e-07,0.0,0.0,0.0,1.21846967915e-07,0.0,0.0,0.0,1.21846967915e-07,-0.1372931,0.4511059,11.38552065,9e-08,0.0,0.0,0.0,9e-08,0.0,0.0,0.0,9e-08
1538770011371961440,2797,1538770011360747392,base_link,0.0190452374558,-0.0709807140492,-0.949600623231,0.304725570839,1.0,0.0,0.0,0.0,1.0,0.0,0.0,0.0,1.0,-0.27287364006,-0.0475071109831,-0.0471794530749,1.21846967915e-07,0.0,0.0,0.0,1.21846967915e-07,0.0,0.0,0.0,1.21846967915e-07,-0.14709975,0.42168595,10.99325465,9e-08,0.0,0.0,0.0,9e-08,0.0,0.0,0.0,9e-08
1538770011742982368,2798,1538770011741906688,base_link,-0.00338349112003,-0.023435072857,-0.953609704993,0.300113111827,1.0,0.0,0.0,0.0,1.0,0.0,0.0,0.0,1.0,-0.401847332716,-0.045374777168,-0.0531255081296,1.21846967915e-07,0.0,0.0,0.0,1.21846967915e-07,0.0,0.0,0.0,1.21846967915e-07,-0.04903325,0.93163175,10.2185293,9e-08,0.0,0.0,0.0,9e-08,0.0,0.0,0.0,9e-08
1538770012148917728,2799,1538770012145663136,base_link,-0.0134140723104,0.00157531278472,-0.959115637332,0.282692014884,1.0,0.0,0.0,0.0,1.0,0.0,0.0,0.0,1.0,0.0333555489779,0.0127874054015,-0.0280609745532,1.21846967915e-07,0.0,0.0,0.0,1.21846967915e-07,0.0,0.0,0.0,1.21846967915e-07,-0.02941995,0.18632635,9.95374975,9e-08,0.0,0.0,0.0,9e-08,0.0,0.0,0.0,9e-08
1538770012491381952,2800,1538770012491171744,base_link,-0.0150850489966,0.00449228203415,-0.956548452611,0.291148275809,1.0,0.0,0.0,0.0,1.0,0.0,0.0,0.0,1.0,-0.0466384291649,-0.00560783268884,0.103795468807,1.21846967915e-07,0.0,0.0,0.0,1.21846967915e-07,0.0,0.0,0.0,1.21846967915e-07,0.0,0.38245935,11.2188076,9e-08,0.0,0.0,0.0,9e-08,0.0,0.0,0.0,9e-08
1538770012905106816,2801,1538770012904733440,base_link,-0.0205867505567,0.0241752379153,-0.952311270452,0.303471560024,1.0,0.0,0.0,0.0,1.0,0.0,0.0,0.0,1.0,-0.00222840160131,0.0216943714768,-0.0409054234624,1.21846967915e-07,0.0,0.0,0.0,1.21846967915e-07,0.0,0.0,0.0,1.21846967915e-07,0.0,0.61781895,9.9243298,9e-08,0.0,0.0,0.0,9e-08,0.0,0.0,0.0,9e-08
1538770013303894784,2802,1538770013303095200,base_link,-0.00644681027808,0.0121341338734,-0.954816316726,0.296878767758,1.0,0.0,0.0,0.0,1.0,0.0,0.0,0.0,1.0,0.211541637778,0.0521120540798,0.0344052761793,1.21846967915e-07,0.0,0.0,0.0,1.21846967915e-07,0.0,0.0,0.0,1.21846967915e-07,-0.1569064,-0.08825985,7.7864801,9e-08,0.0,0.0,0.0,9e-08,0.0,0.0,0.0,9e-08
1538770013823399008,2803,1538770013823100288,base_link,0.00634068962178,-0.0122237750458,-0.940865725317,0.338499722161,1.0,0.0,0.0,0.0,1.0,0.0,0.0,0.0,1.0,-0.107073225081,0.0214663520455,0.165360480547,1.21846967915e-07,0.0,0.0,0.0,1.21846967915e-07,0.0,0.0,0.0,1.21846967915e-07,-0.0980665,0.63743225,10.93441475,9e-08,0.0,0.0,0.0,9e-08,0.0,0.0,0.0,9e-08
1538770014353799360,2804,1538770014353303616,base_link,0.0135460053039,-0.000418980817686,-0.94328690996,0.331701877735,1.0,0.0,0.0,0.0,1.0,0.0,0.0,0.0,1.0,0.0531669408083,0.0120473969728,-0.124244309962,1.21846967915e-07,0.0,0.0,0.0,1.21846967915e-07,0.0,0.0,0.0,1.21846967915e-07,-0.34323275,0.36284605,8.87501825,9e-08,0.0,0.0,0.0,9e-08,0.0,0.0,0.0,9e-08
1538770014698906880,2805,1538770014698658656,base_link,0.0165918863331,-0.0175176449168,-0.946227636407,0.322600529331,1.0,0.0,0.0,0.0,1.0,0.0,0.0,0.0,1.0,0.143806144595,-0.0123518174514,0.0222785044461,1.21846967915e-07,0.0,0.0,0.0,1.21846967915e-07,0.0,0.0,0.0,1.21846967915e-07,-0.0980665,0.0980665,11.16977435,9e-08,0.0,0.0,0.0,9e-08,0.0,0.0,0.0,9e-08
1538770015063056640,2806,1538770015062593824,base_link,0.0215096780314,-0.0410593479578,-0.941526184268,0.333736285164,1.0,0.0,0.0,0.0,1.0,0.0,0.0,0.0,1.0,-0.0260348021984,-0.0264185275882,0.0403497368097,1.21846967915e-07,0.0,0.0,0.0,1.21846967915e-07,0.0,0.0,0.0,1.21846967915e-07,-0.2353596,0.44129925,9.81645665,9e-08,0.0,0.0,0.0,9e-08,0.0,0.0,0.0,9e-08
1538770015401622496,2807,1538770015401379072,base_link,0.0189913884897,-0.0480814775653,-0.942344186274,0.330628089059,1.0,0.0,0.0,0.0,1.0,0.0,0.0,0.0,1.0,0.188674211502,-0.0316660888493,-0.0306699424982,1.21846967915e-07,0.0,0.0,0.0,1.21846967915e-07,0.0,0.0,0.0,1.21846967915e-07,-0.10787315,0.06864655,11.66010685,9e-08,0.0,0.0,0.0,9e-08,0.0,0.0,0.0,9e-08
1538770015710501152,2808,1538770015710148512,base_link,0.0169108058695,-0.0502492393202,-0.941688415428,0.332282962008,1.0,0.0,0.0,0.0,1.0,0.0,0.0,0.0,1.0,-0.0746515244246,-0.00650060269982,0.00381471170112,1.21846967915e-07,0.0,0.0,0.0,1.21846967915e-07,0.0,0.0,0.0,1.21846967915e-07,-0.0392266,0.48052585,10.85596155,9e-08,0.0,0.0,0.0,9e-08,0.0,0.0,0.0,9e-08
1538770016043280832,2809,1538770016042954816,base_link,0.0154315463566,-0.0483815098774,-0.944650413819,0.324124501621,1.0,0.0,0.0,0.0,1.0,0.0,0.0,0.0,1.0,-0.00629016850144,-0.025365723297,-0.0510285533965,1.21846967915e-07,0.0,0.0,0.0,1.21846967915e-07,0.0,0.0,0.0,1.21846967915e-07,-0.06864655,0.3334261,10.2773692,9e-08,0.0,0.0,0.0,9e-08,0.0,0.0,0.0,9e-08
1538770016447326944,2810,1538770016446475872,base_link,0.00954995110036,-0.0389177353115,-0.946115565003,0.321340233975,1.0,0.0,0.0,0.0,1.0,0.0,0.0,0.0,1.0,0.00510060600936,-0.00641670217738,-0.049216657877,1.21846967915e-07,0.0,0.0,0.0,1.21846967915e-07,0.0,0.0,0.0,1.21846967915e-07,-0.06864655,0.40207265,9.67916355,9e-08,0.0,0.0,0.0,9e-08,0.0,0.0,0.0,9e-08
1538770016928640800,2811,1538770016927837504,base_link,0.00485120534608,-0.0356899481901,-0.944687894568,0.325986924987,1.0,0.0,0.0,0.0,1.0,0.0,0.0,0.0,1.0,0.00140583142638,-0.0141434390098,0.0607379712164,1.21846967915e-07,0.0,0.0,0.0,1.21846967915e-07,0.0,0.0,0.0,1.21846967915e-07,-0.04903325,0.28439285,10.26756255,9e-08,0.0,0.0,0.0,9e-08,0.0,0.0,0.0,9e-08
1538770017255020000,2812,1538770017254650464,base_link,-0.0019888889,-0.0261633996879,-0.942585999055,0.332931156883,1.0,0.0,0.0,0.0,1.0,0.0,0.0,0.0,1.0,-0.159189596772,-0.0201292075217,0.0610503442585,1.21846967915e-07,0.0,0.0,0.0,1.21846967915e-07,0.0,0.0,0.0,1.21846967915e-07,0.0196133,0.4903325,10.9049948,9e-08,0.0,0.0,0.0,9e-08,0.0,0.0,0.0,9e-08
1538770017654617056,2813,1538770017652658560,base_link,-0.00408497195347,-0.00814725243454,-0.939173459912,0.343322221067,1.0,0.0,0.0,0.0,1.0,0.0,0.0,0.0,1.0,0.0240307021886,0.039055801928,0.0391888618469,1.21846967915e-07,0.0,0.0,0.0,1.21846967915e-07,0.0,0.0,0.0,1.21846967915e-07,-0.0196133,0.4511059,9.48303055,9e-08,0.0,0.0,0.0,9e-08,0.0,0.0,0.0,9e-08
1538770018018171296,2814,1538770018017946080,base_link,0.00591236201781,-0.0159686475062,-0.940255510944,0.340043556638,1.0,0.0,0.0,0.0,1.0,0.0,0.0,0.0,1.0,0.129404574633,0.0378749482334,-0.0215862281621,1.21846967915e-07,0.0,0.0,0.0,1.21846967915e-07,0.0,0.0,0.0,1.21846967915e-07,-0.0588399,0.1765197,9.12999115,9e-08,0.0,0.0,0.0,9e-08,0.0,0.0,0.0,9e-08
1538770018406567552,2815,1538770018405848416,base_link,0.0162730362483,-0.0312042661226,-0.940483173351,0.33801313985,1.0,0.0,0.0,0.0,1.0,0.0,0.0,0.0,1.0,0.0478510670364,-0.00547295482829,-0.000611177412793,1.21846967915e-07,0.0,0.0,0.0,1.21846967915e-07,0.0,0.0,0.0,1.21846967915e-07,0.0196133,0.48052585,9.9243298,9e-08,0.0,0.0,0.0,9e-08,0.0,0.0,0.0,9e-08
1538770018818576800,2816,1538770018818307136,base_link,0.0205030664677,-0.0438565056793,-0.937887157731,0.343546082118,1.0,0.0,0.0,0.0,1.0,0.0,0.0,0.0,1.0,0.00241992715746,-0.0100746043026,0.0314534157515,1.21846967915e-07,0.0,0.0,0.0,1.21846967915e-07,0.0,0.0,0.0,1.21846967915e-07,0.0392266,0.4511059,9.58109705,9e-08,0.0,0.0,0.0,9e-08,0.0,0.0,0.0,9e-08
1538770019309185728,2817,1538770019308973472,base_link,0.020436086917,-0.0465490392788,-0.938118020123,0.342564057681,1.0,0.0,0.0,0.0,1.0,0.0,0.0,0.0,1.0,0.0166767574847,-0.0213243085891,-0.0077997664921,1.21846967915e-07,0.0,0.0,0.0,1.21846967915e-07,0.0,0.0,0.0,1.21846967915e-07,0.0588399,0.34323275,10.38524235,9e-08,0.0,0.0,0.0,9e-08,0.0,0.0,0.0,9e-08
1538770019653238528,2818,1538770019652868160,base_link,0.018911876559,-0.0577901304587,-0.938310978998,0.34040438957,1.0,0.0,0.0,0.0,1.0,0.0,0.0,0.0,1.0,0.0552403144538,-0.0288095865399,0.0140186026692,1.21846967915e-07,0.0,0.0,0.0,1.21846967915e-07,0.0,0.0,0.0,1.21846967915e-07,0.0980665,0.32361945,10.0223963,9e-08,0.0,0.0,0.0,9e-08,0.0,0.0,0.0,9e-08
1538770020174683488,2819,1538770020174487424,base_link,0.0102835293787,-0.0561763213617,-0.939800421134,0.336917851083,1.0,0.0,0.0,0.0,1.0,0.0,0.0,0.0,1.0,0.0353465862572,-0.0206907335669,-0.0413676053286,1.21846967915e-07,0.0,0.0,0.0,1.21846967915e-07,0.0,0.0,0.0,1.21846967915e-07,0.2353596,0.69627215,10.34601575,9e-08,0.0,0.0,0.0,9e-08,0.0,0.0,0.0,9e-08
1538770020520029024,2820,1538770020519565600,base_link,0.00461986996729,-0.0497379681242,-0.942319685644,0.330965861345,1.0,0.0,0.0,0.0,1.0,0.0,0.0,0.0,1.0,-0.109156504273,-0.0310959294438,-0.00282195559703,1.21846967915e-07,0.0,0.0,0.0,1.21846967915e-07,0.0,0.0,0.0,1.21846967915e-07,0.2549729,0.59820565,10.46369555,9e-08,0.0,0.0,0.0,9e-08,0.0,0.0,0.0,9e-08
1538770020798143360,2821,1538770020797250272,base_link,-0.00137029583763,-0.0400216306607,-0.942316264553,0.332319799181,1.0,0.0,0.0,0.0,1.0,0.0,0.0,0.0,1.0,-0.0726669505239,-0.015324274078,0.0435943640769,1.21846967915e-07,0.0,0.0,0.0,1.21846967915e-07,0.0,0.0,0.0,1.21846967915e-07,0.1765197,0.3726527,9.99297635,9e-08,0.0,0.0,0.0,9e-08,0.0,0.0,0.0,9e-08
1538770021198476480,2822,1538770021197079200,base_link,-0.00826063320353,-0.0323324191159,-0.94072537198,0.337523556401,1.0,0.0,0.0,0.0,1.0,0.0,0.0,0.0,1.0,-0.0178769957274,-0.00372760160826,-0.00891252048314,1.21846967915e-07,0.0,0.0,0.0,1.21846967915e-07,0.0,0.0,0.0,1.21846967915e-07,0.4118793,0.784532,10.09104285,9e-08,0.0,0.0,0.0,9e-08,0.0,0.0,0.0,9e-08
1538770021608694656,2823,1538770021607342144,base_link,-0.00526407336504,-0.0401452854004,-0.945995183328,0.321642283776,1.0,0.0,0.0,0.0,1.0,0.0,0.0,0.0,1.0,0.0458659268916,0.00796869024634,-0.0159968156368,1.21846967915e-07,0.0,0.0,0.0,1.21846967915e-07,0.0,0.0,0.0,1.21846967915e-07,0.4118793,0.44129925,10.01258965,9e-08,0.0,0.0,0.0,9e-08,0.0,0.0,0.0,9e-08
1538770021993317664,2824,1538770021992974688,base_link,-0.00452396206869,-0.0520826733836,-0.943853126634,0.326202704224,1.0,0.0,0.0,0.0,1.0,0.0,0.0,0.0,1.0,0.0410777851939,-0.0222929567099,0.0501340441406,1.21846967915e-07,0.0,0.0,0.0,1.21846967915e-07,0.0,0.0,0.0,1.21846967915e-07,0.53936575,0.4118793,10.9638347,9e-08,0.0,0.0,0.0,9e-08,0.0,0.0,0.0,9e-08
1538770022434186528,2825,1538770022429753408,base_link,-0.0185618682019,-0.0195184926768,-0.941767815868,0.335183332651,1.0,0.0,0.0,0.0,1.0,0.0,0.0,0.0,1.0,0.0403696261346,0.0361788570881,-0.0101594580337,1.21846967915e-07,0.0,0.0,0.0,1.21846967915e-07,0.0,0.0,0.0,1.21846967915e-07,0.7060788,0.79433865,10.87557485,9e-08,0.0,0.0,0.0,9e-08,0.0,0.0,0.0,9e-08
1538770022776778208,2826,1538770022776558944,base_link,-0.0103981664531,-0.0215139202712,-0.945688271221,0.32419550127,1.0,0.0,0.0,0.0,1.0,0.0,0.0,0.0,1.0,0.0656976178288,0.034778740257,-0.0436396859586,1.21846967915e-07,0.0,0.0,0.0,1.21846967915e-07,0.0,0.0,0.0,1.21846967915e-07,0.48052585,0.32361945,9.3555441,9e-08,0.0,0.0,0.0,9e-08,0.0,0.0,0.0,9e-08
1538770023068823680,2827,1538770023068573280,base_link,0.000385128981814,-0.0469251813325,-0.94518435153,0.323147676234,1.0,0.0,0.0,0.0,1.0,0.0,0.0,0.0,1.0,0.259295761585,-0.0272635035217,0.0386587753892,1.21846967915e-07,0.0,0.0,0.0,1.21846967915e-07,0.0,0.0,0.0,1.21846967915e-07,0.55897905,0.2353596,10.8265416,9e-08,0.0,0.0,0.0,9e-08,0.0,0.0,0.0,9e-08
1538770023431907168,2828,1538770023431530592,base_link,-0.00545548188561,-0.0367996794751,-0.939459457205,0.340634627683,1.0,0.0,0.0,0.0,1.0,0.0,0.0,0.0,1.0,-0.0375721082091,-0.0329749472439,0.0644634068012,1.21846967915e-07,0.0,0.0,0.0,1.21846967915e-07,0.0,0.0,0.0,1.21846967915e-07,0.48052585,0.63743225,9.28689755,9e-08,0.0,0.0,0.0,9e-08,0.0,0.0,0.0,9e-08
1538770023793457376,2829,1538770023793189184,base_link,-0.00569933958064,-0.0273314216456,-0.938591481989,0.343899027123,1.0,0.0,0.0,0.0,1.0,0.0,0.0,0.0,1.0,-0.124081172049,0.00136748608202,-0.00232577789575,1.21846967915e-07,0.0,0.0,0.0,1.21846967915e-07,0.0,0.0,0.0,1.21846967915e-07,0.4903325,0.784532,7.7668668,9e-08,0.0,0.0,0.0,9e-08,0.0,0.0,0.0,9e-08
1538770024268996288,2830,1538770024267646976,base_link,0.0132930468264,-0.0627488205683,-0.942676931921,0.327484476652,1.0,0.0,0.0,0.0,1.0,0.0,0.0,0.0,1.0,0.0947600081563,0.041272867471,-0.112572267652,1.21846967915e-07,0.0,0.0,0.0,1.21846967915e-07,0.0,0.0,0.0,1.21846967915e-07,0.44129925,0.5491724,10.0223963,9e-08,0.0,0.0,0.0,9e-08,0.0,0.0,0.0,9e-08
1538770024556178976,2831,1538770024555917088,base_link,0.0200642134581,-0.0656172867544,-0.945920658275,0.31705820801,1.0,0.0,0.0,0.0,1.0,0.0,0.0,0.0,1.0,0.0491853319108,0.0161579232663,-0.0258404631168,1.21846967915e-07,0.0,0.0,0.0,1.21846967915e-07,0.0,0.0,0.0,1.21846967915e-07,0.34323275,0.2353596,8.5906254,9e-08,0.0,0.0,0.0,9e-08,0.0,0.0,0.0,9e-08
1538770024887568512,2832,1538770024887293344,base_link,0.0349512762034,-0.113642325919,-0.941023952354,0.316761347307,1.0,0.0,0.0,0.0,1.0,0.0,0.0,0.0,1.0,0.268775433302,-0.0346206650138,0.0287446584553,1.21846967915e-07,0.0,0.0,0.0,1.21846967915e-07,0.0,0.0,0.0,1.21846967915e-07,0.0,0.4903325,10.0223963,9e-08,0.0,0.0,0.0,9e-08,0.0,0.0,0.0,9e-08
1538770025214124096,2833,1538770025213669472,base_link,0.0396327361721,-0.124216808638,-0.939637661391,0.316355015719,1.0,0.0,0.0,0.0,1.0,0.0,0.0,0.0,1.0,0.0636604875326,0.0244034882635,-0.0598599538207,1.21846967915e-07,0.0,0.0,0.0,1.21846967915e-07,0.0,0.0,0.0,1.21846967915e-07,-0.48052585,0.6864655,9.73800345,9e-08,0.0,0.0,0.0,9e-08,0.0,0.0,0.0,9e-08
1538770025505930496,2834,1538770025505600160,base_link,0.050825993338,-0.112396241265,-0.945161699172,0.302412244741,1.0,0.0,0.0,0.0,1.0,0.0,0.0,0.0,1.0,-0.0141163412482,0.139346629381,-0.115981087089,1.21846967915e-07,0.0,0.0,0.0,1.21846967915e-07,0.0,0.0,0.0,1.21846967915e-07,-0.75511205,-0.06864655,8.629852,9e-08,0.0,0.0,0.0,9e-08,0.0,0.0,0.0,9e-08
1538770025839987072,2835,1538770025839438944,base_link,0.0756845315457,-0.114036654539,-0.946843217199,0.291127833006,1.0,0.0,0.0,0.0,1.0,0.0,0.0,0.0,1.0,0.181519761682,0.138913691044,-0.0659319683909,1.21846967915e-07,0.0,0.0,0.0,1.21846967915e-07,0.0,0.0,0.0,1.21846967915e-07,-0.9022118,0.4118793,7.2765343,9e-08,0.0,0.0,0.0,9e-08,0.0,0.0,0.0,9e-08
1538770026294850432,2836,1538770026294583488,base_link,0.120810807973,-0.150983830889,-0.946537014206,0.258217567614,1.0,0.0,0.0,0.0,1.0,0.0,0.0,0.0,1.0,0.236754268408,0.102831147611,-0.220464989543,1.21846967915e-07,0.0,0.0,0.0,1.21846967915e-07,0.0,0.0,0.0,1.21846967915e-07,-0.85317855,0.53936575,8.65927195,9e-08,0.0,0.0,0.0,9e-08,0.0,0.0,0.0,9e-08
1538770026695545312,2837,1538770026695288320,base_link,0.156408208476,-0.208123773468,-0.946625301901,0.190056583783,1.0,0.0,0.0,0.0,1.0,0.0,0.0,0.0,1.0,0.467671453953,-0.0259985011071,-0.292388886213,1.21846967915e-07,0.0,0.0,0.0,1.21846967915e-07,0.0,0.0,0.0,1.21846967915e-07,-1.0002783,0.3530394,7.9041599,9e-08,0.0,0.0,0.0,9e-08,0.0,0.0,0.0,9e-08
1538770026955843200,2838,1538770026955587872,base_link,0.16672072538,-0.267240043552,-0.937878018312,0.145505263196,1.0,0.0,0.0,0.0,1.0,0.0,0.0,0.0,1.0,0.504356086254,-0.12302403152,-0.204181447625,1.21846967915e-07,0.0,0.0,0.0,1.21846967915e-07,0.0,0.0,0.0,1.21846967915e-07,-1.1375714,0.08825985,9.18883105,9e-08,0.0,0.0,0.0,9e-08,0.0,0.0,0.0,9e-08
1538770027347141248,2839,1538770027346803776,base_link,0.137655270503,-0.300423722891,-0.939128617073,0.0939896474204,1.0,0.0,0.0,0.0,1.0,0.0,0.0,0.0,1.0,0.00118995923549,-0.301965981722,-0.184164553881,1.21846967915e-07,0.0,0.0,0.0,1.21846967915e-07,0.0,0.0,0.0,1.21846967915e-07,-0.7649187,0.89240515,14.03331615,9e-08,0.0,0.0,0.0,9e-08,0.0,0.0,0.0,9e-08
1538770027682342048,2840,1538770027681795936,base_link,0.109656017853,-0.301627246074,-0.946356913354,0.0374853934476,1.0,0.0,0.0,0.0,1.0,0.0,0.0,0.0,1.0,0.0229314211756,-0.294965296984,-0.314432859421,1.21846967915e-07,0.0,0.0,0.0,1.21846967915e-07,0.0,0.0,0.0,1.21846967915e-07,-0.99047165,0.61781895,12.79767825,9e-08,0.0,0.0,0.0,9e-08,0.0,0.0,0.0,9e-08
1538770028120090368,2841,1538770028119810848,base_link,0.0702104657271,-0.324410538667,-0.942333561098,-0.0428456827829,1.0,0.0,0.0,0.0,1.0,0.0,0.0,0.0,1.0,0.272740274668,-0.260771542788,-0.237390875816,1.21846967915e-07,0.0,0.0,0.0,1.21846967915e-07,0.0,0.0,0.0,1.21846967915e-07,-0.9414384,0.3726527,13.2782041,9e-08,0.0,0.0,0.0,9e-08,0.0,0.0,0.0,9e-08
1538770028491842432,2842,1538770028491196960,base_link,0.0300628250139,-0.364991935921,-0.923402644435,-0.114911572589,1.0,0.0,0.0,0.0,1.0,0.0,0.0,0.0,1.0,0.0603898614645,-0.352980047464,-0.346517145634,1.21846967915e-07,0.0,0.0,0.0,1.21846967915e-07,0.0,0.0,0.0,1.21846967915e-07,-0.75511205,0.6276256,13.42530385,9e-08,0.0,0.0,0.0,9e-08,0.0,0.0,0.0,9e-08
1538770028848777600,2843,1538770028848538944,base_link,-0.00627277577183,-0.35035632101,-0.915054840987,-0.199714142212,1.0,0.0,0.0,0.0,1.0,0.0,0.0,0.0,1.0,0.0188351403922,-0.356949687004,-0.338277697563,1.21846967915e-07,0.0,0.0,0.0,1.21846967915e-07,0.0,0.0,0.0,1.21846967915e-07,-0.9218251,0.3726527,13.533177,9e-08,0.0,0.0,0.0,9e-08,0.0,0.0,0.0,9e-08
1538770029277113408,2844,1538770029276635200,base_link,-0.0663622474356,-0.377014265102,-0.877422481334,-0.289112582353,1.0,0.0,0.0,0.0,1.0,0.0,0.0,0.0,1.0,0.317470192909,-0.365954935551,-0.290688365698,1.21846967915e-07,0.0,0.0,0.0,1.21846967915e-07,0.0,0.0,0.0,1.21846967915e-07,-0.85317855,0.5491724,14.05292945,9e-08,0.0,0.0,0.0,9e-08,0.0,0.0,0.0,9e-08
1538770029506941504,2845,1538770029506539328,base_link,-0.108808633693,-0.410631640355,-0.842787180873,-0.330533061781,1.0,0.0,0.0,0.0,1.0,0.0,0.0,0.0,1.0,0.182307720184,-0.406094312668,-0.278440654278,1.21846967915e-07,0.0,0.0,0.0,1.21846967915e-07,0.0,0.0,0.0,1.21846967915e-07,-0.85317855,1.3533177,12.99381125,9e-08,0.0,0.0,0.0,9e-08,0.0,0.0,0.0,9e-08
1538770029841248576,2846,1538770029840450112,base_link,-0.131660043351,-0.366285286415,-0.817880321122,-0.423759958304,1.0,0.0,0.0,0.0,1.0,0.0,0.0,0.0,1.0,-0.0628446117043,-0.442129343748,-0.42540705204,1.21846967915e-07,0.0,0.0,0.0,1.21846967915e-07,0.0,0.0,0.0,1.21846967915e-07,-0.7256921,0.48052585,11.95430635,9e-08,0.0,0.0,0.0,9e-08,0.0,0.0,0.0,9e-08
1538770030051504672,2847,1538770030048846592,base_link,-0.150873627298,-0.346883478095,-0.795777977897,-0.472912688669,1.0,0.0,0.0,0.0,1.0,0.0,0.0,0.0,1.0,-0.0556429848075,-0.436043828726,-0.33679664135,1.21846967915e-07,0.0,0.0,0.0,1.21846967915e-07,0.0,0.0,0.0,1.21846967915e-07,-0.4118793,0.4511059,14.6707484,9e-08,0.0,0.0,0.0,9e-08,0.0,0.0,0.0,9e-08
1538770030373987072,2848,1538770030370188064,base_link,-0.19664454316,-0.340517224849,-0.746820676314,-0.536318767764,1.0,0.0,0.0,0.0,1.0,0.0,0.0,0.0,1.0,0.0325649157166,-0.440737277269,-0.353390872478,1.21846967915e-07,0.0,0.0,0.0,1.21846967915e-07,0.0,0.0,0.0,1.21846967915e-07,-0.20593965,0.77472535,14.3373223,9e-08,0.0,0.0,0.0,9e-08,0.0,0.0,0.0,9e-08
1538770030734149312,2849,1538770030733943040,base_link,-0.219419177559,-0.294531774902,-0.690803798684,-0.622813270424,1.0,0.0,0.0,0.0,1.0,0.0,0.0,0.0,1.0,-0.0473641715944,-0.406193196774,-0.434000223875,1.21846967915e-07,0.0,0.0,0.0,1.21846967915e-07,0.0,0.0,0.0,1.21846967915e-07,-0.10787315,0.9414384,14.87668805,9e-08,0.0,0.0,0.0,9e-08,0.0,0.0,0.0,9e-08
1538770031210982592,2850,1538770031210739232,base_link,-0.234908149738,-0.251281890719,-0.599260414374,-0.722884865208,1.0,0.0,0.0,0.0,1.0,0.0,0.0,0.0,1.0,-0.0968183279037,-0.332507580519,-0.484056800604,1.21846967915e-07,0.0,0.0,0.0,1.21846967915e-07,0.0,0.0,0.0,1.21846967915e-07,-0.55897905,0.81395195,11.9444997,9e-08,0.0,0.0,0.0,9e-08,0.0,0.0,0.0,9e-08
1538770031607750112,2851,1538770031607267424,base_link,-0.25196700871,-0.220006355677,-0.509290199028,-0.792927060427,1.0,0.0,0.0,0.0,1.0,0.0,0.0,0.0,1.0,0.0423157736659,-0.368299454451,-0.43813586235,1.21846967915e-07,0.0,0.0,0.0,1.21846967915e-07,0.0,0.0,0.0,1.21846967915e-07,-0.73549875,0.44129925,11.48358715,9e-08,0.0,0.0,0.0,9e-08,0.0,0.0,0.0,9e-08
1538770032134809696,2852,1538770032134568256,base_link,-0.304575143224,-0.17721740583,-0.384948975629,-0.853019495301,1.0,0.0,0.0,0.0,1.0,0.0,0.0,0.0,1.0,-0.103015445173,-0.397421687841,-0.339175403118,1.21846967915e-07,0.0,0.0,0.0,1.21846967915e-07,0.0,0.0,0.0,1.21846967915e-07,-0.6276256,0.79433865,12.2583125,9e-08,0.0,0.0,0.0,9e-08,0.0,0.0,0.0,9e-08
1538770032523143680,2853,1538770032522734240,base_link,-0.290230356313,-0.120020702358,-0.292526678032,-0.903210669733,1.0,0.0,0.0,0.0,1.0,0.0,0.0,0.0,1.0,-0.154046416283,-0.409239679575,-0.481343656778,1.21846967915e-07,0.0,0.0,0.0,1.21846967915e-07,0.0,0.0,0.0,1.21846967915e-07,-0.0392266,0.784532,14.9649479,9e-08,0.0,0.0,0.0,9e-08,0.0,0.0,0.0,9e-08
1538770032896242336,2854,1538770032895963264,base_link,-0.264398140889,-0.0720159669392,-0.203639562738,-0.939913959939,1.0,0.0,0.0,0.0,1.0,0.0,0.0,0.0,1.0,-0.332820415497,-0.355596214533,-0.419023811817,1.21846967915e-07,0.0,0.0,0.0,1.21846967915e-07,0.0,0.0,0.0,1.21846967915e-07,0.28439285,0.4903325,15.50431365,9e-08,0.0,0.0,0.0,9e-08,0.0,0.0,0.0,9e-08
1538770033197020544,2855,1538770033196776928,base_link,-0.208499446347,-0.0352856243659,-0.14064388228,-0.967213628917,1.0,0.0,0.0,0.0,1.0,0.0,0.0,0.0,1.0,-0.467057108879,-0.209599912167,-0.347557365894,1.21846967915e-07,0.0,0.0,0.0,1.21846967915e-07,0.0,0.0,0.0,1.21846967915e-07,0.08825985,0.1569064,14.2392558,9e-08,0.0,0.0,0.0,9e-08,0.0,0.0,0.0,9e-08
1538770033577379168,2856,1538770033576931520,base_link,-0.112259979613,-0.00729608630612,-0.086629104096,-0.989868608668,1.0,0.0,0.0,0.0,1.0,0.0,0.0,0.0,1.0,-0.392622977495,-0.128899112344,-0.257784575224,1.21846967915e-07,0.0,0.0,0.0,1.21846967915e-07,0.0,0.0,0.0,1.21846967915e-07,-0.0392266,0.04903325,12.4544455,9e-08,0.0,0.0,0.0,9e-08,0.0,0.0,0.0,9e-08
1538770033946599008,2857,1538770033946266400,base_link,-0.034244764635,0.00668492723703,-0.0698574253923,-0.996946612392,1.0,0.0,0.0,0.0,1.0,0.0,0.0,0.0,1.0,-0.500253021717,-0.00906276144087,-0.000670405803248,1.21846967915e-07,0.0,0.0,0.0,1.21846967915e-07,0.0,0.0,0.0,1.21846967915e-07,-0.36284605,1.33187379289e-15,10.87557485,9e-08,0.0,0.0,0.0,9e-08,0.0,0.0,0.0,9e-08
1538770034249197472,2858,1538770034247164032,base_link,0.0425650257565,0.0107737675914,-0.0833153346537,-0.995555472852,1.0,0.0,0.0,0.0,1.0,0.0,0.0,0.0,1.0,-0.422733873129,0.0169198457152,0.166818127036,1.21846967915e-07,0.0,0.0,0.0,1.21846967915e-07,0.0,0.0,0.0,1.21846967915e-07,-0.51975245,-0.44129925,9.44380395,9e-08,0.0,0.0,0.0,9e-08,0.0,0.0,0.0,9e-08
1538770034652116704,2859,1538770034651765600,base_link,0.141899509376,0.0144170853249,-0.14404023354,-0.979239035176,1.0,0.0,0.0,0.0,1.0,0.0,0.0,0.0,1.0,-0.439534634352,-0.0124052548781,0.324352174997,1.21846967915e-07,0.0,0.0,0.0,1.21846967915e-07,0.0,0.0,0.0,1.21846967915e-07,-0.42168595,-0.0392266,9.05153795,9e-08,0.0,0.0,0.0,9e-08,0.0,0.0,0.0,9e-08
1538770035153296672,2860,1538770035152990912,base_link,0.233516525894,0.021942167659,-0.220940685636,-0.946664558776,1.0,0.0,0.0,0.0,1.0,0.0,0.0,0.0,1.0,-0.134507000446,-0.0852006226778,0.27196419239,1.21846967915e-07,0.0,0.0,0.0,1.21846967915e-07,0.0,0.0,0.0,1.21846967915e-07,-0.1176798,0.0196133,9.6889702,9e-08,0.0,0.0,0.0,9e-08,0.0,0.0,0.0,9e-08
1538770035528383488,2861,1538770035526420544,base_link,0.27480824081,0.0323178801763,-0.272596320235,-0.921480999044,1.0,0.0,0.0,0.0,1.0,0.0,0.0,0.0,1.0,-0.100052945316,-0.182502582669,0.275217354298,1.21846967915e-07,0.0,0.0,0.0,1.21846967915e-07,0.0,0.0,0.0,1.21846967915e-07,-0.6864655,0.1372931,7.56092715,9e-08,0.0,0.0,0.0,9e-08,0.0,0.0,0.0,9e-08
1538770035873626592,2862,1538770035873332160,base_link,0.277513841374,0.0614798652017,-0.327088119234,-0.901232298732,1.0,0.0,0.0,0.0,1.0,0.0,0.0,0.0,1.0,-0.22639849782,-0.228254362941,0.197450459003,1.21846967915e-07,0.0,0.0,0.0,1.21846967915e-07,0.0,0.0,0.0,1.21846967915e-07,0.0,0.588399,11.6895268,9e-08,0.0,0.0,0.0,9e-08,0.0,0.0,0.0,9e-08
1538770036361441472,2863,1538770036361195584,base_link,0.26080281316,0.0985043530018,-0.377759186221,-0.882936454289,1.0,0.0,0.0,0.0,1.0,0.0,0.0,0.0,1.0,0.226590409875,-0.223727732897,0.173802703619,1.21846967915e-07,0.0,0.0,0.0,1.21846967915e-07,0.0,0.0,0.0,1.21846967915e-07,0.06864655,-0.0196133,12.2190859,9e-08,0.0,0.0,0.0,9e-08,0.0,0.0,0.0,9e-08
1538770036798055616,2864,1538770036797604448,base_link,0.127337434311,0.0492524109437,-0.449372938718,-0.882849556712,1.0,0.0,0.0,0.0,1.0,0.0,0.0,0.0,1.0,0.82638335228,-0.00267950887792,0.356937140226,1.21846967915e-07,0.0,0.0,0.0,1.21846967915e-07,0.0,0.0,0.0,1.21846967915e-07,0.0196133,-0.04903325,11.6895268,9e-08,0.0,0.0,0.0,9e-08,0.0,0.0,0.0,9e-08
1538770037306369600,2865,1538770037306058208,base_link,-0.0282174611609,-0.0379037620096,-0.519518535284,-0.853151552309,1.0,0.0,0.0,0.0,1.0,0.0,0.0,0.0,1.0,0.555857956409,-0.0224200673401,0.0676183402538,1.21846967915e-07,0.0,0.0,0.0,1.21846967915e-07,0.0,0.0,0.0,1.21846967915e-07,-0.196133,0.73549875,11.13054775,9e-08,0.0,0.0,0.0,9e-08,0.0,0.0,0.0,9e-08
1538770037702839840,2866,1538770037702564352,base_link,-0.114370374063,-0.0801124420985,-0.503063533047,-0.852894187972,1.0,0.0,0.0,0.0,1.0,0.0,0.0,0.0,1.0,0.420180439949,-0.0506871938705,-0.200520113111,1.21846967915e-07,0.0,0.0,0.0,1.21846967915e-07,0.0,0.0,0.0,1.21846967915e-07,-0.1765197,0.8433719,10.3165958,9e-08,0.0,0.0,0.0,9e-08,0.0,0.0,0.0,9e-08
1538770038079716608,2867,1538770038079345504,base_link,-0.190369184435,-0.117845383662,-0.44221577708,-0.868514390018,1.0,0.0,0.0,0.0,1.0,0.0,0.0,0.0,1.0,0.415971189737,-0.0731032118201,-0.391805827618,1.21846967915e-07,0.0,0.0,0.0,1.21846967915e-07,0.0,0.0,0.0,1.21846967915e-07,-0.196133,0.8433719,9.9635564,9e-08,0.0,0.0,0.0,9e-08,0.0,0.0,0.0,9e-08
1538770038452816928,2868,1538770038452353216,base_link,-0.256221261051,-0.141308118769,-0.360258128243,-0.885774667729,1.0,0.0,0.0,0.0,1.0,0.0,0.0,0.0,1.0,0.252368152142,-0.210858166218,-0.372648656368,1.21846967915e-07,0.0,0.0,0.0,1.21846967915e-07,0.0,0.0,0.0,1.21846967915e-07,-0.196133,0.77472535,10.002783,9e-08,0.0,0.0,0.0,9e-08,0.0,0.0,0.0,9e-08
1538770038847948192,2869,1538770038846738272,base_link,-0.307310319975,-0.132583570389,-0.271262720196,-0.90244030314,1.0,0.0,0.0,0.0,1.0,0.0,0.0,0.0,1.0,0.26326879859,-0.306851059198,-0.375001817942,1.21846967915e-07,0.0,0.0,0.0,1.21846967915e-07,0.0,0.0,0.0,1.21846967915e-07,-0.04903325,0.57859235,10.591182,9e-08,0.0,0.0,0.0,9e-08,0.0,0.0,0.0,9e-08
1538770039147052896,2870,1538770039146477184,base_link,-0.337316743531,-0.108212879839,-0.195034067876,-0.914586846362,1.0,0.0,0.0,0.0,1.0,0.0,0.0,0.0,1.0,0.0369050428271,-0.363683789968,-0.377778947353,1.21846967915e-07,0.0,0.0,0.0,1.21846967915e-07,0.0,0.0,0.0,1.21846967915e-07,0.0784532,0.7453054,10.8069283,9e-08,0.0,0.0,0.0,9e-08,0.0,0.0,0.0,9e-08
1538770039576822624,2871,1538770039576455712,base_link,-0.326338259548,-0.0585281176131,-0.0893300148889,-0.939200696467,1.0,0.0,0.0,0.0,1.0,0.0,0.0,0.0,1.0,-0.222828507423,-0.399267524481,-0.452129423618,1.21846967915e-07,0.0,0.0,0.0,1.21846967915e-07,0.0,0.0,0.0,1.21846967915e-07,0.59820565,0.7453054,13.34685065,9e-08,0.0,0.0,0.0,9e-08,0.0,0.0,0.0,9e-08
1538770039988077568,2872,1538770039987738560,base_link,-0.306744810624,-0.0163402822185,0.0223422694588,-0.951389215478,1.0,0.0,0.0,0.0,1.0,0.0,0.0,0.0,1.0,-0.110205024481,-0.394601523876,-0.445525795221,1.21846967915e-07,0.0,0.0,0.0,1.21846967915e-07,0.0,0.0,0.0,1.21846967915e-07,0.4314926,0.65704555,13.5724036,9e-08,0.0,0.0,0.0,9e-08,0.0,0.0,0.0,9e-08
1538770040410234816,2873,1538770040408264288,base_link,-0.300200216952,0.0313726340539,0.13820695421,-0.943289152584,1.0,0.0,0.0,0.0,1.0,0.0,0.0,0.0,1.0,-0.0975478067994,-0.402739673853,-0.44142383337,1.21846967915e-07,0.0,0.0,0.0,1.21846967915e-07,0.0,0.0,0.0,1.21846967915e-07,0.34323275,0.7060788,13.15071765,9e-08,0.0,0.0,0.0,9e-08,0.0,0.0,0.0,9e-08
1538770040751454912,2874,1538770040750967392,base_link,-0.29758402073,0.0799927453103,0.219151548517,-0.92575240215,1.0,0.0,0.0,0.0,1.0,0.0,0.0,0.0,1.0,0.104831680655,-0.379759073257,-0.330214887857,1.21846967915e-07,0.0,0.0,0.0,1.21846967915e-07,0.0,0.0,0.0,1.21846967915e-07,0.26477955,0.4903325,13.66066345,9e-08,0.0,0.0,0.0,9e-08,0.0,0.0,0.0,9e-08
1538770041032367616,2875,1538770041031792640,base_link,-0.296942527713,0.124461993192,0.278337299927,-0.904910324262,1.0,0.0,0.0,0.0,1.0,0.0,0.0,0.0,1.0,-8.85715708137e-05,-0.464621424675,-0.333306282759,1.21846967915e-07,0.0,0.0,0.0,1.21846967915e-07,0.0,0.0,0.0,1.21846967915e-07,0.196133,0.7060788,13.46453045,9e-08,0.0,0.0,0.0,9e-08,0.0,0.0,0.0,9e-08
1538770041487353920,2876,1538770041487092192,base_link,-0.243555649381,0.176963321928,0.385777508021,-0.872089641408,1.0,0.0,0.0,0.0,1.0,0.0,0.0,0.0,1.0,-0.289147436619,-0.349752008915,-0.390987306833,1.21846967915e-07,0.0,0.0,0.0,1.21846967915e-07,0.0,0.0,0.0,1.21846967915e-07,0.83356525,0.59820565,14.01370285,9e-08,0.0,0.0,0.0,9e-08,0.0,0.0,0.0,9e-08
1538770041959045312,2877,1538770041958718272,base_link,-0.168516851716,0.122373489911,0.572006649681,-0.793369518179,1.0,0.0,0.0,0.0,1.0,0.0,0.0,0.0,1.0,-0.0138195082545,0.095638602972,-0.799591183662,1.21846967915e-07,0.0,0.0,0.0,1.21846967915e-07,0.0,0.0,0.0,1.21846967915e-07,0.44129925,-0.46091255,10.1596894,9e-08,0.0,0.0,0.0,9e-08,0.0,0.0,0.0,9e-08
