%time,field.header.seq,field.header.stamp,field.header.frame_id,field.orientation.x,field.orientation.y,field.orientation.z,field.orientation.w,field.orientation_covariance0,field.orientation_covariance1,field.orientation_covariance2,field.orientation_covariance3,field.orientation_covariance4,field.orientation_covariance5,field.orientation_covariance6,field.orientation_covariance7,field.orientation_covariance8,field.angular_velocity.x,field.angular_velocity.y,field.angular_velocity.z,field.angular_velocity_covariance0,field.angular_velocity_covariance1,field.angular_velocity_covariance2,field.angular_velocity_covariance3,field.angular_velocity_covariance4,field.angular_velocity_covariance5,field.angular_velocity_covariance6,field.angular_velocity_covariance7,field.angular_velocity_covariance8,field.linear_acceleration.x,field.linear_acceleration.y,field.linear_acceleration.z,field.linear_acceleration_covariance0,field.linear_acceleration_covariance1,field.linear_acceleration_covariance2,field.linear_acceleration_covariance3,field.linear_acceleration_covariance4,field.linear_acceleration_covariance5,field.linear_acceleration_covariance6,field.linear_acceleration_covariance7,field.linear_acceleration_covariance8
1538767917830059527,1035,1538767917827744647,base_link,-0.0460468063987,0.263022233559,-0.962370130966,-0.050425462793,1.0,0.0,0.0,0.0,1.0,0.0,0.0,0.0,1.0,0.581272780895,-0.0846121758223,0.259894758463,1.21846967915e-07,0.0,0.0,0.0,1.21846967915e-07,0.0,0.0,0.0,1.21846967915e-07,0.3530394,-0.9022118,9.07115125,9e-08,0.0,0.0,0.0,9e-08,0.0,0.0,0.0,9e-08
1538767918321841223,1036,1538767918321553031,base_link,-0.0359734937733,-0.0263938991102,-0.99899811544,0.00346917611122,1.0,0.0,0.0,0.0,1.0,0.0,0.0,0.0,1.0,1.07383811474,0.0909585431218,0.0605394132435,1.21846967915e-07,0.0,0.0,0.0,1.21846967915e-07,0.0,0.0,0.0,1.21846967915e-07,-1.2552512,0.588399,8.2768126,9e-08,0.0,0.0,0.0,9e-08,0.0,0.0,0.0,9e-08
1538767918664381671,1037,1538767918663865927,base_link,-0.0191281483497,-0.178242195796,-0.983777237537,-0.00679562228794,1.0,0.0,0.0,0.0,1.0,0.0,0.0,0.0,1.0,0.614236235619,0.0861809551716,-0.167258650064,1.21846967915e-07,0.0,0.0,0.0,1.21846967915e-07,0.0,0.0,0.0,1.21846967915e-07,-1.22583125,0.392266,8.3944924,9e-08,0.0,0.0,0.0,9e-08,0.0,0.0,0.0,9e-08
1538767919108367847,1038,1538767919108000263,base_link,0.00248741533929,-0.308849215617,-0.950135267077,-0.0429994073736,1.0,0.0,0.0,0.0,1.0,0.0,0.0,0.0,1.0,0.409346818924,0.030310023576,-0.224598199129,1.21846967915e-07,0.0,0.0,0.0,1.21846967915e-07,0.0,0.0,0.0,1.21846967915e-07,-1.1179581,0.51975245,8.433719,9e-08,0.0,0.0,0.0,9e-08,0.0,0.0,0.0,9e-08
1538767919488293927,1039,1538767919487649671,base_link,0.0166228076545,-0.349649394725,-0.933213641868,-0.0811250988642,1.0,0.0,0.0,0.0,1.0,0.0,0.0,0.0,1.0,0.236311987042,-0.0156233292073,-0.24187964201,1.21846967915e-07,0.0,0.0,0.0,1.21846967915e-07,0.0,0.0,0.0,1.21846967915e-07,-1.1964113,0.46091255,7.34518085,9e-08,0.0,0.0,0.0,9e-08,0.0,0.0,0.0,9e-08
1538767919903322727,1040,1538767919902827431,base_link,0.0240980609441,-0.364528708525,-0.921111416948,-0.134505991272,1.0,0.0,0.0,0.0,1.0,0.0,0.0,0.0,1.0,0.0291774850339,-0.0645141974092,-0.307175010443,1.21846967915e-07,0.0,0.0,0.0,1.21846967915e-07,0.0,0.0,0.0,1.21846967915e-07,-1.14737805,0.8237586,8.58081875,9e-08,0.0,0.0,0.0,9e-08,0.0,0.0,0.0,9e-08
1538767920329166375,1041,1538767920328810567,base_link,0.0499934980643,-0.178702599962,-0.967405048919,-0.172318026463,1.0,0.0,0.0,0.0,1.0,0.0,0.0,0.0,1.0,-1.86713075638,-0.000546429306269,-0.104529976845,1.21846967915e-07,0.0,0.0,0.0,1.21846967915e-07,0.0,0.0,0.0,1.21846967915e-07,-1.22583125,1.08853815,12.2975391,9e-08,0.0,0.0,0.0,9e-08,0.0,0.0,0.0,9e-08
1538767920841958823,1042,1538767920841627719,base_link,0.115793022276,0.122235250883,-0.970143588588,-0.174562129215,1.0,0.0,0.0,0.0,1.0,0.0,0.0,0.0,1.0,-0.610817432404,-0.0028857504949,0.00525029096752,1.21846967915e-07,0.0,0.0,0.0,1.21846967915e-07,0.0,0.0,0.0,1.21846967915e-07,-1.38273765,-0.06864655,8.3944924,9e-08,0.0,0.0,0.0,9e-08,0.0,0.0,0.0,9e-08
1538767921327819111,1043,1538767921327597703,base_link,0.126066278009,0.239297172077,-0.955852315189,-0.11484993919,1.0,0.0,0.0,0.0,1.0,0.0,0.0,0.0,1.0,-0.453944385052,-0.131211340427,0.242085784674,1.21846967915e-07,0.0,0.0,0.0,1.21846967915e-07,0.0,0.0,0.0,1.21846967915e-07,-1.3337044,0.1176798,9.1986377,9e-08,0.0,0.0,0.0,9e-08,0.0,0.0,0.0,9e-08
1538767921631530087,1044,1538767921631281575,base_link,0.117931241732,0.277721579604,-0.950852983982,-0.0695812424309,1.0,0.0,0.0,0.0,1.0,0.0,0.0,0.0,1.0,-0.170626536012,-0.183159023523,0.25257486105,1.21846967915e-07,0.0,0.0,0.0,1.21846967915e-07,0.0,0.0,0.0,1.21846967915e-07,-1.2944778,-0.06864655,10.6304086,9e-08,0.0,0.0,0.0,9e-08,0.0,0.0,0.0,9e-08
1538767922027390791,1045,1538767922026827367,base_link,0.0875944829176,0.310862590689,-0.946408380733,0.00168319693635,1.0,0.0,0.0,0.0,1.0,0.0,0.0,0.0,1.0,-0.169139206409,-0.310518622398,0.287850052118,1.21846967915e-07,0.0,0.0,0.0,1.21846967915e-07,0.0,0.0,0.0,1.21846967915e-07,-0.9414384,0.2549729,13.81756985,9e-08,0.0,0.0,0.0,9e-08,0.0,0.0,0.0,9e-08
1538767922385347719,1046,1538767922382434471,base_link,0.0491049237169,0.329516438724,-0.940409548017,0.0680992296234,1.0,0.0,0.0,0.0,1.0,0.0,0.0,0.0,1.0,-0.210079520941,-0.347907662392,0.288636267185,1.21846967915e-07,0.0,0.0,0.0,1.21846967915e-07,0.0,0.0,0.0,1.21846967915e-07,-0.48052585,0.4314926,17.9069429,9e-08,0.0,0.0,0.0,9e-08,0.0,0.0,0.0,9e-08
1538767922729144647,1047,1538767922728813831,base_link,0.0094542393754,0.34635866838,-0.929573896212,0.125851744831,1.0,0.0,0.0,0.0,1.0,0.0,0.0,0.0,1.0,-0.138739898801,-0.331385225058,0.230114385486,1.21846967915e-07,0.0,0.0,0.0,1.21846967915e-07,0.0,0.0,0.0,1.21846967915e-07,-0.588399,-0.0588399,14.03331615,9e-08,0.0,0.0,0.0,9e-08,0.0,0.0,0.0,9e-08
1538767923049930279,1048,1538767923049714727,base_link,-0.0248912156502,0.33461019588,-0.923007063364,0.188346502958,1.0,0.0,0.0,0.0,1.0,0.0,0.0,0.0,1.0,0.00920069590211,-0.357920974493,0.338724911213,1.21846967915e-07,0.0,0.0,0.0,1.21846967915e-07,0.0,0.0,0.0,1.21846967915e-07,-0.392266,-0.22555295,14.91591465,9e-08,0.0,0.0,0.0,9e-08,0.0,0.0,0.0,9e-08
1538767923510875719,1049,1538767923510430631,base_link,-0.074383465136,0.329239468467,-0.896332290462,0.287501126247,1.0,0.0,0.0,0.0,1.0,0.0,0.0,0.0,1.0,-0.0985816568136,-0.371388226748,0.31440538168,1.21846967915e-07,0.0,0.0,0.0,1.21846967915e-07,0.0,0.0,0.0,1.21846967915e-07,-0.12748645,0.4511059,15.68083335,9e-08,0.0,0.0,0.0,9e-08,0.0,0.0,0.0,9e-08
1538767923984388295,1050,1538767923982005255,base_link,-0.137282231293,0.334056595483,-0.855099190369,0.37197466932,1.0,0.0,0.0,0.0,1.0,0.0,0.0,0.0,1.0,0.110647425056,-0.392135798931,0.272389143705,1.21846967915e-07,0.0,0.0,0.0,1.21846967915e-07,0.0,0.0,0.0,1.21846967915e-07,0.1372931,0.0392266,15.77889985,9e-08,0.0,0.0,0.0,9e-08,0.0,0.0,0.0,9e-08
1538767924397029959,1051,1538767924396753767,base_link,-0.178386860729,0.307480750173,-0.815139593453,0.457363268505,1.0,0.0,0.0,0.0,1.0,0.0,0.0,0.0,1.0,-0.164621055126,-0.350684791803,0.274527162313,1.21846967915e-07,0.0,0.0,0.0,1.21846967915e-07,0.0,0.0,0.0,1.21846967915e-07,0.18632635,0.65704555,15.97503285,9e-08,0.0,0.0,0.0,9e-08,0.0,0.0,0.0,9e-08
1538767924777213799,1052,1538767924776689223,base_link,-0.222542096467,0.298162323726,-0.778497505932,0.505485783447,1.0,0.0,0.0,0.0,1.0,0.0,0.0,0.0,1.0,-0.00466395914555,-0.346865534782,0.268187880516,1.21846967915e-07,0.0,0.0,0.0,1.21846967915e-07,0.0,0.0,0.0,1.21846967915e-07,0.0392266,-0.1765197,14.513842,9e-08,0.0,0.0,0.0,9e-08,0.0,0.0,0.0,9e-08
1538767925226458055,1053,1538767925226185991,base_link,-0.256586837025,0.275308894477,-0.708035447303,0.597539967742,1.0,0.0,0.0,0.0,1.0,0.0,0.0,0.0,1.0,0.0468169525266,-0.348085701466,0.435062199831,1.21846967915e-07,0.0,0.0,0.0,1.21846967915e-07,0.0,0.0,0.0,1.21846967915e-07,0.28439285,0.32361945,15.2591474,9e-08,0.0,0.0,0.0,9e-08,0.0,0.0,0.0,9e-08
1538767925555948935,1054,1538767925555447015,base_link,-0.28222513745,0.261807095153,-0.659700020674,0.645447053941,1.0,0.0,0.0,0.0,1.0,0.0,0.0,0.0,1.0,-0.0389643460512,-0.30534273386,0.223359033465,1.21846967915e-07,0.0,0.0,0.0,1.21846967915e-07,0.0,0.0,0.0,1.21846967915e-07,0.1569064,0.22555295,14.36674225,9e-08,0.0,0.0,0.0,9e-08,0.0,0.0,0.0,9e-08
1538767925812553607,1055,1538767925812217863,base_link,0.285687092785,-0.23555768651,0.624531344857,-0.68764530147,1.0,0.0,0.0,0.0,1.0,0.0,0.0,0.0,1.0,-0.00425334088504,-0.295721083879,0.420641064644,1.21846967915e-07,0.0,0.0,0.0,1.21846967915e-07,0.0,0.0,0.0,1.21846967915e-07,0.02941995,-0.4314926,13.6704701,9e-08,0.0,0.0,0.0,9e-08,0.0,0.0,0.0,9e-08
1538767926173331335,1056,1538767926172316199,base_link,0.310756624016,-0.228290562662,0.554715735136,-0.737295187033,1.0,0.0,0.0,0.0,1.0,0.0,0.0,0.0,1.0,-0.0295497849584,-0.310046494007,0.323477089405,1.21846967915e-07,0.0,0.0,0.0,1.21846967915e-07,0.0,0.0,0.0,1.21846967915e-07,-0.2745862,0.2941995,12.24850585,9e-08,0.0,0.0,0.0,9e-08,0.0,0.0,0.0,9e-08
1538767926529992519,1057,1538767926529553703,base_link,0.327410603202,-0.199068205276,0.49098805537,-0.782371315964,1.0,0.0,0.0,0.0,1.0,0.0,0.0,0.0,1.0,0.20157083869,-0.318891823292,0.34016263485,1.21846967915e-07,0.0,0.0,0.0,1.21846967915e-07,0.0,0.0,0.0,1.21846967915e-07,0.0,-0.0392266,15.66122005,9e-08,0.0,0.0,0.0,9e-08,0.0,0.0,0.0,9e-08
1538767926809815399,1058,1538767926807831559,base_link,0.337028292699,-0.179793983721,0.433392985218,-0.816245412668,1.0,0.0,0.0,0.0,1.0,0.0,0.0,0.0,1.0,0.000622509047389,-0.315869927406,0.372805774212,1.21846967915e-07,0.0,0.0,0.0,1.21846967915e-07,0.0,0.0,0.0,1.21846967915e-07,-0.3530394,0.30400615,14.9453346,9e-08,0.0,0.0,0.0,9e-08,0.0,0.0,0.0,9e-08
1538767927157470887,1059,1538767927156005031,base_link,0.343845368981,-0.148078181657,0.376528725685,-0.847389717357,1.0,0.0,0.0,0.0,1.0,0.0,0.0,0.0,1.0,0.0727567747235,-0.284083932638,0.204125359654,1.21846967915e-07,0.0,0.0,0.0,1.21846967915e-07,0.0,0.0,0.0,1.21846967915e-07,-0.10787315,0.588399,14.22944915,9e-08,0.0,0.0,0.0,9e-08,0.0,0.0,0.0,9e-08
1538767927426294663,1060,1538767927426059271,base_link,0.339109122609,-0.120597311505,0.348348893888,-0.865513916438,1.0,0.0,0.0,0.0,1.0,0.0,0.0,0.0,1.0,0.0153764663264,-0.208086252213,0.220945686102,1.21846967915e-07,0.0,0.0,0.0,1.21846967915e-07,0.0,0.0,0.0,1.21846967915e-07,-0.2353596,-0.44129925,10.73828175,9e-08,0.0,0.0,0.0,9e-08,0.0,0.0,0.0,9e-08
1538767927780642151,1061,1538767927780203687,base_link,0.329614951463,-0.103354146974,0.282443286291,-0.894928876562,1.0,0.0,0.0,0.0,1.0,0.0,0.0,0.0,1.0,0.0975129082799,-0.24056109786,0.472021669149,1.21846967915e-07,0.0,0.0,0.0,1.21846967915e-07,0.0,0.0,0.0,1.21846967915e-07,-0.44129925,-0.4118793,12.36618565,9e-08,0.0,0.0,0.0,9e-08,0.0,0.0,0.0,9e-08
1538767928182610439,1062,1538767928182317127,base_link,0.364711372029,-0.0971743664136,0.202109770589,-0.903711457412,1.0,0.0,0.0,0.0,1.0,0.0,0.0,0.0,1.0,-0.244042992592,-0.151934221387,0.0679216608405,1.21846967915e-07,0.0,0.0,0.0,1.21846967915e-07,0.0,0.0,0.0,1.21846967915e-07,-0.77472535,1.10815145,10.13026945,9e-08,0.0,0.0,0.0,9e-08,0.0,0.0,0.0,9e-08
1538767928550016231,1063,1538767928549492967,base_link,0.370589159403,-0.0719302940808,0.16172704393,-0.911775230519,1.0,0.0,0.0,0.0,1.0,0.0,0.0,0.0,1.0,0.0779444426298,-0.252031385899,0.351664751768,1.21846967915e-07,0.0,0.0,0.0,1.21846967915e-07,0.0,0.0,0.0,1.21846967915e-07,-0.7453054,-0.6864655,11.75817335,9e-08,0.0,0.0,0.0,9e-08,0.0,0.0,0.0,9e-08
1538767928876723399,1064,1538767928876424167,base_link,0.381557162495,-0.059521868991,0.0861073011679,-0.918399048097,1.0,0.0,0.0,0.0,1.0,0.0,0.0,0.0,1.0,-0.0485984906554,-0.284623235464,0.387126863003,1.21846967915e-07,0.0,0.0,0.0,1.21846967915e-07,0.0,0.0,0.0,1.21846967915e-07,-0.980665,-0.1569064,12.1406327,9e-08,0.0,0.0,0.0,9e-08,0.0,0.0,0.0,9e-08
1538767929447812455,1065,1538767929447509127,base_link,0.352559386502,-0.0285084695197,-0.0212449186463,-0.935113789646,1.0,0.0,0.0,0.0,1.0,0.0,0.0,0.0,1.0,0.112352728844,-0.248478606343,0.344147443771,1.21846967915e-07,0.0,0.0,0.0,1.21846967915e-07,0.0,0.0,0.0,1.21846967915e-07,-0.8629852,0.0980665,12.87613145,9e-08,0.0,0.0,0.0,9e-08,0.0,0.0,0.0,9e-08
1538767929825884167,1066,1538767929825419623,base_link,0.340011457511,-0.00402311050857,-0.101919419502,-0.934873496935,1.0,0.0,0.0,0.0,1.0,0.0,0.0,0.0,1.0,0.12037602067,-0.242946833372,0.295105963945,1.21846967915e-07,0.0,0.0,0.0,1.21846967915e-07,0.0,0.0,0.0,1.21846967915e-07,-0.77472535,0.26477955,12.09159945,9e-08,0.0,0.0,0.0,9e-08,0.0,0.0,0.0,9e-08
1538767930267958119,1067,1538767930266574983,base_link,0.340928403983,0.0293379061375,-0.174515528099,-0.923282969123,1.0,0.0,0.0,0.0,1.0,0.0,0.0,0.0,1.0,-0.447870463133,-0.235858157277,0.282682210207,1.21846967915e-07,0.0,0.0,0.0,1.21846967915e-07,0.0,0.0,0.0,1.21846967915e-07,-0.7453054,0.06864655,12.67999845,9e-08,0.0,0.0,0.0,9e-08,0.0,0.0,0.0,9e-08
1538767930752803335,1068,1538767930752353031,base_link,0.348193820361,0.0615507146978,-0.272616541617,-0.894792039649,1.0,0.0,0.0,0.0,1.0,0.0,0.0,0.0,1.0,0.0915809869766,-0.281638413668,0.415465921164,1.21846967915e-07,0.0,0.0,0.0,1.21846967915e-07,0.0,0.0,0.0,1.21846967915e-07,-0.50013915,0.08825985,14.54326195,9e-08,0.0,0.0,0.0,9e-08,0.0,0.0,0.0,9e-08
1538767931054662055,1069,1538767931052876999,base_link,0.349237329452,0.0781721052943,-0.334259139571,-0.871890610848,1.0,0.0,0.0,0.0,1.0,0.0,0.0,0.0,1.0,-0.340118318796,-0.2871106565,0.316268920898,1.21846967915e-07,0.0,0.0,0.0,1.21846967915e-07,0.0,0.0,0.0,1.21846967915e-07,-0.69627215,0.02941995,12.2386992,9e-08,0.0,0.0,0.0,9e-08,0.0,0.0,0.0,9e-08
1538767931378137127,1070,1538767931377645159,base_link,0.377599632113,0.120252693894,-0.388098081169,-0.832068318608,1.0,0.0,0.0,0.0,1.0,0.0,0.0,0.0,1.0,-0.189268127084,-0.313020855188,0.19912648201,1.21846967915e-07,0.0,0.0,0.0,1.21846967915e-07,0.0,0.0,0.0,1.21846967915e-07,-0.57859235,0.5491724,13.4547238,9e-08,0.0,0.0,0.0,9e-08,0.0,0.0,0.0,9e-08
1538767931791873799,1071,1538767931791509703,base_link,0.36827855216,0.166671693924,-0.452850730463,-0.794680860712,1.0,0.0,0.0,0.0,1.0,0.0,0.0,0.0,1.0,0.117019467056,-0.357448071241,0.318003982306,1.21846967915e-07,0.0,0.0,0.0,1.21846967915e-07,0.0,0.0,0.0,1.21846967915e-07,-0.2745862,-0.4707192,14.5530686,9e-08,0.0,0.0,0.0,9e-08,0.0,0.0,0.0,9e-08
1538767932163224231,1072,1538767932162943815,base_link,0.346786803086,0.194365882969,-0.52946618007,-0.749417360958,1.0,0.0,0.0,0.0,1.0,0.0,0.0,0.0,1.0,-0.118845187128,-0.374086648226,0.42009177804,1.21846967915e-07,0.0,0.0,0.0,1.21846967915e-07,0.0,0.0,0.0,1.21846967915e-07,-0.20593965,-0.28439285,14.71978165,9e-08,0.0,0.0,0.0,9e-08,0.0,0.0,0.0,9e-08
1538767932428542375,1073,1538767932428283207,base_link,0.338806150827,0.227827575195,-0.579364564115,-0.705437233203,1.0,0.0,0.0,0.0,1.0,0.0,0.0,0.0,1.0,0.0258759576827,-0.396059244871,0.268078446388,1.21846967915e-07,0.0,0.0,0.0,1.21846967915e-07,0.0,0.0,0.0,1.21846967915e-07,-0.2157463,-0.24516625,14.60210185,9e-08,0.0,0.0,0.0,9e-08,0.0,0.0,0.0,9e-08
1538767932796778471,1074,1538767932796399783,base_link,0.167847216603,0.14185691676,-0.656971923083,-0.72117391753,1.0,0.0,0.0,0.0,1.0,0.0,0.0,0.0,1.0,1.89946007729,-0.279640734196,0.135321483016,1.21846967915e-07,0.0,0.0,0.0,1.21846967915e-07,0.0,0.0,0.0,1.21846967915e-07,-0.3334261,-0.392266,17.063571,9e-08,0.0,0.0,0.0,9e-08,0.0,0.0,0.0,9e-08
1538767933257087655,1075,1538767933256876391,base_link,-0.0675804148447,-0.0345953860491,-0.705041859798,-0.705090081284,1.0,0.0,0.0,0.0,1.0,0.0,0.0,0.0,1.0,1.16086506844,-0.10539521277,0.0991866290569,1.21846967915e-07,0.0,0.0,0.0,1.21846967915e-07,0.0,0.0,0.0,1.21846967915e-07,-0.97085835,0.392266,14.8080415,9e-08,0.0,0.0,0.0,9e-08,0.0,0.0,0.0,9e-08
1538767933635934887,1076,1538767933635713671,base_link,-0.167409434271,-0.122345771336,-0.688901418844,-0.694564920413,1.0,0.0,0.0,0.0,1.0,0.0,0.0,0.0,1.0,0.52170586586,-0.0454242527485,-0.137043908238,1.21846967915e-07,0.0,0.0,0.0,1.21846967915e-07,0.0,0.0,0.0,1.21846967915e-07,-1.0395049,0.4511059,12.0425662,9e-08,0.0,0.0,0.0,9e-08,0.0,0.0,0.0,9e-08
1538767934003497319,1077,1538767934003111431,base_link,-0.228501632889,-0.180089693658,-0.656881952792,-0.695601039463,1.0,0.0,0.0,0.0,1.0,0.0,0.0,0.0,1.0,0.232911586761,-0.047343172133,-0.143613174558,1.21846967915e-07,0.0,0.0,0.0,1.21846967915e-07,0.0,0.0,0.0,1.21846967915e-07,-1.0395049,0.5295591,11.28745415,9e-08,0.0,0.0,0.0,9e-08,0.0,0.0,0.0,9e-08
1538767934376765799,1078,1538767934376163527,base_link,-0.261509313357,-0.214078245391,-0.621737515245,-0.7065591596,1.0,0.0,0.0,0.0,1.0,0.0,0.0,0.0,1.0,0.216675177217,-0.0531523525715,-0.231234610081,1.21846967915e-07,0.0,0.0,0.0,1.21846967915e-07,0.0,0.0,0.0,1.21846967915e-07,-1.08853815,0.55897905,9.610517,9e-08,0.0,0.0,0.0,9e-08,0.0,0.0,0.0,9e-08
1538767934734804359,1079,1538767934734410599,base_link,-0.278192250205,-0.2378138617,-0.582710870194,-0.725604355601,1.0,0.0,0.0,0.0,1.0,0.0,0.0,0.0,1.0,0.100452840328,-0.0500577203929,-0.263332039118,1.21846967915e-07,0.0,0.0,0.0,1.21846967915e-07,0.0,0.0,0.0,1.21846967915e-07,-0.89240515,0.7453054,7.2765343,9e-08,0.0,0.0,0.0,9e-08,0.0,0.0,0.0,9e-08
1538767935026188679,1080,1538767935025826407,base_link,-0.273077323773,-0.240748650788,-0.549235487281,-0.752202926009,1.0,0.0,0.0,0.0,1.0,0.0,0.0,0.0,1.0,0.0041588563472,-0.061627715826,-0.29224717617,1.21846967915e-07,0.0,0.0,0.0,1.21846967915e-07,0.0,0.0,0.0,1.21846967915e-07,-0.91201845,0.63743225,8.42391235,9e-08,0.0,0.0,0.0,9e-08,0.0,0.0,0.0,9e-08
1538767935356635751,1081,1538767935356080775,base_link,-0.273895483239,-0.244365753619,-0.507287682426,-0.779695998436,1.0,0.0,0.0,0.0,1.0,0.0,0.0,0.0,1.0,0.0137089062482,-0.10273154825,-0.295385867357,1.21846967915e-07,0.0,0.0,0.0,1.21846967915e-07,0.0,0.0,0.0,1.21846967915e-07,-0.784532,0.63743225,9.71839015,9e-08,0.0,0.0,0.0,9e-08,0.0,0.0,0.0,9e-08
1538767935777024711,1082,1538767935776437959,base_link,-0.277514680383,-0.238169616065,-0.448605423097,-0.815483911872,1.0,0.0,0.0,0.0,1.0,0.0,0.0,0.0,1.0,-0.0222812015563,-0.170942679048,-0.282562941313,1.21846967915e-07,0.0,0.0,0.0,1.21846967915e-07,0.0,0.0,0.0,1.21846967915e-07,-0.87279185,0.7649187,9.610517,9e-08,0.0,0.0,0.0,9e-08,0.0,0.0,0.0,9e-08
1538767936179812967,1083,1538767936176857991,base_link,-0.294193816012,-0.220068177607,-0.385478228061,-0.846419831712,1.0,0.0,0.0,0.0,1.0,0.0,0.0,0.0,1.0,0.0874009355903,-0.299410909414,-0.233905270696,1.21846967915e-07,0.0,0.0,0.0,1.21846967915e-07,0.0,0.0,0.0,1.21846967915e-07,-0.8041453,0.51975245,12.77806495,9e-08,0.0,0.0,0.0,9e-08,0.0,0.0,0.0,9e-08
1538767936378800199,1084,1538767936378407719,base_link,-0.304695269819,-0.200725570439,-0.356233841508,-0.860213629331,1.0,0.0,0.0,0.0,1.0,0.0,0.0,0.0,1.0,0.0100878225639,-0.327107220888,-0.224849283695,1.21846967915e-07,0.0,0.0,0.0,1.21846967915e-07,0.0,0.0,0.0,1.21846967915e-07,-0.6668522,0.77472535,14.50403535,9e-08,0.0,0.0,0.0,9e-08,0.0,0.0,0.0,9e-08
1538767936700057127,1085,1538767936699651367,base_link,-0.334255212395,-0.175380413709,-0.299592940146,-0.876218713386,1.0,0.0,0.0,0.0,1.0,0.0,0.0,0.0,1.0,-0.119774654508,-0.323228538036,-0.222074985504,1.21846967915e-07,0.0,0.0,0.0,1.21846967915e-07,0.0,0.0,0.0,1.21846967915e-07,-0.38245935,0.7649187,15.4160538,9e-08,0.0,0.0,0.0,9e-08,0.0,0.0,0.0,9e-08
1538767937036846535,1086,1538767937036577031,base_link,-0.323194827399,-0.134866857855,-0.247484111447,-0.903386765885,1.0,0.0,0.0,0.0,1.0,0.0,0.0,0.0,1.0,-0.0806874930859,-0.28167244792,-0.289173871279,1.21846967915e-07,0.0,0.0,0.0,1.21846967915e-07,0.0,0.0,0.0,1.21846967915e-07,-0.18632635,0.9218251,13.8862164,9e-08,0.0,0.0,0.0,9e-08,0.0,0.0,0.0,9e-08
1538767937450283527,1087,1538767937449128135,base_link,-0.314463324932,-0.0952420149008,-0.164981668692,-0.929958507067,1.0,0.0,0.0,0.0,1.0,0.0,0.0,0.0,1.0,0.195090249181,-0.30557128787,-0.302610635757,1.21846967915e-07,0.0,0.0,0.0,1.21846967915e-07,0.0,0.0,0.0,1.21846967915e-07,-0.4314926,0.2745862,12.6505785,9e-08,0.0,0.0,0.0,9e-08,0.0,0.0,0.0,9e-08
1538767937856952839,1088,1538767937854730471,base_link,-0.338222923778,-0.0478518647678,-0.110029840412,-0.933385711851,1.0,0.0,0.0,0.0,1.0,0.0,0.0,0.0,1.0,0.0573379099369,-0.27864959836,-0.171474933624,1.21846967915e-07,0.0,0.0,0.0,1.21846967915e-07,0.0,0.0,0.0,1.21846967915e-07,-0.32361945,0.87279185,13.3566573,9e-08,0.0,0.0,0.0,9e-08,0.0,0.0,0.0,9e-08
1538767938253873863,1089,1538767938253528839,base_link,-0.342009626121,-0.0122640470899,-0.0387588386307,-0.93881668137,1.0,0.0,0.0,0.0,1.0,0.0,0.0,0.0,1.0,0.0684682279825,-0.257099330425,-0.325053960085,1.21846967915e-07,0.0,0.0,0.0,1.21846967915e-07,0.0,0.0,0.0,1.21846967915e-07,-0.24516625,1.0591182,12.3956056,9e-08,0.0,0.0,0.0,9e-08,0.0,0.0,0.0,9e-08
1538767938645155047,1090,1538767938644940039,base_link,-0.350763905165,0.0118823237496,0.0318862926396,-0.935845477393,1.0,0.0,0.0,0.0,1.0,0.0,0.0,0.0,1.0,0.136125311255,-0.258638948202,-0.307450056076,1.21846967915e-07,0.0,0.0,0.0,1.21846967915e-07,0.0,0.0,0.0,1.21846967915e-07,-0.20593965,0.784532,12.24850585,9e-08,0.0,0.0,0.0,9e-08,0.0,0.0,0.0,9e-08
1538767939070419751,1091,1538767939070168423,base_link,-0.363104972801,0.0393531809395,0.118435300833,-0.92335214593,1.0,0.0,0.0,0.0,1.0,0.0,0.0,0.0,1.0,-0.019913373515,-0.253876715899,-0.285817295313,1.21846967915e-07,0.0,0.0,0.0,1.21846967915e-07,0.0,0.0,0.0,1.21846967915e-07,0.0,0.26477955,14.5726819,9e-08,0.0,0.0,0.0,9e-08,0.0,0.0,0.0,9e-08
1538767939436428007,1092,1538767939426125671,base_link,-0.378210484166,0.0749265763534,0.170912341525,-0.906714844555,1.0,0.0,0.0,0.0,1.0,0.0,0.0,0.0,1.0,0.0379584357142,-0.27367067337,-0.28418636322,1.21846967915e-07,0.0,0.0,0.0,1.21846967915e-07,0.0,0.0,0.0,1.21846967915e-07,-0.0196133,0.8825985,12.9251647,9e-08,0.0,0.0,0.0,9e-08,0.0,0.0,0.0,9e-08
1538767939860222183,1093,1538767939859958407,base_link,-0.363644587089,0.0990512103025,0.257719204208,-0.889681001146,1.0,0.0,0.0,0.0,1.0,0.0,0.0,0.0,1.0,0.0154491383582,-0.262850821018,-0.383298099041,1.21846967915e-07,0.0,0.0,0.0,1.21846967915e-07,0.0,0.0,0.0,1.21846967915e-07,0.2549729,0.5491724,12.67999845,9e-08,0.0,0.0,0.0,9e-08,0.0,0.0,0.0,9e-08
1538767940112233991,1094,1538767940111766695,base_link,-0.363394024349,0.121212065801,0.302498415332,-0.872781259476,1.0,0.0,0.0,0.0,1.0,0.0,0.0,0.0,1.0,0.0344669669867,-0.337184876204,-0.236815050244,1.21846967915e-07,0.0,0.0,0.0,1.21846967915e-07,0.0,0.0,0.0,1.21846967915e-07,0.2745862,0.4118793,13.69989005,9e-08,0.0,0.0,0.0,9e-08,0.0,0.0,0.0,9e-08
1538767940582765831,1095,1538767940582129863,base_link,-0.346170643537,0.177150009498,0.376173596994,-0.840997731634,1.0,0.0,0.0,0.0,1.0,0.0,0.0,0.0,1.0,0.0789927616715,-0.304628044367,-0.258763492107,1.21846967915e-07,0.0,0.0,0.0,1.21846967915e-07,0.0,0.0,0.0,1.21846967915e-07,0.2549729,1.14737805,16.4947853,9e-08,0.0,0.0,0.0,9e-08,0.0,0.0,0.0,9e-08
1538767940959810311,1096,1538767940959342471,base_link,-0.337181357255,0.199111902268,0.457963663673,-0.798080488078,1.0,0.0,0.0,0.0,1.0,0.0,0.0,0.0,1.0,-0.0145058259368,-0.29277446866,-0.443503260612,1.21846967915e-07,0.0,0.0,0.0,1.21846967915e-07,0.0,0.0,0.0,1.21846967915e-07,0.2353596,0.97085835,12.4740588,9e-08,0.0,0.0,0.0,9e-08,0.0,0.0,0.0,9e-08
1538767941290596167,1097,1538767941290333639,base_link,-0.320171631468,0.21783890099,0.525766097439,-0.757368041577,1.0,0.0,0.0,0.0,1.0,0.0,0.0,0.0,1.0,-0.0163924824446,-0.307025551796,-0.302144050598,1.21846967915e-07,0.0,0.0,0.0,1.21846967915e-07,0.0,0.0,0.0,1.21846967915e-07,0.196133,0.51975245,10.97364135,9e-08,0.0,0.0,0.0,9e-08,0.0,0.0,0.0,9e-08
1538767941632528199,1098,1538767941632245671,base_link,-0.302063040942,0.241754120855,0.574810073372,-0.721045244001,1.0,0.0,0.0,0.0,1.0,0.0,0.0,0.0,1.0,-0.0352884680033,-0.324801921844,-0.298070788383,1.21846967915e-07,0.0,0.0,0.0,1.21846967915e-07,0.0,0.0,0.0,1.21846967915e-07,0.26477955,0.7453054,13.50375705,9e-08,0.0,0.0,0.0,9e-08,0.0,0.0,0.0,9e-08
1538767941861202343,1099,1538767941858795783,base_link,-0.284301660167,0.258018477822,0.612531260603,-0.69094463303,1.0,0.0,0.0,0.0,1.0,0.0,0.0,0.0,1.0,-0.118205696344,-0.315534293652,-0.331538259983,1.21846967915e-07,0.0,0.0,0.0,1.21846967915e-07,0.0,0.0,0.0,1.21846967915e-07,0.2157463,1.24544455,12.85651815,9e-08,0.0,0.0,0.0,9e-08,0.0,0.0,0.0,9e-08
1538767942231876231,1100,1538767942231366535,base_link,0.246188016473,-0.270756679652,-0.675544207232,0.640095543684,1.0,0.0,0.0,0.0,1.0,0.0,0.0,0.0,1.0,0.0730515271425,-0.363879621029,-0.162118166685,1.21846967915e-07,0.0,0.0,0.0,1.21846967915e-07,0.0,0.0,0.0,1.21846967915e-07,0.34323275,-0.02941995,15.38663385,9e-08,0.0,0.0,0.0,9e-08,0.0,0.0,0.0,9e-08
1538767942537013799,1101,1538767942536109127,base_link,0.186550368081,-0.268911262831,-0.712169833015,0.62104735877,1.0,0.0,0.0,0.0,1.0,0.0,0.0,0.0,1.0,-0.257476598024,-0.272574365139,-0.182681486011,1.21846967915e-07,0.0,0.0,0.0,1.21846967915e-07,0.0,0.0,0.0,1.21846967915e-07,0.30400615,1.1179581,16.7497582,9e-08,0.0,0.0,0.0,9e-08,0.0,0.0,0.0,9e-08
1538767942871829095,1102,1538767942871541447,base_link,0.173029266137,-0.279406264775,-0.749812975393,0.57425910023,1.0,0.0,0.0,0.0,1.0,0.0,0.0,0.0,1.0,0.131257668138,-0.180930957198,-0.317756742239,1.21846967915e-07,0.0,0.0,0.0,1.21846967915e-07,0.0,0.0,0.0,1.21846967915e-07,-0.3726527,0.6472389,12.52309205,9e-08,0.0,0.0,0.0,9e-08,0.0,0.0,0.0,9e-08
1538767943269681607,1103,1538767943268852743,base_link,0.171029564973,-0.310637943277,-0.777388935482,0.519537678221,1.0,0.0,0.0,0.0,1.0,0.0,0.0,0.0,1.0,0.00458981655538,-0.188100114465,-0.231406331062,1.21846967915e-07,0.0,0.0,0.0,1.21846967915e-07,0.0,0.0,0.0,1.21846967915e-07,-0.40207265,0.73549875,10.198916,9e-08,0.0,0.0,0.0,9e-08,0.0,0.0,0.0,9e-08
1538767943670691623,1104,1538767943670079431,base_link,0.147769075352,-0.307816358349,-0.81247585333,0.472542461222,1.0,0.0,0.0,0.0,1.0,0.0,0.0,0.0,1.0,-0.295551389456,-0.167309775949,-0.26348605752,1.21846967915e-07,0.0,0.0,0.0,1.21846967915e-07,0.0,0.0,0.0,1.21846967915e-07,-0.3334261,0.8433719,11.4737805,9e-08,0.0,0.0,0.0,9e-08,0.0,0.0,0.0,9e-08
1538767944092691271,1105,1538767944092355495,base_link,0.111253453671,-0.259720432315,-0.861708555305,0.421457390254,1.0,0.0,0.0,0.0,1.0,0.0,0.0,0.0,1.0,-0.38265478611,-0.0849703773856,-0.260411739349,1.21846967915e-07,0.0,0.0,0.0,1.21846967915e-07,0.0,0.0,0.0,1.21846967915e-07,-0.48052585,0.7256921,11.18938765,9e-08,0.0,0.0,0.0,9e-08,0.0,0.0,0.0,9e-08
1538767944553143783,1106,1538767944552484007,base_link,0.0780884095004,-0.185913215421,-0.901761564046,0.382314737152,1.0,0.0,0.0,0.0,1.0,0.0,0.0,0.0,1.0,-0.414049506187,-0.0220195539296,-0.188464850187,1.21846967915e-07,0.0,0.0,0.0,1.21846967915e-07,0.0,0.0,0.0,1.21846967915e-07,-0.6472389,0.6864655,9.91452315,9e-08,0.0,0.0,0.0,9e-08,0.0,0.0,0.0,9e-08
1538767944932638247,1107,1538767944931417159,base_link,0.0489213817172,-0.105870884339,-0.925347194747,0.360736224177,1.0,0.0,0.0,0.0,1.0,0.0,0.0,0.0,1.0,-0.461369633675,-0.0066320230253,-0.111607149243,1.21846967915e-07,0.0,0.0,0.0,1.21846967915e-07,0.0,0.0,0.0,1.21846967915e-07,-0.784532,0.50013915,9.01231135,9e-08,0.0,0.0,0.0,9e-08,0.0,0.0,0.0,9e-08
1538767945286762535,1108,1538767945284354599,base_link,0.0262489340938,-0.0340427691829,-0.935320705093,0.351179814269,1.0,0.0,0.0,0.0,1.0,0.0,0.0,0.0,1.0,-0.308652102947,0.0108791384846,-0.00531664816663,1.21846967915e-07,0.0,0.0,0.0,1.21846967915e-07,0.0,0.0,0.0,1.21846967915e-07,-0.65704555,0.14709975,9.9047165,9e-08,0.0,0.0,0.0,9e-08,0.0,0.0,0.0,9e-08
1538767945684920519,1109,1538767945682277319,base_link,0.00643605241575,0.0376904292542,-0.934955064728,0.352699639512,1.0,0.0,0.0,0.0,1.0,0.0,0.0,0.0,1.0,-0.38161200285,0.0454076565802,-0.0169294346124,1.21846967915e-07,0.0,0.0,0.0,1.21846967915e-07,0.0,0.0,0.0,1.21846967915e-07,-0.5687857,0.5687857,10.03220295,9e-08,0.0,0.0,0.0,9e-08,0.0,0.0,0.0,9e-08
1538767946062041959,1110,1538767946061819335,base_link,-0.0016323044813,0.0837825417413,-0.931879754654,0.3529560088,1.0,0.0,0.0,0.0,1.0,0.0,0.0,0.0,1.0,-0.303822726011,0.0367844700813,0.0891618803144,1.21846967915e-07,0.0,0.0,0.0,1.21846967915e-07,0.0,0.0,0.0,1.21846967915e-07,-0.77472535,-0.00980665,9.32612415,9e-08,0.0,0.0,0.0,9e-08,0.0,0.0,0.0,9e-08
1538767946429239143,1111,1538767946428873991,base_link,-0.00554328242729,0.116376536936,-0.918817401967,0.377094624084,1.0,0.0,0.0,0.0,1.0,0.0,0.0,0.0,1.0,-0.098611317575,0.0207432694733,0.151949211955,1.21846967915e-07,0.0,0.0,0.0,1.21846967915e-07,0.0,0.0,0.0,1.21846967915e-07,-0.7453054,0.40207265,8.38468575,9e-08,0.0,0.0,0.0,9e-08,0.0,0.0,0.0,9e-08
1538767946804751527,1112,1538767946804367751,base_link,0.000588959477986,0.123063974356,-0.913069461647,0.388791807463,1.0,0.0,0.0,0.0,1.0,0.0,0.0,0.0,1.0,0.102063089609,-0.0150535367429,0.0167477726936,1.21846967915e-07,0.0,0.0,0.0,1.21846967915e-07,0.0,0.0,0.0,1.21846967915e-07,-0.71588545,0.50013915,7.8257067,9e-08,0.0,0.0,0.0,9e-08,0.0,0.0,0.0,9e-08
1538767947239053703,1113,1538767947238690311,base_link,-0.0165817359164,0.144919676806,-0.902152367807,0.406010392192,1.0,0.0,0.0,0.0,1.0,0.0,0.0,0.0,1.0,-0.281328648329,-0.0428236760199,0.112358018756,1.21846967915e-07,0.0,0.0,0.0,1.21846967915e-07,0.0,0.0,0.0,1.21846967915e-07,-0.50013915,0.1372931,8.65927195,9e-08,0.0,0.0,0.0,9e-08,0.0,0.0,0.0,9e-08
1538767947643993959,1114,1538767947643626983,base_link,-0.00785114221561,0.108326050266,-0.89702911253,0.428418717698,1.0,0.0,0.0,0.0,1.0,0.0,0.0,0.0,1.0,0.519566833973,-0.0552889071405,0.179211944342,1.21846967915e-07,0.0,0.0,0.0,1.21846967915e-07,0.0,0.0,0.0,1.21846967915e-07,-0.28439285,-0.04903325,11.50320045,9e-08,0.0,0.0,0.0,9e-08,0.0,0.0,0.0,9e-08
1538767948055902919,1115,1538767948054068583,base_link,0.0278877620425,0.0147768747088,-0.88949366191,0.455856273538,1.0,0.0,0.0,0.0,1.0,0.0,0.0,0.0,1.0,0.338826864958,-0.0652320981026,0.0807652324438,1.21846967915e-07,0.0,0.0,0.0,1.21846967915e-07,0.0,0.0,0.0,1.21846967915e-07,-0.28439285,0.51975245,11.79739995,9e-08,0.0,0.0,0.0,9e-08,0.0,0.0,0.0,9e-08
1538767948324261383,1116,1538767948323972743,base_link,0.0480694129213,-0.0386359591498,-0.888219612918,0.455260928951,1.0,0.0,0.0,0.0,1.0,0.0,0.0,0.0,1.0,0.369455903769,-0.0425560101867,-0.0334109999239,1.21846967915e-07,0.0,0.0,0.0,1.21846967915e-07,0.0,0.0,0.0,1.21846967915e-07,-0.20593965,0.67665885,10.69905515,9e-08,0.0,0.0,0.0,9e-08,0.0,0.0,0.0,9e-08
1538767948733375335,1117,1538767948733125703,base_link,0.0695579990978,-0.102267666351,-0.894246446672,0.430146837481,1.0,0.0,0.0,0.0,1.0,0.0,0.0,0.0,1.0,0.388710439205,-0.0506773814559,-0.135816007853,1.21846967915e-07,0.0,0.0,0.0,1.21846967915e-07,0.0,0.0,0.0,1.21846967915e-07,0.0392266,0.3726527,11.13054775,9e-08,0.0,0.0,0.0,9e-08,0.0,0.0,0.0,9e-08
1538767949060629319,1118,1538767949060312615,base_link,0.0852456601546,-0.161906845493,-0.893799078904,0.409441763084,1.0,0.0,0.0,0.0,1.0,0.0,0.0,0.0,1.0,0.201328262687,-0.111922286451,-0.0699645280838,1.21846967915e-07,0.0,0.0,0.0,1.21846967915e-07,0.0,0.0,0.0,1.21846967915e-07,0.0196133,0.48052585,11.7091401,9e-08,0.0,0.0,0.0,9e-08,0.0,0.0,0.0,9e-08
1538767949616895559,1119,1538767949615197447,base_link,0.0798312636863,-0.214737694027,-0.899012462446,0.373217476104,1.0,0.0,0.0,0.0,1.0,0.0,0.0,0.0,1.0,0.148950442672,-0.162263393402,-0.0861191675067,1.21846967915e-07,0.0,0.0,0.0,1.21846967915e-07,0.0,0.0,0.0,1.21846967915e-07,0.3334261,0.63743225,11.9837263,9e-08,0.0,0.0,0.0,9e-08,0.0,0.0,0.0,9e-08
1538767949932637127,1120,1538767949932413447,base_link,0.0644441633733,-0.232332911556,-0.905004801363,0.350477784639,1.0,0.0,0.0,0.0,1.0,0.0,0.0,0.0,1.0,0.00180001743138,-0.16375747323,-0.167971536517,1.21846967915e-07,0.0,0.0,0.0,1.21846967915e-07,0.0,0.0,0.0,1.21846967915e-07,0.5687857,1.02969825,13.72931,9e-08,0.0,0.0,0.0,9e-08,0.0,0.0,0.0,9e-08
1538767950278602599,1121,1538767950277952999,base_link,0.0547853246124,-0.235572021567,-0.919372831404,0.310254714287,1.0,0.0,0.0,0.0,1.0,0.0,0.0,0.0,1.0,-0.0541081055999,-0.112868264318,-0.256536394358,1.21846967915e-07,0.0,0.0,0.0,1.21846967915e-07,0.0,0.0,0.0,1.21846967915e-07,0.50013915,0.8041453,10.3558224,9e-08,0.0,0.0,0.0,9e-08,0.0,0.0,0.0,9e-08
1538767950758367015,1122,1538767950758099559,base_link,0.0438137473022,-0.248394738481,-0.935964349772,0.245664701164,1.0,0.0,0.0,0.0,1.0,0.0,0.0,0.0,1.0,0.0356637537479,-0.140717744827,-0.187152892351,1.21846967915e-07,0.0,0.0,0.0,1.21846967915e-07,0.0,0.0,0.0,1.21846967915e-07,0.46091255,0.4903325,11.34629405,9e-08,0.0,0.0,0.0,9e-08,0.0,0.0,0.0,9e-08
1538767951091702919,1123,1538767951091481639,base_link,0.031030064489,-0.26444642939,-0.94059320501,0.210688499377,1.0,0.0,0.0,0.0,1.0,0.0,0.0,0.0,1.0,-0.0125956814736,-0.140201091766,-0.191191717982,1.21846967915e-07,0.0,0.0,0.0,1.21846967915e-07,0.0,0.0,0.0,1.21846967915e-07,0.6668522,0.8825985,12.11121275,9e-08,0.0,0.0,0.0,9e-08,0.0,0.0,0.0,9e-08
1538767951587197095,1124,1538767951586616167,base_link,0.0193167384171,-0.272707291746,-0.950921840157,0.144931882474,1.0,0.0,0.0,0.0,1.0,0.0,0.0,0.0,1.0,-0.00741681270301,-0.134572565556,-0.238833144307,1.21846967915e-07,0.0,0.0,0.0,1.21846967915e-07,0.0,0.0,0.0,1.21846967915e-07,0.30400615,0.5687857,9.30651085,9e-08,0.0,0.0,0.0,9e-08,0.0,0.0,0.0,9e-08
1538767951966883431,1125,1538767951966450183,base_link,0.00497587637303,-0.268312035555,-0.958827212224,0.0929207691006,1.0,0.0,0.0,0.0,1.0,0.0,0.0,0.0,1.0,-0.0299002248794,-0.133385166526,-0.272876143456,1.21846967915e-07,0.0,0.0,0.0,1.21846967915e-07,0.0,0.0,0.0,1.21846967915e-07,0.53936575,0.980665,10.50292215,9e-08,0.0,0.0,0.0,9e-08,0.0,0.0,0.0,9e-08
1538767952299634247,1126,1538767952299398887,base_link,-0.00738291488567,-0.276619226391,-0.9599430609,0.0440069993124,1.0,0.0,0.0,0.0,1.0,0.0,0.0,0.0,1.0,0.179843127728,-0.1888602525,-0.203211501241,1.21846967915e-07,0.0,0.0,0.0,1.21846967915e-07,0.0,0.0,0.0,1.21846967915e-07,0.53936575,0.4118793,11.3168741,9e-08,0.0,0.0,0.0,9e-08,0.0,0.0,0.0,9e-08
1538767952747828135,1127,1538767952747554183,base_link,-0.0387948222508,-0.308101112965,-0.950554873546,-0.00375477486691,1.0,0.0,0.0,0.0,1.0,0.0,0.0,0.0,1.0,0.0853815376759,-0.187240108848,-0.195942252874,1.21846967915e-07,0.0,0.0,0.0,1.21846967915e-07,0.0,0.0,0.0,1.21846967915e-07,1.0198916,1.1964113,12.71922505,9e-08,0.0,0.0,0.0,9e-08,0.0,0.0,0.0,9e-08
1538767953066525063,1128,1538767953066302503,base_link,-0.0485383716388,-0.306803925467,-0.949022963,-0.0535797862613,1.0,0.0,0.0,0.0,1.0,0.0,0.0,0.0,1.0,0.00957034155726,-0.143602639437,-0.325140655041,1.21846967915e-07,0.0,0.0,0.0,1.21846967915e-07,0.0,0.0,0.0,1.21846967915e-07,1.01008495,1.0787315,10.2381426,9e-08,0.0,0.0,0.0,9e-08,0.0,0.0,0.0,9e-08
1538767953508483079,1129,1538767953507685703,base_link,-0.0640149193632,-0.333115348867,-0.929937102272,-0.141962108558,1.0,0.0,0.0,0.0,1.0,0.0,0.0,0.0,1.0,0.323503255844,-0.232785120606,-0.383591353893,1.21846967915e-07,0.0,0.0,0.0,1.21846967915e-07,0.0,0.0,0.0,1.21846967915e-07,1.06892485,1.01008495,11.2384209,9e-08,0.0,0.0,0.0,9e-08,0.0,0.0,0.0,9e-08
1538767953775001671,1130,1538767953774595175,base_link,-0.0952844532921,-0.3697310852,-0.903854153591,-0.193047835093,1.0,0.0,0.0,0.0,1.0,0.0,0.0,0.0,1.0,0.226148977876,-0.384540766478,-0.290009319782,1.21846967915e-07,0.0,0.0,0.0,1.21846967915e-07,0.0,0.0,0.0,1.21846967915e-07,1.5886773,1.0002783,15.72005995,9e-08,0.0,0.0,0.0,9e-08,0.0,0.0,0.0,9e-08
1538767954170522663,1131,1538767954169932071,base_link,-0.121302117013,-0.344408396258,-0.888105666611,-0.279171950468,1.0,0.0,0.0,0.0,1.0,0.0,0.0,0.0,1.0,-0.24187412858,-0.224802717566,-0.471575349569,1.21846967915e-07,0.0,0.0,0.0,1.21846967915e-07,0.0,0.0,0.0,1.21846967915e-07,1.83384355,1.8632635,13.24878415,9e-08,0.0,0.0,0.0,9e-08,0.0,0.0,0.0,9e-08
1538767954568224743,1132,1538767954566518151,base_link,-0.139820490726,-0.334396523853,-0.84965626877,-0.383031878763,1.0,0.0,0.0,0.0,1.0,0.0,0.0,0.0,1.0,0.0712556615472,-0.363671898842,-0.418617755175,1.21846967915e-07,0.0,0.0,0.0,1.21846967915e-07,0.0,0.0,0.0,1.21846967915e-07,0.99047165,0.7060788,12.13082605,9e-08,0.0,0.0,0.0,9e-08,0.0,0.0,0.0,9e-08
1538767955065328359,1133,1538767955064976807,base_link,-0.213409421604,-0.324959787079,-0.786375435497,-0.480074192182,1.0,0.0,0.0,0.0,1.0,0.0,0.0,0.0,1.0,0.00438462384045,-0.452272295952,-0.29109865427,1.21846967915e-07,0.0,0.0,0.0,1.21846967915e-07,0.0,0.0,0.0,1.21846967915e-07,1.24544455,1.2552512,15.9652262,9e-08,0.0,0.0,0.0,9e-08,0.0,0.0,0.0,9e-08
1538767955462522695,1134,1538767955462034535,base_link,-0.259459542441,-0.307403451369,-0.729402506072,-0.553313516967,1.0,0.0,0.0,0.0,1.0,0.0,0.0,0.0,1.0,-0.0507900938392,-0.459934264421,-0.416158169508,1.21846967915e-07,0.0,0.0,0.0,1.21846967915e-07,0.0,0.0,0.0,1.21846967915e-07,1.01008495,1.2356379,14.1019627,9e-08,0.0,0.0,0.0,9e-08,0.0,0.0,0.0,9e-08
1538767955802560935,1135,1538767955802053799,base_link,-0.294086103937,-0.266703427645,-0.674587323229,-0.622346035973,1.0,0.0,0.0,0.0,1.0,0.0,0.0,0.0,1.0,0.0194827150553,-0.474623829126,-0.264770954847,1.21846967915e-07,0.0,0.0,0.0,1.21846967915e-07,0.0,0.0,0.0,1.21846967915e-07,1.08853815,0.34323275,19.83885295,9e-08,0.0,0.0,0.0,9e-08,0.0,0.0,0.0,9e-08
1538767956136377063,1136,1538767956135061031,base_link,-0.318068038433,-0.224038906228,-0.641495956517,-0.661152198208,1.0,0.0,0.0,0.0,1.0,0.0,0.0,0.0,1.0,-0.355789899826,-0.323100715876,-0.230181276798,1.21846967915e-07,0.0,0.0,0.0,1.21846967915e-07,0.0,0.0,0.0,1.21846967915e-07,0.79433865,1.67693715,15.7690932,9e-08,0.0,0.0,0.0,9e-08,0.0,0.0,0.0,9e-08
1538767956475156135,1137,1538767956474879367,base_link,-0.31436740024,-0.2167485259,-0.583481157927,-0.716758643151,1.0,0.0,0.0,0.0,1.0,0.0,0.0,0.0,1.0,-0.0394470840693,-0.162975639105,-0.544029355049,1.21846967915e-07,0.0,0.0,0.0,1.21846967915e-07,0.0,0.0,0.0,1.21846967915e-07,0.1372931,1.2552512,7.4334407,9e-08,0.0,0.0,0.0,9e-08,0.0,0.0,0.0,9e-08
1538767956867519591,1138,1538767956867237543,base_link,-0.314922127514,-0.211445877965,-0.508404819942,-0.773071299011,1.0,0.0,0.0,0.0,1.0,0.0,0.0,0.0,1.0,0.132209822536,-0.253320157528,-0.313467085361,1.21846967915e-07,0.0,0.0,0.0,1.21846967915e-07,0.0,0.0,0.0,1.21846967915e-07,-0.02941995,0.18632635,10.79712165,9e-08,0.0,0.0,0.0,9e-08,0.0,0.0,0.0,9e-08
1538767957187279591,1139,1538767957186603239,base_link,-0.333833634172,-0.184673684698,-0.465546436146,-0.79857200719,1.0,0.0,0.0,0.0,1.0,0.0,0.0,0.0,1.0,-0.0581076666713,-0.318262249231,-0.178507804871,1.21846967915e-07,0.0,0.0,0.0,1.21846967915e-07,0.0,0.0,0.0,1.21846967915e-07,-0.20593965,0.51975245,12.07198615,9e-08,0.0,0.0,0.0,9e-08,0.0,0.0,0.0,9e-08
1538767957605756135,1140,1538767957605361671,base_link,-0.328521268402,-0.141110600335,-0.410777177349,-0.838703574125,1.0,0.0,0.0,0.0,1.0,0.0,0.0,0.0,1.0,-0.269500732422,-0.217770531774,-0.349595963955,1.21846967915e-07,0.0,0.0,0.0,1.21846967915e-07,0.0,0.0,0.0,1.21846967915e-07,-0.04903325,1.44157755,14.44519545,9e-08,0.0,0.0,0.0,9e-08,0.0,0.0,0.0,9e-08
1538767958045898407,1141,1538767958044512487,base_link,-0.334381852554,-0.130883291091,-0.334602811322,-0.871263048367,1.0,0.0,0.0,0.0,1.0,0.0,0.0,0.0,1.0,0.118942081928,-0.153146415949,-0.260974526405,1.21846967915e-07,0.0,0.0,0.0,1.21846967915e-07,0.0,0.0,0.0,1.21846967915e-07,-0.26477955,0.10787315,10.5519554,9e-08,0.0,0.0,0.0,9e-08,0.0,0.0,0.0,9e-08
1538767958367681543,1142,1538767958367161415,base_link,-0.35390753912,-0.130452373996,-0.291152243999,-0.879182576424,1.0,0.0,0.0,0.0,1.0,0.0,0.0,0.0,1.0,0.014788239263,-0.129290878773,-0.337055027485,1.21846967915e-07,0.0,0.0,0.0,1.21846967915e-07,0.0,0.0,0.0,1.21846967915e-07,-0.4314926,0.89240515,8.77695175,9e-08,0.0,0.0,0.0,9e-08,0.0,0.0,0.0,9e-08
1538767958859964519,1143,1538767958859538791,base_link,-0.348887045176,-0.124841577651,-0.190792392226,-0.909005320813,1.0,0.0,0.0,0.0,1.0,0.0,0.0,0.0,1.0,-0.102806292474,-0.249513462186,-0.395615041256,1.21846967915e-07,0.0,0.0,0.0,1.21846967915e-07,0.0,0.0,0.0,1.21846967915e-07,-0.588399,0.5687857,10.9442214,9e-08,0.0,0.0,0.0,9e-08,0.0,0.0,0.0,9e-08
1538767959273620359,1144,1538767959272450151,base_link,-0.341692926997,-0.0927610845443,-0.118095052277,-0.927736429953,1.0,0.0,0.0,0.0,1.0,0.0,0.0,0.0,1.0,-0.012575853616,-0.288631588221,-0.243684843183,1.21846967915e-07,0.0,0.0,0.0,1.21846967915e-07,0.0,0.0,0.0,1.21846967915e-07,-0.588399,0.4707192,12.42502555,9e-08,0.0,0.0,0.0,9e-08,0.0,0.0,0.0,9e-08
1538767959748321031,1145,1538767959747540487,base_link,-0.330655742628,-0.0562456911271,-0.0341139832844,-0.941456020344,1.0,0.0,0.0,0.0,1.0,0.0,0.0,0.0,1.0,-0.195990711451,-0.245714768767,-0.333566457033,1.21846967915e-07,0.0,0.0,0.0,1.21846967915e-07,0.0,0.0,0.0,1.21846967915e-07,-0.4511059,0.63743225,12.77806495,9e-08,0.0,0.0,0.0,9e-08,0.0,0.0,0.0,9e-08
1538767960011946183,1146,1538767960011688487,base_link,-0.324682809616,-0.0374008021862,0.0182949948997,-0.944906104487,1.0,0.0,0.0,0.0,1.0,0.0,0.0,0.0,1.0,0.0364480167627,-0.267488032579,-0.326142668724,1.21846967915e-07,0.0,0.0,0.0,1.21846967915e-07,0.0,0.0,0.0,1.21846967915e-07,-0.6080123,0.95124505,13.50375705,9e-08,0.0,0.0,0.0,9e-08,0.0,0.0,0.0,9e-08
1538767960439196391,1147,1538767960438806279,base_link,-0.365320496322,-0.00917292581914,0.105119264403,-0.924882010124,1.0,0.0,0.0,0.0,1.0,0.0,0.0,0.0,1.0,0.260938733816,-0.25101929903,-0.298369258642,1.21846967915e-07,0.0,0.0,0.0,1.21846967915e-07,0.0,0.0,0.0,1.21846967915e-07,-0.5099458,0.65704555,11.93469305,9e-08,0.0,0.0,0.0,9e-08,0.0,0.0,0.0,9e-08
1538767960814877735,1148,1538767960814631079,base_link,-0.386868860312,0.0202689195272,0.175097664076,-0.905131185993,1.0,0.0,0.0,0.0,1.0,0.0,0.0,0.0,1.0,0.114292159677,-0.291983425617,-0.316067814827,1.21846967915e-07,0.0,0.0,0.0,1.21846967915e-07,0.0,0.0,0.0,1.21846967915e-07,-0.4118793,0.8237586,11.30706745,9e-08,0.0,0.0,0.0,9e-08,0.0,0.0,0.0,9e-08
1538767961139889863,1149,1538767961139361447,base_link,-0.391589908228,0.0473342557713,0.241350091756,-0.886660558057,1.0,0.0,0.0,0.0,1.0,0.0,0.0,0.0,1.0,0.157905161381,-0.360596656799,-0.354066193104,1.21846967915e-07,0.0,0.0,0.0,1.21846967915e-07,0.0,0.0,0.0,1.21846967915e-07,-0.32361945,0.6864655,12.62115855,9e-08,0.0,0.0,0.0,9e-08,0.0,0.0,0.0,9e-08
1538767961554881255,1150,1538767961554456871,base_link,-0.401741285787,0.106922943927,0.320597419224,-0.851110285534,1.0,0.0,0.0,0.0,1.0,0.0,0.0,0.0,1.0,-0.0313306413591,-0.46294093132,-0.18621340394,1.21846967915e-07,0.0,0.0,0.0,1.21846967915e-07,0.0,0.0,0.0,1.21846967915e-07,0.1569064,0.9414384,14.70016835,9e-08,0.0,0.0,0.0,9e-08,0.0,0.0,0.0,9e-08
1538767962026731751,1151,1538767962026394247,base_link,-0.317980401707,0.13194416444,0.432752910992,-0.833189125966,1.0,0.0,0.0,0.0,1.0,0.0,0.0,0.0,1.0,-0.23989109695,-0.348461896181,-0.430736094713,1.21846967915e-07,0.0,0.0,0.0,1.21846967915e-07,0.0,0.0,0.0,1.21846967915e-07,0.18632635,1.1179581,16.279039,9e-08,0.0,0.0,0.0,9e-08,0.0,0.0,0.0,9e-08
1538767962412052551,1152,1538767962409950599,base_link,-0.275166687537,0.157547706748,0.504166605143,-0.803292006948,1.0,0.0,0.0,0.0,1.0,0.0,0.0,0.0,1.0,-0.0600274540484,-0.350915908813,-0.231641724706,1.21846967915e-07,0.0,0.0,0.0,1.21846967915e-07,0.0,0.0,0.0,1.21846967915e-07,-0.0588399,0.59820565,15.21011415,9e-08,0.0,0.0,0.0,9e-08,0.0,0.0,0.0,9e-08
1538767962784815815,1153,1538767962784408551,base_link,-0.237111652615,0.18259370421,0.554634700051,-0.776413519252,1.0,0.0,0.0,0.0,1.0,0.0,0.0,0.0,1.0,-0.189771324396,-0.260296404362,-0.263527065516,1.21846967915e-07,0.0,0.0,0.0,1.21846967915e-07,0.0,0.0,0.0,1.21846967915e-07,-0.0784532,1.0983448,13.8862164,9e-08,0.0,0.0,0.0,9e-08,0.0,0.0,0.0,9e-08
1538767963064724903,1154,1538767963064276455,base_link,-0.198546664955,0.181007577941,0.598849299261,-0.7544501278,1.0,0.0,0.0,0.0,1.0,0.0,0.0,0.0,1.0,-0.198887050152,-0.173703163862,-0.27403780818,1.21846967915e-07,0.0,0.0,0.0,1.21846967915e-07,0.0,0.0,0.0,1.21846967915e-07,0.0,0.8825985,14.46480875,9e-08,0.0,0.0,0.0,9e-08,0.0,0.0,0.0,9e-08
1538767963533634759,1155,1538767963533224167,base_link,-0.150597379026,0.169983861466,0.644038314674,-0.730507060544,1.0,0.0,0.0,0.0,1.0,0.0,0.0,0.0,1.0,-0.216533794999,-0.0806728675961,-0.165578320622,1.21846967915e-07,0.0,0.0,0.0,1.21846967915e-07,0.0,0.0,0.0,1.21846967915e-07,-0.1569064,0.9610517,10.05181625,9e-08,0.0,0.0,0.0,9e-08,0.0,0.0,0.0,9e-08
1538767963790290439,1156,1538767963789996551,base_link,-0.133692455715,0.15479135895,0.668355974333,-0.715168689228,1.0,0.0,0.0,0.0,1.0,0.0,0.0,0.0,1.0,-0.343158662319,0.00308453338221,-0.187323123217,1.21846967915e-07,0.0,0.0,0.0,1.21846967915e-07,0.0,0.0,0.0,1.21846967915e-07,-0.26477955,0.51975245,9.79684335,9e-08,0.0,0.0,0.0,9e-08,0.0,0.0,0.0,9e-08
1538767964161192455,1157,1538767964160542791,base_link,-0.102795639555,0.122269106822,0.691300666224,-0.704689088097,1.0,0.0,0.0,0.0,1.0,0.0,0.0,0.0,1.0,-0.0405913516879,0.0109962867573,-0.0991264656186,1.21846967915e-07,0.0,0.0,0.0,1.21846967915e-07,0.0,0.0,0.0,1.21846967915e-07,-0.24516625,0.2549729,8.4925589,9e-08,0.0,0.0,0.0,9e-08,0.0,0.0,0.0,9e-08
1538767964493983751,1158,1538767964493174983,base_link,0.100629177512,-0.116315901525,-0.701618312267,0.69575579306,1.0,0.0,0.0,0.0,1.0,0.0,0.0,0.0,1.0,-0.0413864143193,0.0293839406222,-0.0970198884606,1.21846967915e-07,0.0,0.0,0.0,1.21846967915e-07,0.0,0.0,0.0,1.21846967915e-07,-0.28439285,0.7256921,9.8851032,9e-08,0.0,0.0,0.0,9e-08,0.0,0.0,0.0,9e-08
1538767964952202119,1159,1538767964949962663,base_link,0.11201902501,-0.113564832335,-0.725155477062,0.669853940034,1.0,0.0,0.0,0.0,1.0,0.0,0.0,0.0,1.0,0.0779096111655,0.0217392127961,-0.202158167958,1.21846967915e-07,0.0,0.0,0.0,1.21846967915e-07,0.0,0.0,0.0,1.21846967915e-07,-0.36284605,0.83356525,9.01231135,9e-08,0.0,0.0,0.0,9e-08,0.0,0.0,0.0,9e-08
1538767965260166151,1160,1538767965258771367,base_link,0.123215108463,-0.113908365676,-0.745486505727,0.645052549065,1.0,0.0,0.0,0.0,1.0,0.0,0.0,0.0,1.0,0.0269648917019,0.0103135108948,-0.204219281673,1.21846967915e-07,0.0,0.0,0.0,1.21846967915e-07,0.0,0.0,0.0,1.21846967915e-07,-0.36284605,0.4511059,8.58081875,9e-08,0.0,0.0,0.0,9e-08,0.0,0.0,0.0,9e-08
1538767965648970535,1161,1538767965648381447,base_link,0.146929955296,-0.139099176366,-0.761465766735,0.615818880403,1.0,0.0,0.0,0.0,1.0,0.0,0.0,0.0,1.0,0.32747104764,-0.0425340272486,-0.132318690419,1.21846967915e-07,0.0,0.0,0.0,1.21846967915e-07,0.0,0.0,0.0,1.21846967915e-07,-0.28439285,0.3726527,9.7870367,9e-08,0.0,0.0,0.0,9e-08,0.0,0.0,0.0,9e-08
1538767965916982727,1162,1538767965916464743,base_link,0.154484810011,-0.158283338352,-0.769278787329,0.599408855158,1.0,0.0,0.0,0.0,1.0,0.0,0.0,0.0,1.0,0.0655221194029,-0.0726188570261,-0.140302017331,1.21846967915e-07,0.0,0.0,0.0,1.21846967915e-07,0.0,0.0,0.0,1.21846967915e-07,-0.20593965,0.6864655,9.81645665,9e-08,0.0,0.0,0.0,9e-08,0.0,0.0,0.0,9e-08
1538767966247753191,1163,1538767966246075271,base_link,0.153093290985,-0.168542445724,-0.788398793302,0.571474610953,1.0,0.0,0.0,0.0,1.0,0.0,0.0,0.0,1.0,-0.0390993058681,-0.0784662514925,-0.238998159766,1.21846967915e-07,0.0,0.0,0.0,1.21846967915e-07,0.0,0.0,0.0,1.21846967915e-07,-0.0588399,1.0198916,10.32640245,9e-08,0.0,0.0,0.0,9e-08,0.0,0.0,0.0,9e-08
1538767966525711463,1164,1538767966525245607,base_link,0.153133627466,-0.176924607766,-0.814418064583,0.531009408002,1.0,0.0,0.0,0.0,1.0,0.0,0.0,0.0,1.0,0.138072341681,-0.105672389269,-0.29754537344,1.21846967915e-07,0.0,0.0,0.0,1.21846967915e-07,0.0,0.0,0.0,1.21846967915e-07,-0.14709975,0.3726527,10.1008495,9e-08,0.0,0.0,0.0,9e-08,0.0,0.0,0.0,9e-08
1538767967031402279,1165,1538767967031145639,base_link,0.131518354414,-0.20966011168,-0.84171110742,0.479862450779,1.0,0.0,0.0,0.0,1.0,0.0,0.0,0.0,1.0,-0.064897492528,-0.208952382207,-0.142566099763,1.21846967915e-07,0.0,0.0,0.0,1.21846967915e-07,0.0,0.0,0.0,1.21846967915e-07,0.392266,1.0002783,13.9058297,9e-08,0.0,0.0,0.0,9e-08,0.0,0.0,0.0,9e-08
1538767967401931047,1166,1538767967401242631,base_link,0.103005521124,-0.202928708422,-0.8651962134,0.446816868788,1.0,0.0,0.0,0.0,1.0,0.0,0.0,0.0,1.0,-0.0521708205342,-0.152428984642,-0.275066077709,1.21846967915e-07,0.0,0.0,0.0,1.21846967915e-07,0.0,0.0,0.0,1.21846967915e-07,0.392266,0.93163175,11.95430635,9e-08,0.0,0.0,0.0,9e-08,0.0,0.0,0.0,9e-08
1538767967850153191,1167,1538767967849544455,base_link,0.0845329718815,-0.226362780811,-0.891647595045,0.382855892443,1.0,0.0,0.0,0.0,1.0,0.0,0.0,0.0,1.0,-0.02329460904,-0.183701246977,-0.214481517673,1.21846967915e-07,0.0,0.0,0.0,1.21846967915e-07,0.0,0.0,0.0,1.21846967915e-07,0.3530394,0.588399,11.2776475,9e-08,0.0,0.0,0.0,9e-08,0.0,0.0,0.0,9e-08
1538767968186996775,1168,1538767968186595623,base_link,0.0604116612949,-0.226742977135,-0.906646418848,0.35061421062,1.0,0.0,0.0,0.0,1.0,0.0,0.0,0.0,1.0,-0.132775738835,-0.150231420994,-0.180046632886,1.21846967915e-07,0.0,0.0,0.0,1.21846967915e-07,0.0,0.0,0.0,1.21846967915e-07,0.61781895,1.04931155,12.69961175,9e-08,0.0,0.0,0.0,9e-08,0.0,0.0,0.0,9e-08
1538767968594235847,1169,1538767968593744071,base_link,0.045164615298,-0.230988421389,-0.922973966335,0.304505441952,1.0,0.0,0.0,0.0,1.0,0.0,0.0,0.0,1.0,-0.0589922964573,-0.15016657114,-0.204207777977,1.21846967915e-07,0.0,0.0,0.0,1.21846967915e-07,0.0,0.0,0.0,1.21846967915e-07,0.4314926,0.7256921,10.58137535,9e-08,0.0,0.0,0.0,9e-08,0.0,0.0,0.0,9e-08
1538767969039503783,1170,1538767969038471815,base_link,0.0288417862981,-0.238083484654,-0.936054463854,0.257461543532,1.0,0.0,0.0,0.0,1.0,0.0,0.0,0.0,1.0,0.0250276736915,-0.120429493487,-0.186511233449,1.21846967915e-07,0.0,0.0,0.0,1.21846967915e-07,0.0,0.0,0.0,1.21846967915e-07,0.588399,0.6080123,11.0815145,9e-08,0.0,0.0,0.0,9e-08,0.0,0.0,0.0,9e-08
1538767969265960583,1171,1538767969265541351,base_link,0.0220504431677,-0.240548193857,-0.942313135674,0.231724618298,1.0,0.0,0.0,0.0,1.0,0.0,0.0,0.0,1.0,-0.0670732557774,-0.0921577885747,-0.202575176954,1.21846967915e-07,0.0,0.0,0.0,1.21846967915e-07,0.0,0.0,0.0,1.21846967915e-07,0.5099458,0.79433865,9.87529655,9e-08,0.0,0.0,0.0,9e-08,0.0,0.0,0.0,9e-08
1538767969737731047,1172,1538767969736726311,base_link,0.00750116803698,-0.233110413434,-0.95546706969,0.180792550633,1.0,0.0,0.0,0.0,1.0,0.0,0.0,0.0,1.0,-0.0471858866513,-0.113871343434,-0.21785621345,1.21846967915e-07,0.0,0.0,0.0,1.21846967915e-07,0.0,0.0,0.0,1.21846967915e-07,0.42168595,0.79433865,10.4735022,9e-08,0.0,0.0,0.0,9e-08,0.0,0.0,0.0,9e-08
1538767970048420455,1173,1538767970047923655,base_link,0.00055140505852,-0.241877730663,-0.959713651075,0.142984500217,1.0,0.0,0.0,0.0,1.0,0.0,0.0,0.0,1.0,0.113921754062,-0.104330927134,-0.229911670089,1.21846967915e-07,0.0,0.0,0.0,1.21846967915e-07,0.0,0.0,0.0,1.21846967915e-07,0.5295591,0.9218251,10.89518815,9e-08,0.0,0.0,0.0,9e-08,0.0,0.0,0.0,9e-08
1538767970469678663,1174,1538767970469211207,base_link,-0.00560208181886,-0.254659383481,-0.962406939433,0.0942873163029,1.0,0.0,0.0,0.0,1.0,0.0,0.0,0.0,1.0,-0.0313334092498,-0.101777113974,-0.215361595154,1.21846967915e-07,0.0,0.0,0.0,1.21846967915e-07,0.0,0.0,0.0,1.21846967915e-07,0.784532,0.784532,10.34601575,9e-08,0.0,0.0,0.0,9e-08,0.0,0.0,0.0,9e-08
1538767970771130663,1175,1538767970767876871,base_link,-0.00970574183136,-0.25580016735,-0.964858843446,0.0593252491195,1.0,0.0,0.0,0.0,1.0,0.0,0.0,0.0,1.0,0.00707938894629,-0.0866394639015,-0.235711798072,1.21846967915e-07,0.0,0.0,0.0,1.21846967915e-07,0.0,0.0,0.0,1.21846967915e-07,0.61781895,0.980665,9.63993695,9e-08,0.0,0.0,0.0,9e-08,0.0,0.0,0.0,9e-08
1538767971219375303,1176,1538767971218919271,base_link,-0.021172570044,-0.263030310717,-0.964531885745,-0.00670964246747,1.0,0.0,0.0,0.0,1.0,0.0,0.0,0.0,1.0,0.054043456912,-0.149457857013,-0.230355456471,1.21846967915e-07,0.0,0.0,0.0,1.21846967915e-07,0.0,0.0,0.0,1.21846967915e-07,0.83356525,0.87279185,10.85596155,9e-08,0.0,0.0,0.0,9e-08,0.0,0.0,0.0,9e-08
1538767971621790311,1177,1538767971621443463,base_link,-0.0368417600599,-0.268703206333,-0.960179949082,-0.0670502572948,1.0,0.0,0.0,0.0,1.0,0.0,0.0,0.0,1.0,-0.0498537048697,-0.146534234285,-0.298441678286,1.21846967915e-07,0.0,0.0,0.0,1.21846967915e-07,0.0,0.0,0.0,1.21846967915e-07,1.02969825,1.16699135,9.9439431,9e-08,0.0,0.0,0.0,9e-08,0.0,0.0,0.0,9e-08
1538767971979558823,1178,1538767971973090727,base_link,-0.055451827128,-0.284053675466,-0.948595063202,-0.128085949232,1.0,0.0,0.0,0.0,1.0,0.0,0.0,0.0,1.0,0.111124366522,-0.250807493925,-0.298594266176,1.21846967915e-07,0.0,0.0,0.0,1.21846967915e-07,0.0,0.0,0.0,1.21846967915e-07,1.24544455,1.01008495,13.4939504,9e-08,0.0,0.0,0.0,9e-08,0.0,0.0,0.0,9e-08
1538767972419424935,1179,1538767972419024455,base_link,-0.101223316206,-0.289926056915,-0.93178443308,-0.193583294856,1.0,0.0,0.0,0.0,1.0,0.0,0.0,0.0,1.0,-0.0626904070377,-0.281530022621,-0.230401352048,1.21846967915e-07,0.0,0.0,0.0,1.21846967915e-07,0.0,0.0,0.0,1.21846967915e-07,1.59848395,1.2160246,13.9842829,9e-08,0.0,0.0,0.0,9e-08,0.0,0.0,0.0,9e-08
1538767972817611431,1180,1538767972817322887,base_link,-0.138479164933,-0.297889393034,-0.90810041787,-0.259690318385,1.0,0.0,0.0,0.0,1.0,0.0,0.0,0.0,1.0,0.104418836534,-0.251116961241,-0.298198312521,1.21846967915e-07,0.0,0.0,0.0,1.21846967915e-07,0.0,0.0,0.0,1.21846967915e-07,1.26505785,0.980665,12.7878716,9e-08,0.0,0.0,0.0,9e-08,0.0,0.0,0.0,9e-08
1538767973071592103,1181,1538767973071220455,base_link,-0.159830959984,-0.300894080694,-0.891841244669,-0.297550013847,1.0,0.0,0.0,0.0,1.0,0.0,0.0,0.0,1.0,0.0437585487962,-0.254103183746,-0.264756828547,1.21846967915e-07,0.0,0.0,0.0,1.21846967915e-07,0.0,0.0,0.0,1.21846967915e-07,1.569064,1.75539035,13.95486295,9e-08,0.0,0.0,0.0,9e-08,0.0,0.0,0.0,9e-08
1538767973529114631,1182,1538767973528605831,base_link,-0.180822526997,-0.298948351246,-0.84747650056,-0.399645690601,1.0,0.0,0.0,0.0,1.0,0.0,0.0,0.0,1.0,0.0223555099219,-0.269957691431,-0.37650847435,1.21846967915e-07,0.0,0.0,0.0,1.21846967915e-07,0.0,0.0,0.0,1.21846967915e-07,1.1964113,1.20621795,12.9643913,9e-08,0.0,0.0,0.0,9e-08,0.0,0.0,0.0,9e-08
1538767973925455655,1183,1538767973925127175,base_link,-0.225705285268,-0.318199680555,-0.79111965544,-0.471100603134,1.0,0.0,0.0,0.0,1.0,0.0,0.0,0.0,1.0,0.225231021643,-0.308355182409,-0.335718840361,1.21846967915e-07,0.0,0.0,0.0,1.21846967915e-07,0.0,0.0,0.0,1.21846967915e-07,1.32389775,0.50013915,12.11121275,9e-08,0.0,0.0,0.0,9e-08,0.0,0.0,0.0,9e-08
1538767974246188327,1184,1538767974245741351,base_link,-0.256390751925,-0.29699888318,-0.762637207175,-0.514237237031,1.0,0.0,0.0,0.0,1.0,0.0,0.0,0.0,1.0,-0.16728399694,-0.345727056265,-0.17268101871,1.21846967915e-07,0.0,0.0,0.0,1.21846967915e-07,0.0,0.0,0.0,1.21846967915e-07,1.71616375,1.4317709,14.24906245,9e-08,0.0,0.0,0.0,9e-08,0.0,0.0,0.0,9e-08
1538767974514847047,1185,1538767974514510055,base_link,-0.257717067334,-0.277960710225,-0.736629403628,-0.560086491969,1.0,0.0,0.0,0.0,1.0,0.0,0.0,0.0,1.0,-0.0207877233624,-0.175834387541,-0.50207734108,1.21846967915e-07,0.0,0.0,0.0,1.21846967915e-07,0.0,0.0,0.0,1.21846967915e-07,1.01008495,1.765197,9.67916355,9e-08,0.0,0.0,0.0,9e-08,0.0,0.0,0.0,9e-08
1538767974883646279,1186,1538767974882956487,base_link,-0.267869570725,-0.275534398302,-0.664422912942,-0.64099054688,1.0,0.0,0.0,0.0,1.0,0.0,0.0,0.0,1.0,-0.126382574439,-0.417583107948,-0.418337404728,1.21846967915e-07,0.0,0.0,0.0,1.21846967915e-07,0.0,0.0,0.0,1.21846967915e-07,0.7060788,0.67665885,13.75872995,9e-08,0.0,0.0,0.0,9e-08,0.0,0.0,0.0,9e-08
1538767975375166119,1187,1538767975373415207,base_link,-0.322146081616,-0.237674697012,-0.5806063015,-0.7089633017,1.0,0.0,0.0,0.0,1.0,0.0,0.0,0.0,1.0,0.385403931141,-0.390882670879,-0.283331930637,1.21846967915e-07,0.0,0.0,0.0,1.21846967915e-07,0.0,0.0,0.0,1.21846967915e-07,0.36284605,0.42168595,14.22944915,9e-08,0.0,0.0,0.0,9e-08,0.0,0.0,0.0,9e-08
1538767975773451431,1188,1538767975772715687,base_link,-0.362050515115,-0.208644028809,-0.514633365978,-0.748691920865,1.0,0.0,0.0,0.0,1.0,0.0,0.0,0.0,1.0,-0.169730901718,-0.318680197001,-0.347429335117,1.21846967915e-07,0.0,0.0,0.0,1.21846967915e-07,0.0,0.0,0.0,1.21846967915e-07,0.89240515,1.8632635,12.8859381,9e-08,0.0,0.0,0.0,9e-08,0.0,0.0,0.0,9e-08
1538767976144139047,1189,1538767976143267335,base_link,-0.353471524967,-0.18536249074,-0.43662339582,-0.806262139931,1.0,0.0,0.0,0.0,1.0,0.0,0.0,0.0,1.0,-0.0340887568891,-0.306352853775,-0.453699111938,1.21846967915e-07,0.0,0.0,0.0,1.21846967915e-07,0.0,0.0,0.0,1.21846967915e-07,0.5491724,1.1179581,11.6306869,9e-08,0.0,0.0,0.0,9e-08,0.0,0.0,0.0,9e-08
1538767976597322599,1190,1538767976597002663,base_link,-0.377360710432,-0.150008356401,-0.339798745268,-0.848311970885,1.0,0.0,0.0,0.0,1.0,0.0,0.0,0.0,1.0,0.160991385579,-0.3979857862,-0.246463432908,1.21846967915e-07,0.0,0.0,0.0,1.21846967915e-07,0.0,0.0,0.0,1.21846967915e-07,0.6864655,0.7256921,16.6516917,9e-08,0.0,0.0,0.0,9e-08,0.0,0.0,0.0,9e-08
1538767977134244519,1191,1538767977133787623,base_link,-0.387739166572,-0.0900417514365,-0.234650160205,-0.886842784275,1.0,0.0,0.0,0.0,1.0,0.0,0.0,0.0,1.0,-0.107503324747,-0.34822678566,-0.314820498228,1.21846967915e-07,0.0,0.0,0.0,1.21846967915e-07,0.0,0.0,0.0,1.21846967915e-07,0.32361945,0.7256921,14.64132845,9e-08,0.0,0.0,0.0,9e-08,0.0,0.0,0.0,9e-08
1538767977471480775,1192,1538767977471081767,base_link,-0.372685772466,-0.0746973517709,-0.165441654094,-0.910030043312,1.0,0.0,0.0,0.0,1.0,0.0,0.0,0.0,1.0,-0.287984728813,-0.227954447269,-0.503063619137,1.21846967915e-07,0.0,0.0,0.0,1.21846967915e-07,0.0,0.0,0.0,1.21846967915e-07,-0.04903325,1.34351105,11.54242705,9e-08,0.0,0.0,0.0,9e-08,0.0,0.0,0.0,9e-08
1538767977864129767,1193,1538767977863792231,base_link,-0.364713831178,-0.0567388798757,-0.0713955809099,-0.926642968939,1.0,0.0,0.0,0.0,1.0,0.0,0.0,0.0,1.0,0.0359542816877,-0.27214127779,-0.277042418718,1.21846967915e-07,0.0,0.0,0.0,1.21846967915e-07,0.0,0.0,0.0,1.21846967915e-07,-0.30400615,0.0196133,10.5127288,9e-08,0.0,0.0,0.0,9e-08,0.0,0.0,0.0,9e-08
1538767978279492743,1194,1538767978278980167,base_link,-0.366265863239,-0.0133985689886,-0.00795441486659,-0.930379773565,1.0,0.0,0.0,0.0,1.0,0.0,0.0,0.0,1.0,-0.148018077016,-0.294364690781,-0.225119814277,1.21846967915e-07,0.0,0.0,0.0,1.21846967915e-07,0.0,0.0,0.0,1.21846967915e-07,-0.08825985,0.9414384,14.2196425,9e-08,0.0,0.0,0.0,9e-08,0.0,0.0,0.0,9e-08
1538767978616794727,1195,1538767978610993927,base_link,-0.350064884571,0.00499488718758,0.0515391205628,-0.935293187586,1.0,0.0,0.0,0.0,1.0,0.0,0.0,0.0,1.0,-0.0646042153239,-0.212094634771,-0.373579591513,1.21846967915e-07,0.0,0.0,0.0,1.21846967915e-07,0.0,0.0,0.0,1.21846967915e-07,-0.30400615,1.2160246,11.3168741,9e-08,0.0,0.0,0.0,9e-08,0.0,0.0,0.0,9e-08
1538767979084729991,1196,1538767979084138439,base_link,-0.358743200344,0.0324129941962,0.147742866462,-0.921099755414,1.0,0.0,0.0,0.0,1.0,0.0,0.0,0.0,1.0,0.0504900626838,-0.29562908411,-0.289604783058,1.21846967915e-07,0.0,0.0,0.0,1.21846967915e-07,0.0,0.0,0.0,1.21846967915e-07,-0.44129925,0.588399,10.69905515,9e-08,0.0,0.0,0.0,9e-08,0.0,0.0,0.0,9e-08
1538767979615612071,1197,1538767979610235527,base_link,-0.327202151563,0.0726695038701,0.240031007764,-0.911066962704,1.0,0.0,0.0,0.0,1.0,0.0,0.0,0.0,1.0,0.0251055471599,-0.259905129671,-0.348411530256,1.21846967915e-07,0.0,0.0,0.0,1.21846967915e-07,0.0,0.0,0.0,1.21846967915e-07,-0.22555295,0.95124505,12.4544455,9e-08,0.0,0.0,0.0,9e-08,0.0,0.0,0.0,9e-08
1538767980025515335,1198,1538767980025023559,base_link,-0.329029142295,0.100758039917,0.316085414039,-0.884125359858,1.0,0.0,0.0,0.0,1.0,0.0,0.0,0.0,1.0,0.108852908015,-0.255222529173,-0.298288732767,1.21846967915e-07,0.0,0.0,0.0,1.21846967915e-07,0.0,0.0,0.0,1.21846967915e-07,-0.0392266,0.71588545,12.07198615,9e-08,0.0,0.0,0.0,9e-08,0.0,0.0,0.0,9e-08
1538767980334209319,1199,1538767980333808839,base_link,-0.29669997312,0.112271906859,0.370389064172,-0.873026967523,1.0,0.0,0.0,0.0,1.0,0.0,0.0,0.0,1.0,-0.22228230536,-0.206606701016,-0.317592024803,1.21846967915e-07,0.0,0.0,0.0,1.21846967915e-07,0.0,0.0,0.0,1.21846967915e-07,-0.1176798,1.28467115,11.8072066,9e-08,0.0,0.0,0.0,9e-08,0.0,0.0,0.0,9e-08
1538767980643585159,1200,1538767980643013255,base_link,-0.279207825037,0.121768711814,0.425656933356,-0.852074847855,1.0,0.0,0.0,0.0,1.0,0.0,0.0,0.0,1.0,0.105411984026,-0.261469006538,-0.371391713619,1.21846967915e-07,0.0,0.0,0.0,1.21846967915e-07,0.0,0.0,0.0,1.21846967915e-07,0.0980665,0.34323275,13.20955755,9e-08,0.0,0.0,0.0,9e-08,0.0,0.0,0.0,9e-08
1538767981024817383,1201,1538767981020077543,base_link,-0.251414601325,0.15065074758,0.469799612564,-0.83269644801,1.0,0.0,0.0,0.0,1.0,0.0,0.0,0.0,1.0,-0.1823464185,-0.257122844458,-0.0578645542264,1.21846967915e-07,0.0,0.0,0.0,1.21846967915e-07,0.0,0.0,0.0,1.21846967915e-07,0.24516625,0.784532,12.944778,9e-08,0.0,0.0,0.0,9e-08,0.0,0.0,0.0,9e-08
1538767981441894663,1202,1538767981441319399,base_link,-0.218557994158,0.160946549385,0.514317051726,-0.813514954831,1.0,0.0,0.0,0.0,1.0,0.0,0.0,0.0,1.0,-0.172354057431,-0.137052565813,-0.312948107719,1.21846967915e-07,0.0,0.0,0.0,1.21846967915e-07,0.0,0.0,0.0,1.21846967915e-07,0.2549729,1.26505785,11.11093445,9e-08,0.0,0.0,0.0,9e-08,0.0,0.0,0.0,9e-08
1538767981845595623,1203,1538767981845134503,base_link,-0.196398374872,0.154891923134,0.578760453249,-0.776191025618,1.0,0.0,0.0,0.0,1.0,0.0,0.0,0.0,1.0,0.0468326881528,-0.125284999609,-0.321365565062,1.21846967915e-07,0.0,0.0,0.0,1.21846967915e-07,0.0,0.0,0.0,1.21846967915e-07,0.0,0.42168595,9.07115125,9e-08,0.0,0.0,0.0,9e-08,0.0,0.0,0.0,9e-08
1538767982219051175,1204,1538767982218492167,base_link,-0.183619720981,0.16637743612,0.620422490805,-0.744095611948,1.0,0.0,0.0,0.0,1.0,0.0,0.0,0.0,1.0,-0.0864072442055,-0.168614149094,-0.187002688646,1.21846967915e-07,0.0,0.0,0.0,1.21846967915e-07,0.0,0.0,0.0,1.21846967915e-07,0.00980665,0.6864655,11.54242705,9e-08,0.0,0.0,0.0,9e-08,0.0,0.0,0.0,9e-08
1538767982575720327,1205,1538767982575364839,base_link,-0.157646313472,0.167266076709,0.654770512794,-0.720031440291,1.0,0.0,0.0,0.0,1.0,0.0,0.0,0.0,1.0,-0.200506776571,-0.139532372355,-0.25996607542,1.21846967915e-07,0.0,0.0,0.0,1.21846967915e-07,0.0,0.0,0.0,1.21846967915e-07,0.1765197,0.7256921,11.7091401,9e-08,0.0,0.0,0.0,9e-08,0.0,0.0,0.0,9e-08
1538767983033385351,1206,1538767983032746247,base_link,0.131675890904,-0.173189621042,-0.689014217071,0.691322083831,1.0,0.0,0.0,0.0,1.0,0.0,0.0,0.0,1.0,-0.0335913524032,-0.0962997227907,-0.122577503324,1.21846967915e-07,0.0,0.0,0.0,1.21846967915e-07,0.0,0.0,0.0,1.21846967915e-07,0.2157463,0.784532,11.6699135,9e-08,0.0,0.0,0.0,9e-08,0.0,0.0,0.0,9e-08
1538767983366481127,1207,1538767983365887239,base_link,0.121343613108,-0.168411847369,-0.70987613489,0.673044612442,1.0,0.0,0.0,0.0,1.0,0.0,0.0,0.0,1.0,-0.0797433629632,-0.0176013335586,-0.210955604911,1.21846967915e-07,0.0,0.0,0.0,1.21846967915e-07,0.0,0.0,0.0,1.21846967915e-07,0.0980665,0.81395195,9.9439431,9e-08,0.0,0.0,0.0,9e-08,0.0,0.0,0.0,9e-08
1538767983825415175,1208,1538767983823269575,base_link,0.131001959658,-0.166064662132,-0.745752906904,0.631754395632,1.0,0.0,0.0,0.0,1.0,0.0,0.0,0.0,1.0,0.0651007592678,-0.0210081059486,-0.220640704036,1.21846967915e-07,0.0,0.0,0.0,1.21846967915e-07,0.0,0.0,0.0,1.21846967915e-07,0.14709975,0.67665885,9.1397978,9e-08,0.0,0.0,0.0,9e-08,0.0,0.0,0.0,9e-08
1538767984183765863,1209,1538767984182325735,base_link,0.131451361183,-0.170780002919,-0.76805782415,0.603027287118,1.0,0.0,0.0,0.0,1.0,0.0,0.0,0.0,1.0,0.0743957981467,-0.0759552791715,-0.194522440434,1.21846967915e-07,0.0,0.0,0.0,1.21846967915e-07,0.0,0.0,0.0,1.21846967915e-07,0.32361945,0.71588545,10.3558224,9e-08,0.0,0.0,0.0,9e-08,0.0,0.0,0.0,9e-08
1538767984640504007,1210,1538767984639988295,base_link,0.134939763846,-0.187580399548,-0.792580754053,0.564287694482,1.0,0.0,0.0,0.0,1.0,0.0,0.0,0.0,1.0,0.0193806663156,-0.0766452625394,-0.192707404494,1.21846967915e-07,0.0,0.0,0.0,1.21846967915e-07,0.0,0.0,0.0,1.21846967915e-07,0.3138128,0.81395195,10.26756255,9e-08,0.0,0.0,0.0,9e-08,0.0,0.0,0.0,9e-08
1538767985070323079,1211,1538767985069848743,base_link,0.127964372421,-0.204396166687,-0.818354099547,0.521674126433,1.0,0.0,0.0,0.0,1.0,0.0,0.0,0.0,1.0,0.0607249177992,-0.121087007225,-0.208443984389,1.21846967915e-07,0.0,0.0,0.0,1.21846967915e-07,0.0,0.0,0.0,1.21846967915e-07,0.4314926,0.9022118,10.79712165,9e-08,0.0,0.0,0.0,9e-08,0.0,0.0,0.0,9e-08
1538767985434250919,1212,1538767985433551335,base_link,0.122669306015,-0.217173422458,-0.841067029651,0.479993955769,1.0,0.0,0.0,0.0,1.0,0.0,0.0,0.0,1.0,0.0922442004085,-0.120274633169,-0.246111303568,1.21846967915e-07,0.0,0.0,0.0,1.21846967915e-07,0.0,0.0,0.0,1.21846967915e-07,0.53936575,0.73549875,10.8657682,9e-08,0.0,0.0,0.0,9e-08,0.0,0.0,0.0,9e-08
1538767985872437959,1213,1538767985871502887,base_link,0.112024456027,-0.232136112667,-0.865482212435,0.429539155847,1.0,0.0,0.0,0.0,1.0,0.0,0.0,0.0,1.0,0.0889904275537,-0.153513848782,-0.265387773514,1.21846967915e-07,0.0,0.0,0.0,1.21846967915e-07,0.0,0.0,0.0,1.21846967915e-07,0.6276256,0.97085835,11.3561007,9e-08,0.0,0.0,0.0,9e-08,0.0,0.0,0.0,9e-08
1538767986334870567,1214,1538767986334112071,base_link,0.0845148875396,-0.240750003614,-0.893083413287,0.370538373796,1.0,0.0,0.0,0.0,1.0,0.0,0.0,0.0,1.0,-0.128969937563,-0.194989025593,-0.189704477787,1.21846967915e-07,0.0,0.0,0.0,1.21846967915e-07,0.0,0.0,0.0,1.21846967915e-07,0.89240515,0.71588545,12.2386992,9e-08,0.0,0.0,0.0,9e-08,0.0,0.0,0.0,9e-08
1538767986623801159,1215,1538767986623539271,base_link,0.0615366938664,-0.237110582785,-0.907582561345,0.341006893158,1.0,0.0,0.0,0.0,1.0,0.0,0.0,0.0,1.0,-0.103471204638,-0.187713697553,-0.196869447827,1.21846967915e-07,0.0,0.0,0.0,1.21846967915e-07,0.0,0.0,0.0,1.21846967915e-07,0.8629852,0.97085835,12.6898051,9e-08,0.0,0.0,0.0,9e-08,0.0,0.0,0.0,9e-08
1538767987069502247,1216,1538767987067629703,base_link,0.0337392528761,-0.238481027827,-0.92830979551,0.28324792275,1.0,0.0,0.0,0.0,1.0,0.0,0.0,0.0,1.0,-0.00337093509734,-0.17953003943,-0.278204083443,1.21846967915e-07,0.0,0.0,0.0,1.21846967915e-07,0.0,0.0,0.0,1.21846967915e-07,0.8237586,0.93163175,12.3367657,9e-08,0.0,0.0,0.0,9e-08,0.0,0.0,0.0,9e-08
1538767987590941799,1217,1538767987590481159,base_link,0.00624362426585,-0.24800664127,-0.944372648527,0.215902810904,1.0,0.0,0.0,0.0,1.0,0.0,0.0,0.0,1.0,-0.0731262043118,-0.158859699965,-0.21202981472,1.21846967915e-07,0.0,0.0,0.0,1.21846967915e-07,0.0,0.0,0.0,1.21846967915e-07,0.7649187,0.8433719,10.9638347,9e-08,0.0,0.0,0.0,9e-08,0.0,0.0,0.0,9e-08
1538767988050486375,1218,1538767988050063527,base_link,-0.0123039166011,-0.244538760132,-0.956636238524,0.15778629716,1.0,0.0,0.0,0.0,1.0,0.0,0.0,0.0,1.0,-0.0715059265494,-0.126517429948,-0.203050419688,1.21846967915e-07,0.0,0.0,0.0,1.21846967915e-07,0.0,0.0,0.0,1.21846967915e-07,0.7256921,0.83356525,10.97364135,9e-08,0.0,0.0,0.0,9e-08,0.0,0.0,0.0,9e-08
1538767988532482759,1219,1538767988531966375,base_link,-0.0280821312054,-0.242472914369,-0.964284548154,0.102827962617,1.0,0.0,0.0,0.0,1.0,0.0,0.0,0.0,1.0,-0.0254751425236,-0.093274846673,-0.169646412134,1.21846967915e-07,0.0,0.0,0.0,1.21846967915e-07,0.0,0.0,0.0,1.21846967915e-07,0.77472535,0.77472535,10.89518815,9e-08,0.0,0.0,0.0,9e-08,0.0,0.0,0.0,9e-08
1538767988871295015,1220,1538767988870967591,base_link,-0.0354581961692,-0.258956736041,-0.962649121907,0.0706455467435,1.0,0.0,0.0,0.0,1.0,0.0,0.0,0.0,1.0,0.106866791844,-0.104771196842,-0.188390165567,1.21846967915e-07,0.0,0.0,0.0,1.21846967915e-07,0.0,0.0,0.0,1.21846967915e-07,0.7453054,0.77472535,9.95374975,9e-08,0.0,0.0,0.0,9e-08,0.0,0.0,0.0,9e-08
1538767989253392935,1221,1538767989252439911,base_link,-0.0414182440168,-0.266210629196,-0.962587646099,0.029007818651,1.0,0.0,0.0,0.0,1.0,0.0,0.0,0.0,1.0,0.0464751534164,-0.0556541308761,-0.223094597459,1.21846967915e-07,0.0,0.0,0.0,1.21846967915e-07,0.0,0.0,0.0,1.21846967915e-07,0.85317855,1.0002783,9.8851032,9e-08,0.0,0.0,0.0,9e-08,0.0,0.0,0.0,9e-08
1538767989632112711,1222,1538767989631612007,base_link,-0.0400006865133,-0.251389010337,-0.966829233498,-0.0210889500226,1.0,0.0,0.0,0.0,1.0,0.0,0.0,0.0,1.0,-0.223440855742,-0.0632496550679,-0.288812637329,1.21846967915e-07,0.0,0.0,0.0,1.21846967915e-07,0.0,0.0,0.0,1.21846967915e-07,1.1375714,0.9414384,11.375714,9e-08,0.0,0.0,0.0,9e-08,0.0,0.0,0.0,9e-08
1538767989926614983,1223,1538767989926347367,base_link,-0.0338748093731,-0.247251079456,-0.965658145057,-0.0722754998841,1.0,0.0,0.0,0.0,1.0,0.0,0.0,0.0,1.0,-0.0415329411626,-0.0648061558604,-0.336896777153,1.21846967915e-07,0.0,0.0,0.0,1.21846967915e-07,0.0,0.0,0.0,1.21846967915e-07,0.8041453,1.02969825,9.7085835,9e-08,0.0,0.0,0.0,9e-08,0.0,0.0,0.0,9e-08
