%time,field.header.seq,field.header.stamp,field.header.frame_id,field.orientation.x,field.orientation.y,field.orientation.z,field.orientation.w,field.orientation_covariance0,field.orientation_covariance1,field.orientation_covariance2,field.orientation_covariance3,field.orientation_covariance4,field.orientation_covariance5,field.orientation_covariance6,field.orientation_covariance7,field.orientation_covariance8,field.angular_velocity.x,field.angular_velocity.y,field.angular_velocity.z,field.angular_velocity_covariance0,field.angular_velocity_covariance1,field.angular_velocity_covariance2,field.angular_velocity_covariance3,field.angular_velocity_covariance4,field.angular_velocity_covariance5,field.angular_velocity_covariance6,field.angular_velocity_covariance7,field.angular_velocity_covariance8,field.linear_acceleration.x,field.linear_acceleration.y,field.linear_acceleration.z,field.linear_acceleration_covariance0,field.linear_acceleration_covariance1,field.linear_acceleration_covariance2,field.linear_acceleration_covariance3,field.linear_acceleration_covariance4,field.linear_acceleration_covariance5,field.linear_acceleration_covariance6,field.linear_acceleration_covariance7,field.linear_acceleration_covariance8
1538769413024888480,1129,1538769413024003488,base_link,-0.0695611023776,0.214936623803,-0.871840500739,0.434577544352,1.0,0.0,0.0,0.0,1.0,0.0,0.0,0.0,1.0,0.585964858532,-0.296467572451,0.213605999947,1.21846967915e-07,0.0,0.0,0.0,1.21846967915e-07,0.0,0.0,0.0,1.21846967915e-07,-1.7455837,0.980665,15.0826277,9e-08,0.0,0.0,0.0,9e-08,0.0,0.0,0.0,9e-08
1538769413263365984,1130,1538769413262805088,base_link,-0.0664454119817,0.145049871909,-0.869870020648,0.466767275057,1.0,0.0,0.0,0.0,1.0,0.0,0.0,0.0,1.0,0.519291043282,-0.258665680885,0.17753046751,1.21846967915e-07,0.0,0.0,0.0,1.21846967915e-07,0.0,0.0,0.0,1.21846967915e-07,-1.50041745,1.42196425,17.5539035,9e-08,0.0,0.0,0.0,9e-08,0.0,0.0,0.0,9e-08
1538769413631296064,1131,1538769413628896256,base_link,-0.119846514002,0.214464337937,-0.835181703665,0.49205018311,1.0,0.0,0.0,0.0,1.0,0.0,0.0,0.0,1.0,-0.603316366673,-0.010797072202,0.12470946461,1.21846967915e-07,0.0,0.0,0.0,1.21846967915e-07,0.0,0.0,0.0,1.21846967915e-07,-1.55925735,1.57887065,12.9055514,9e-08,0.0,0.0,0.0,9e-08,0.0,0.0,0.0,9e-08
1538769413977104032,1132,1538769413976686592,base_link,-0.153893029056,0.268547091052,-0.818085083019,0.484702168798,1.0,0.0,0.0,0.0,1.0,0.0,0.0,0.0,1.0,-0.32119679451,0.00891325436532,-0.00080968090333,1.21846967915e-07,0.0,0.0,0.0,1.21846967915e-07,0.0,0.0,0.0,1.21846967915e-07,-1.8632635,0.53936575,10.20872265,9e-08,0.0,0.0,0.0,9e-08,0.0,0.0,0.0,9e-08
1538769414276856640,1133,1538769414276423616,base_link,-0.0908315314624,0.167147988821,-0.852403710018,0.487051432472,1.0,0.0,0.0,0.0,1.0,0.0,0.0,0.0,1.0,2.0585975647,0.117637991905,-0.140183523297,1.21846967915e-07,0.0,0.0,0.0,1.21846967915e-07,0.0,0.0,0.0,1.21846967915e-07,-2.04958985,-1.02969825,9.5320638,9e-08,0.0,0.0,0.0,9e-08,0.0,0.0,0.0,9e-08
1538769414617777600,1134,1538769414617533888,base_link,0.0888599493407,-0.0627741716162,-0.853395114253,0.509784358086,1.0,0.0,0.0,0.0,1.0,0.0,0.0,0.0,1.0,1.24317967892,0.22674177587,0.340480268002,1.21846967915e-07,0.0,0.0,0.0,1.21846967915e-07,0.0,0.0,0.0,1.21846967915e-07,-2.01036325,-0.69627215,8.11009955,9e-08,0.0,0.0,0.0,9e-08,0.0,0.0,0.0,9e-08
1538769415013291008,1135,1538769415013080800,base_link,0.178076946539,-0.172238779722,-0.816382712935,0.521671994544,1.0,0.0,0.0,0.0,1.0,0.0,0.0,0.0,1.0,0.435775846243,0.0512150935829,-0.106183052063,1.21846967915e-07,0.0,0.0,0.0,1.21846967915e-07,0.0,0.0,0.0,1.21846967915e-07,-1.97113665,0.784532,7.75706015,9e-08,0.0,0.0,0.0,9e-08,0.0,0.0,0.0,9e-08
1538769415353542304,1136,1538769415353283424,base_link,0.212211470372,-0.2006090554,-0.826240838862,0.481713997026,1.0,0.0,0.0,0.0,1.0,0.0,0.0,0.0,1.0,0.19439868629,-0.0424792580307,-0.306067377329,1.21846967915e-07,0.0,0.0,0.0,1.21846967915e-07,0.0,0.0,0.0,1.21846967915e-07,-1.9417167,0.2941995,8.87501825,9e-08,0.0,0.0,0.0,9e-08,0.0,0.0,0.0,9e-08
1538769415713339776,1137,1538769415713040352,base_link,0.242974265211,-0.261061771086,-0.832268592407,0.424428142582,1.0,0.0,0.0,0.0,1.0,0.0,0.0,0.0,1.0,0.221377924085,-0.153628453612,-0.148154571652,1.21846967915e-07,0.0,0.0,0.0,1.21846967915e-07,0.0,0.0,0.0,1.21846967915e-07,-1.7259704,0.2941995,10.7284751,9e-08,0.0,0.0,0.0,9e-08,0.0,0.0,0.0,9e-08
1538769416235977568,1138,1538769416235138848,base_link,0.229870134997,-0.300045073734,-0.859009760517,0.345304077735,1.0,0.0,0.0,0.0,1.0,0.0,0.0,0.0,1.0,0.216700151563,-0.274223923683,-0.208110198379,1.21846967915e-07,0.0,0.0,0.0,1.21846967915e-07,0.0,0.0,0.0,1.21846967915e-07,-1.3337044,0.1765197,12.44463885,9e-08,0.0,0.0,0.0,9e-08,0.0,0.0,0.0,9e-08
1538769416546351360,1139,1538769416545702080,base_link,0.207997093825,-0.327675776082,-0.873522912449,0.293808638669,1.0,0.0,0.0,0.0,1.0,0.0,0.0,0.0,1.0,0.0437229685485,-0.30144956708,-0.244807466865,1.21846967915e-07,0.0,0.0,0.0,1.21846967915e-07,0.0,0.0,0.0,1.21846967915e-07,-1.1375714,0.6472389,13.8862164,9e-08,0.0,0.0,0.0,9e-08,0.0,0.0,0.0,9e-08
1538769416907779168,1140,1538769416897829920,base_link,0.177833905286,-0.337983507657,-0.8962166294,0.225694492331,1.0,0.0,0.0,0.0,1.0,0.0,0.0,0.0,1.0,-0.1552824229,-0.391392737627,-0.289391040802,1.21846967915e-07,0.0,0.0,0.0,1.21846967915e-07,0.0,0.0,0.0,1.21846967915e-07,-0.8041453,0.4903325,15.19050085,9e-08,0.0,0.0,0.0,9e-08,0.0,0.0,0.0,9e-08
1538769417380655776,1141,1538769417378463104,base_link,0.112363235011,-0.35861460254,-0.915397801448,0.144280751896,1.0,0.0,0.0,0.0,1.0,0.0,0.0,0.0,1.0,0.00327000021935,-0.379473567009,-0.227012708783,1.21846967915e-07,0.0,0.0,0.0,1.21846967915e-07,0.0,0.0,0.0,1.21846967915e-07,-0.5295591,1.0983448,16.09271265,9e-08,0.0,0.0,0.0,9e-08,0.0,0.0,0.0,9e-08
1538769417782563712,1142,1538769417782216768,base_link,0.0615071005747,-0.350692376373,-0.932652242725,0.0582368257483,1.0,0.0,0.0,0.0,1.0,0.0,0.0,0.0,1.0,0.0949794054031,-0.380862802267,-0.293775647879,1.21846967915e-07,0.0,0.0,0.0,1.21846967915e-07,0.0,0.0,0.0,1.21846967915e-07,-0.63743225,0.38245935,15.77889985,9e-08,0.0,0.0,0.0,9e-08,0.0,0.0,0.0,9e-08
1538769418155793568,1143,1538769418155542656,base_link,0.00840385727644,-0.368995809872,-0.92916206556,-0.0207201207608,1.0,0.0,0.0,0.0,1.0,0.0,0.0,0.0,1.0,0.07861097157,-0.38101914525,-0.301477521658,1.21846967915e-07,0.0,0.0,0.0,1.21846967915e-07,0.0,0.0,0.0,1.21846967915e-07,-0.42168595,0.32361945,17.2793173,9e-08,0.0,0.0,0.0,9e-08,0.0,0.0,0.0,9e-08
1538769418462440224,1144,1538769418462008384,base_link,-0.0322919788246,-0.383893452602,-0.919649633214,-0.0763387010755,1.0,0.0,0.0,0.0,1.0,0.0,0.0,0.0,1.0,0.0469940528274,-0.368481963873,-0.195943802595,1.21846967915e-07,0.0,0.0,0.0,1.21846967915e-07,0.0,0.0,0.0,1.21846967915e-07,-0.1569064,0.73549875,16.11232595,9e-08,0.0,0.0,0.0,9e-08,0.0,0.0,0.0,9e-08
1538769418853762240,1145,1538769418853367392,base_link,-0.0728667656743,-0.382146302842,-0.907347085774,-0.159298159504,1.0,0.0,0.0,0.0,1.0,0.0,0.0,0.0,1.0,0.0295432284474,-0.30866882205,-0.304024487734,1.21846967915e-07,0.0,0.0,0.0,1.21846967915e-07,0.0,0.0,0.0,1.21846967915e-07,-0.22555295,0.4314926,13.7096967,9e-08,0.0,0.0,0.0,9e-08,0.0,0.0,0.0,9e-08
1538769419389299040,1146,1538769419387861696,base_link,-0.122715393458,-0.376362769076,-0.881970209683,-0.255774407425,1.0,0.0,0.0,0.0,1.0,0.0,0.0,0.0,1.0,-0.0398853346705,-0.275459289551,-0.350456535816,1.21846967915e-07,0.0,0.0,0.0,1.21846967915e-07,0.0,0.0,0.0,1.21846967915e-07,-0.1372931,0.83356525,12.944778,9e-08,0.0,0.0,0.0,9e-08,0.0,0.0,0.0,9e-08
1538769419690085024,1147,1538769419689753536,base_link,-0.141635561365,-0.37380753488,-0.857515973594,-0.323842013419,1.0,0.0,0.0,0.0,1.0,0.0,0.0,0.0,1.0,0.0634783282876,-0.272201299667,-0.306095570326,1.21846967915e-07,0.0,0.0,0.0,1.21846967915e-07,0.0,0.0,0.0,1.21846967915e-07,-0.22555295,0.32361945,12.89574475,9e-08,0.0,0.0,0.0,9e-08,0.0,0.0,0.0,9e-08
1538769420093649760,1148,1538769420093326336,base_link,-0.170165632416,-0.373187061133,-0.819695300948,-0.399843330007,1.0,0.0,0.0,0.0,1.0,0.0,0.0,0.0,1.0,0.020433280617,-0.27183791995,-0.323204159737,1.21846967915e-07,0.0,0.0,0.0,1.21846967915e-07,0.0,0.0,0.0,1.21846967915e-07,-0.1765197,0.5295591,12.7682583,9e-08,0.0,0.0,0.0,9e-08,0.0,0.0,0.0,9e-08
1538769420429696352,1149,1538769420428183904,base_link,-0.185638249589,-0.352074840878,-0.791357870373,-0.464041450422,1.0,0.0,0.0,0.0,1.0,0.0,0.0,0.0,1.0,-0.156513229012,-0.29254925251,-0.275514185429,1.21846967915e-07,0.0,0.0,0.0,1.21846967915e-07,0.0,0.0,0.0,1.21846967915e-07,-0.20593965,0.4707192,12.26811915,9e-08,0.0,0.0,0.0,9e-08,0.0,0.0,0.0,9e-08
1538769420942468992,1150,1538769420942206496,base_link,-0.174785018024,-0.272964905313,-0.766806340141,-0.554029236288,1.0,0.0,0.0,0.0,1.0,0.0,0.0,0.0,1.0,-0.376828759909,-0.2166595608,-0.370110571384,1.21846967915e-07,0.0,0.0,0.0,1.21846967915e-07,0.0,0.0,0.0,1.21846967915e-07,-0.34323275,0.9218251,12.6701918,9e-08,0.0,0.0,0.0,9e-08,0.0,0.0,0.0,9e-08
1538769421233211168,1151,1538769421232810112,base_link,-0.144092040774,-0.207335494731,-0.753209613359,-0.607391763818,1.0,0.0,0.0,0.0,1.0,0.0,0.0,0.0,1.0,-0.500021874905,-0.158354759216,-0.282041579485,1.21846967915e-07,0.0,0.0,0.0,1.21846967915e-07,0.0,0.0,0.0,1.21846967915e-07,-0.4903325,0.5687857,12.40541225,9e-08,0.0,0.0,0.0,9e-08,0.0,0.0,0.0,9e-08
1538769421713293664,1152,1538769421713015616,base_link,-0.0900370295773,-0.121711499728,-0.734150348219,-0.661893428242,1.0,0.0,0.0,0.0,1.0,0.0,0.0,0.0,1.0,-0.53241789341,-0.0684208348393,-0.199607864022,1.21846967915e-07,0.0,0.0,0.0,1.21846967915e-07,0.0,0.0,0.0,1.21846967915e-07,-0.67665885,0.61781895,10.75789505,9e-08,0.0,0.0,0.0,9e-08,0.0,0.0,0.0,9e-08
1538769422054827520,1153,1538769422054520192,base_link,-0.0366245854496,-0.0588557523086,-0.725911650896,-0.684285697099,1.0,0.0,0.0,0.0,1.0,0.0,0.0,0.0,1.0,-0.455795943737,-0.0285796076059,-0.0428133383393,1.21846967915e-07,0.0,0.0,0.0,1.21846967915e-07,0.0,0.0,0.0,1.21846967915e-07,-0.65704555,0.392266,10.1008495,9e-08,0.0,0.0,0.0,9e-08,0.0,0.0,0.0,9e-08
1538769422459396160,1154,1538769422459103584,base_link,0.0178639970028,0.000518002226301,-0.722790821809,-0.690835752689,1.0,0.0,0.0,0.0,1.0,0.0,0.0,0.0,1.0,-0.251542538404,0.0143463853747,0.00124231190421,1.21846967915e-07,0.0,0.0,0.0,1.21846967915e-07,0.0,0.0,0.0,1.21846967915e-07,-0.55897905,0.20593965,9.7478101,9e-08,0.0,0.0,0.0,9e-08,0.0,0.0,0.0,9e-08
1538769422854705376,1155,1538769422854147936,base_link,0.0497690056207,0.0242225635787,-0.727337309516,-0.684044407681,1.0,0.0,0.0,0.0,1.0,0.0,0.0,0.0,1.0,-0.181874424219,0.0406085066497,0.0226131416857,1.21846967915e-07,0.0,0.0,0.0,1.21846967915e-07,0.0,0.0,0.0,1.21846967915e-07,-0.61781895,0.53936575,9.0809579,9e-08,0.0,0.0,0.0,9e-08,0.0,0.0,0.0,9e-08
1538769423220881248,1156,1538769423220375968,base_link,0.147739866099,0.116275303611,-0.727195639231,-0.660181405387,1.0,0.0,0.0,0.0,1.0,0.0,0.0,0.0,1.0,-0.792615711689,0.0511556006968,0.0881622433662,1.21846967915e-07,0.0,0.0,0.0,1.21846967915e-07,0.0,0.0,0.0,1.21846967915e-07,-0.67665885,0.42168595,8.9828914,9e-08,0.0,0.0,0.0,9e-08,0.0,0.0,0.0,9e-08
1538769423501208640,1157,1538769423500715008,base_link,0.204192340069,0.172352502792,-0.725175227888,-0.634603019136,1.0,0.0,0.0,0.0,1.0,0.0,0.0,0.0,1.0,-0.44140124321,-0.0235191266984,0.145856365561,1.21846967915e-07,0.0,0.0,0.0,1.21846967915e-07,0.0,0.0,0.0,1.21846967915e-07,-0.7060788,0.00980665,8.32584585,9e-08,0.0,0.0,0.0,9e-08,0.0,0.0,0.0,9e-08
1538769423993014656,1158,1538769423992284480,base_link,0.237811677504,0.228926629281,-0.760753992857,-0.558830534958,1.0,0.0,0.0,0.0,1.0,0.0,0.0,0.0,1.0,-0.279274880886,-0.18792077899,0.388775378466,1.21846967915e-07,0.0,0.0,0.0,1.21846967915e-07,0.0,0.0,0.0,1.21846967915e-07,-0.40207265,0.00980665,10.2969825,9e-08,0.0,0.0,0.0,9e-08,0.0,0.0,0.0,9e-08
1538769424408028512,1159,1538769424407415008,base_link,0.238344270315,0.27013031541,-0.801242972877,-0.477735617177,1.0,0.0,0.0,0.0,1.0,0.0,0.0,0.0,1.0,-0.20337729156,-0.276744663715,0.30931070447,1.21846967915e-07,0.0,0.0,0.0,1.21846967915e-07,0.0,0.0,0.0,1.21846967915e-07,-0.1176798,0.2941995,12.26811915,9e-08,0.0,0.0,0.0,9e-08,0.0,0.0,0.0,9e-08
1538769424773599296,1160,1538769424773366464,base_link,0.210593166324,0.298577501934,-0.83780203926,-0.405696606652,1.0,0.0,0.0,0.0,1.0,0.0,0.0,0.0,1.0,-0.0515215694904,-0.387706547976,0.320803791285,1.21846967915e-07,0.0,0.0,0.0,1.21846967915e-07,0.0,0.0,0.0,1.21846967915e-07,0.0784532,-0.0392266,14.0038962,9e-08,0.0,0.0,0.0,9e-08,0.0,0.0,0.0,9e-08
1538769425184149504,1161,1538769425183614016,base_link,0.167830513343,0.339669358648,-0.873003977256,-0.307118383172,1.0,0.0,0.0,0.0,1.0,0.0,0.0,0.0,1.0,-0.0906099900603,-0.419445663691,0.387438714504,1.21846967915e-07,0.0,0.0,0.0,1.21846967915e-07,0.0,0.0,0.0,1.21846967915e-07,0.38245935,0.0392266,15.5337336,9e-08,0.0,0.0,0.0,9e-08,0.0,0.0,0.0,9e-08
1538769425757587712,1162,1538769425752067520,base_link,0.0905254262491,0.377563266974,-0.908217785687,-0.156178040698,1.0,0.0,0.0,0.0,1.0,0.0,0.0,0.0,1.0,0.00650119688362,-0.480172127485,0.328812122345,1.21846967915e-07,0.0,0.0,0.0,1.21846967915e-07,0.0,0.0,0.0,1.21846967915e-07,0.9414384,0.3138128,18.4168887,9e-08,0.0,0.0,0.0,9e-08,0.0,0.0,0.0,9e-08
1538769426161783808,1163,1538769426161493344,base_link,0.0234875899531,0.375499357967,-0.924691967575,-0.0582522994155,1.0,0.0,0.0,0.0,1.0,0.0,0.0,0.0,1.0,0.293582588434,-0.455950111151,0.330492436886,1.21846967915e-07,0.0,0.0,0.0,1.21846967915e-07,0.0,0.0,0.0,1.21846967915e-07,0.93163175,-0.0392266,15.5141203,9e-08,0.0,0.0,0.0,9e-08,0.0,0.0,0.0,9e-08
1538769426473963296,1164,1538769426473636832,base_link,-0.0251010823304,0.308365492186,-0.950520820766,0.0281216675488,1.0,0.0,0.0,0.0,1.0,0.0,0.0,0.0,1.0,0.551962196827,-0.347331464291,0.359307438135,1.21846967915e-07,0.0,0.0,0.0,1.21846967915e-07,0.0,0.0,0.0,1.21846967915e-07,0.6864655,0.42168595,15.4552804,9e-08,0.0,0.0,0.0,9e-08,0.0,0.0,0.0,9e-08
1538769426922419904,1165,1538769426922144608,base_link,-0.0635179249359,0.171535245741,-0.978081977474,0.0994825513418,1.0,0.0,0.0,0.0,1.0,0.0,0.0,0.0,1.0,0.856748759747,-0.184328153729,0.176335573196,1.21846967915e-07,0.0,0.0,0.0,1.21846967915e-07,0.0,0.0,0.0,1.21846967915e-07,0.2941995,-0.0196133,15.6318001,9e-08,0.0,0.0,0.0,9e-08,0.0,0.0,0.0,9e-08
1538769427383121024,1166,1538769427381812320,base_link,-0.0594683645654,-0.00831127649595,-0.986394336564,0.153038064201,1.0,0.0,0.0,0.0,1.0,0.0,0.0,0.0,1.0,0.63943117857,0.0212871953845,0.0279293842614,1.21846967915e-07,0.0,0.0,0.0,1.21846967915e-07,0.0,0.0,0.0,1.21846967915e-07,-0.1765197,0.85317855,10.3754357,9e-08,0.0,0.0,0.0,9e-08,0.0,0.0,0.0,9e-08
1538769427730259712,1167,1538769427729873248,base_link,-0.0427273957666,-0.0905226189275,-0.984085501816,0.146818766608,1.0,0.0,0.0,0.0,1.0,0.0,0.0,0.0,1.0,0.374507278204,-0.00971187651157,-0.0419510602951,1.21846967915e-07,0.0,0.0,0.0,1.21846967915e-07,0.0,0.0,0.0,1.21846967915e-07,-0.2353596,0.1372931,9.20844435,9e-08,0.0,0.0,0.0,9e-08,0.0,0.0,0.0,9e-08
1538769428361462336,1168,1538769428361133056,base_link,-0.0186621199075,-0.10717514262,-0.984064939633,0.140646395864,1.0,0.0,0.0,0.0,1.0,0.0,0.0,0.0,1.0,-0.0559918954968,0.113479353487,-0.189110502601,1.21846967915e-07,0.0,0.0,0.0,1.21846967915e-07,0.0,0.0,0.0,1.21846967915e-07,-0.2745862,0.63743225,8.4729456,9e-08,0.0,0.0,0.0,9e-08,0.0,0.0,0.0,9e-08
1538769428662540608,1169,1538769428662272384,base_link,-0.000283039271762,-0.102402658408,-0.987897256167,0.116501616715,1.0,0.0,0.0,0.0,1.0,0.0,0.0,0.0,1.0,-0.00213483255357,0.0991076156497,-0.101335860789,1.21846967915e-07,0.0,0.0,0.0,1.21846967915e-07,0.0,0.0,0.0,1.21846967915e-07,-0.2353596,0.1765197,7.7668668,9e-08,0.0,0.0,0.0,9e-08,0.0,0.0,0.0,9e-08
1538769428978997184,1170,1538769428977008896,base_link,0.00847655371982,-0.0763714798319,-0.990727679849,0.112045568797,1.0,0.0,0.0,0.0,1.0,0.0,0.0,0.0,1.0,0.809826731682,0.0764700770378,-0.116221345961,1.21846967915e-07,0.0,0.0,0.0,1.21846967915e-07,0.0,0.0,0.0,1.21846967915e-07,-0.26477955,0.14709975,8.2768126,9e-08,0.0,0.0,0.0,9e-08,0.0,0.0,0.0,9e-08
1538769429312385792,1171,1538769429312065088,base_link,0.0355943885788,-0.219768876452,-0.970598172981,0.0915088359158,1.0,0.0,0.0,0.0,1.0,0.0,0.0,0.0,1.0,0.720606446266,0.00151209416799,-0.077266998589,1.21846967915e-07,0.0,0.0,0.0,1.21846967915e-07,0.0,0.0,0.0,1.21846967915e-07,-0.2745862,0.22555295,8.7671451,9e-08,0.0,0.0,0.0,9e-08,0.0,0.0,0.0,9e-08
1538769429705554240,1172,1538769429705172000,base_link,0.0389312717765,-0.296816554605,-0.952157985896,0.061477303812,1.0,0.0,0.0,0.0,1.0,0.0,0.0,0.0,1.0,0.183285370469,-0.0871444866061,-0.21567837894,1.21846967915e-07,0.0,0.0,0.0,1.21846967915e-07,0.0,0.0,0.0,1.21846967915e-07,-0.0980665,1.0395049,9.30651085,9e-08,0.0,0.0,0.0,9e-08,0.0,0.0,0.0,9e-08
1538769430197986048,1173,1538769430197677248,base_link,0.0271738864893,-0.342094952229,-0.938767590503,-0.0307901700947,1.0,0.0,0.0,0.0,1.0,0.0,0.0,0.0,1.0,0.131377503276,-0.243152871728,-0.300057381392,1.21846967915e-07,0.0,0.0,0.0,1.21846967915e-07,0.0,0.0,0.0,1.21846967915e-07,0.2549729,0.65704555,11.4345539,9e-08,0.0,0.0,0.0,9e-08,0.0,0.0,0.0,9e-08
1538769430476461312,1174,1538769430476042176,base_link,0.00433898987378,-0.348499109058,-0.93358644678,-0.0833420094637,1.0,0.0,0.0,0.0,1.0,0.0,0.0,0.0,1.0,0.0672798976302,-0.300420314074,-0.321899831295,1.21846967915e-07,0.0,0.0,0.0,1.21846967915e-07,0.0,0.0,0.0,1.21846967915e-07,0.5687857,0.83356525,13.32723735,9e-08,0.0,0.0,0.0,9e-08,0.0,0.0,0.0,9e-08
1538769430814943136,1175,1538769430814750080,base_link,-0.0267693452351,-0.348360703354,-0.924693434382,-0.1512292132,1.0,0.0,0.0,0.0,1.0,0.0,0.0,0.0,1.0,0.00842932239175,-0.347052276134,-0.303697377443,1.21846967915e-07,0.0,0.0,0.0,1.21846967915e-07,0.0,0.0,0.0,1.21846967915e-07,0.7256921,0.7453054,13.85679645,9e-08,0.0,0.0,0.0,9e-08,0.0,0.0,0.0,9e-08
1538769431201635072,1176,1538769431199964704,base_link,-0.0729388906003,-0.354689579211,-0.905041651514,-0.223102733426,1.0,0.0,0.0,0.0,1.0,0.0,0.0,0.0,1.0,0.102721117437,-0.363069266081,-0.299312949181,1.21846967915e-07,0.0,0.0,0.0,1.21846967915e-07,0.0,0.0,0.0,1.21846967915e-07,1.04931155,1.1375714,15.03359445,9e-08,0.0,0.0,0.0,9e-08,0.0,0.0,0.0,9e-08
1538769431660807968,1177,1538769431660539104,base_link,-0.121092568123,-0.345066884928,-0.870551705758,-0.329249392517,1.0,0.0,0.0,0.0,1.0,0.0,0.0,0.0,1.0,0.0161955952644,-0.368618071079,-0.321113497019,1.21846967915e-07,0.0,0.0,0.0,1.21846967915e-07,0.0,0.0,0.0,1.21846967915e-07,1.06892485,0.53936575,14.85707475,9e-08,0.0,0.0,0.0,9e-08,0.0,0.0,0.0,9e-08
1538769432061565152,1178,1538769432060776256,base_link,-0.16713834722,-0.328909723855,-0.835348375747,-0.407524548437,1.0,0.0,0.0,0.0,1.0,0.0,0.0,0.0,1.0,-0.0317790731788,-0.3818154037,-0.264941900969,1.21846967915e-07,0.0,0.0,0.0,1.21846967915e-07,0.0,0.0,0.0,1.21846967915e-07,1.08853815,0.8825985,14.6707484,9e-08,0.0,0.0,0.0,9e-08,0.0,0.0,0.0,9e-08
1538769432454100096,1179,1538769432453757216,base_link,-0.212855253369,-0.304506656075,-0.796021609878,-0.477826259351,1.0,0.0,0.0,0.0,1.0,0.0,0.0,0.0,1.0,-0.0567175000906,-0.379402667284,-0.294588059187,1.21846967915e-07,0.0,0.0,0.0,1.21846967915e-07,0.0,0.0,0.0,1.21846967915e-07,1.02969825,1.04931155,14.9257213,9e-08,0.0,0.0,0.0,9e-08,0.0,0.0,0.0,9e-08
1538769432796394240,1180,1538769432793258720,base_link,-0.241359722149,-0.28762040433,-0.756142967106,-0.535973694161,1.0,0.0,0.0,0.0,1.0,0.0,0.0,0.0,1.0,0.0233115945011,-0.330234199762,-0.297889828682,1.21846967915e-07,0.0,0.0,0.0,1.21846967915e-07,0.0,0.0,0.0,1.21846967915e-07,0.93163175,0.9218251,14.2588691,9e-08,0.0,0.0,0.0,9e-08,0.0,0.0,0.0,9e-08
1538769433274831680,1181,1538769433274540832,base_link,-0.275670401279,-0.259688274478,-0.691607073591,-0.615018280799,1.0,0.0,0.0,0.0,1.0,0.0,0.0,0.0,1.0,-0.046451382339,-0.260798454285,-0.348612368107,1.21846967915e-07,0.0,0.0,0.0,1.21846967915e-07,0.0,0.0,0.0,1.21846967915e-07,0.7256921,1.22583125,14.1019627,9e-08,0.0,0.0,0.0,9e-08,0.0,0.0,0.0,9e-08
1538769433712049056,1182,1538769433711769728,base_link,-0.288320996207,-0.24046227616,-0.626117716151,-0.683392641467,1.0,0.0,0.0,0.0,1.0,0.0,0.0,0.0,1.0,-0.0941548720002,-0.242637962103,-0.326686650515,1.21846967915e-07,0.0,0.0,0.0,1.21846967915e-07,0.0,0.0,0.0,1.21846967915e-07,0.36284605,0.980665,10.67944185,9e-08,0.0,0.0,0.0,9e-08,0.0,0.0,0.0,9e-08
1538769434044198368,1183,1538769434043311808,base_link,-0.294482927844,-0.224241810534,-0.580346298806,-0.725392024411,1.0,0.0,0.0,0.0,1.0,0.0,0.0,0.0,1.0,-0.0738790482283,-0.253441929817,-0.316185981035,1.21846967915e-07,0.0,0.0,0.0,1.21846967915e-07,0.0,0.0,0.0,1.21846967915e-07,0.2941995,0.8825985,11.77778665,9e-08,0.0,0.0,0.0,9e-08,0.0,0.0,0.0,9e-08
1538769434337887200,1184,1538769434335623968,base_link,-0.30441979141,-0.210346853643,-0.52718417672,-0.764957276962,1.0,0.0,0.0,0.0,1.0,0.0,0.0,0.0,1.0,0.0249846801162,-0.256617993116,-0.327869057655,1.21846967915e-07,0.0,0.0,0.0,1.21846967915e-07,0.0,0.0,0.0,1.21846967915e-07,0.14709975,0.65704555,11.34629405,9e-08,0.0,0.0,0.0,9e-08,0.0,0.0,0.0,9e-08
1538769434783425888,1185,1538769434783115264,base_link,-0.326569214041,-0.187431302865,-0.457102003192,-0.805779010539,1.0,0.0,0.0,0.0,1.0,0.0,0.0,0.0,1.0,0.038023788482,-0.267700463533,-0.281746685505,1.21846967915e-07,0.0,0.0,0.0,1.21846967915e-07,0.0,0.0,0.0,1.21846967915e-07,0.1569064,0.8433719,12.20927925,9e-08,0.0,0.0,0.0,9e-08,0.0,0.0,0.0,9e-08
1538769435138162240,1186,1538769435137838816,base_link,-0.34013809031,-0.171512589949,-0.392621611368,-0.837100819075,1.0,0.0,0.0,0.0,1.0,0.0,0.0,0.0,1.0,0.0767714753747,-0.25587579608,-0.381646007299,1.21846967915e-07,0.0,0.0,0.0,1.21846967915e-07,0.0,0.0,0.0,1.21846967915e-07,0.1569064,0.99047165,11.24822755,9e-08,0.0,0.0,0.0,9e-08,0.0,0.0,0.0,9e-08
1538769435626865504,1187,1538769435626178752,base_link,-0.359111827808,-0.145876760728,-0.291259336119,-0.874600860354,1.0,0.0,0.0,0.0,1.0,0.0,0.0,0.0,1.0,-0.0635573267937,-0.321420609951,-0.368810921907,1.21846967915e-07,0.0,0.0,0.0,1.21846967915e-07,0.0,0.0,0.0,1.21846967915e-07,0.24516625,0.980665,11.8268199,9e-08,0.0,0.0,0.0,9e-08,0.0,0.0,0.0,9e-08
1538769435967511232,1188,1538769435967141152,base_link,-0.373880367611,-0.116339378088,-0.207795673205,-0.896381379781,1.0,0.0,0.0,0.0,1.0,0.0,0.0,0.0,1.0,-0.0682359263301,-0.377490013838,-0.310422033072,1.21846967915e-07,0.0,0.0,0.0,1.21846967915e-07,0.0,0.0,0.0,1.21846967915e-07,0.4118793,0.7256921,13.2193642,9e-08,0.0,0.0,0.0,9e-08,0.0,0.0,0.0,9e-08
1538769436440370112,1189,1538769436438026848,base_link,-0.370356344855,-0.0634973328659,-0.111753420021,-0.919954042145,1.0,0.0,0.0,0.0,1.0,0.0,0.0,0.0,1.0,-0.0293519757688,-0.364071726799,-0.392521262169,1.21846967915e-07,0.0,0.0,0.0,1.21846967915e-07,0.0,0.0,0.0,1.21846967915e-07,0.5491724,0.980665,14.40596885,9e-08,0.0,0.0,0.0,9e-08,0.0,0.0,0.0,9e-08
1538769436866559616,1190,1538769436865033920,base_link,-0.369849948465,-0.0163105823661,-0.0071774296258,-0.928920591346,1.0,0.0,0.0,0.0,1.0,0.0,0.0,0.0,1.0,-0.119965285063,-0.399136155844,-0.268225610256,1.21846967915e-07,0.0,0.0,0.0,1.21846967915e-07,0.0,0.0,0.0,1.21846967915e-07,0.46091255,0.79433865,14.709975,9e-08,0.0,0.0,0.0,9e-08,0.0,0.0,0.0,9e-08
1538769437268824128,1191,1538769437268607200,base_link,-0.35032734661,0.0279847986894,0.0786568105526,-0.932899087476,1.0,0.0,0.0,0.0,1.0,0.0,0.0,0.0,1.0,-0.184740811586,-0.351147413254,-0.389385730028,1.21846967915e-07,0.0,0.0,0.0,1.21846967915e-07,0.0,0.0,0.0,1.21846967915e-07,0.51975245,0.95124505,14.121576,9e-08,0.0,0.0,0.0,9e-08,0.0,0.0,0.0,9e-08
1538769437723508320,1192,1538769437723109696,base_link,-0.317398439987,0.0672112512915,0.176341233078,-0.929324834226,1.0,0.0,0.0,0.0,1.0,0.0,0.0,0.0,1.0,-0.126322388649,-0.35386967659,-0.240903884172,1.21846967915e-07,0.0,0.0,0.0,1.21846967915e-07,0.0,0.0,0.0,1.21846967915e-07,0.42168595,0.4903325,14.4353888,9e-08,0.0,0.0,0.0,9e-08,0.0,0.0,0.0,9e-08
1538769438107191040,1193,1538769438105442880,base_link,-0.309465390424,0.0979426666658,0.24248714773,-0.914241975279,1.0,0.0,0.0,0.0,1.0,0.0,0.0,0.0,1.0,0.0855887383223,-0.272655516863,-0.309633970261,1.21846967915e-07,0.0,0.0,0.0,1.21846967915e-07,0.0,0.0,0.0,1.21846967915e-07,0.08825985,0.6080123,13.28801075,9e-08,0.0,0.0,0.0,9e-08,0.0,0.0,0.0,9e-08
1538769438421987520,1194,1538769438421435744,base_link,-0.328733335335,0.127911375531,0.28925616523,-0.889889849996,1.0,0.0,0.0,0.0,1.0,0.0,0.0,0.0,1.0,0.197667270899,-0.270628452301,-0.260153979063,1.21846967915e-07,0.0,0.0,0.0,1.21846967915e-07,0.0,0.0,0.0,1.21846967915e-07,0.0392266,0.44129925,12.2975391,9e-08,0.0,0.0,0.0,9e-08,0.0,0.0,0.0,9e-08
1538769438756879776,1195,1538769438756569856,base_link,-0.33680385163,0.161972024396,0.338815256641,-0.863442210404,1.0,0.0,0.0,0.0,1.0,0.0,0.0,0.0,1.0,-0.0129815032706,-0.256882846355,-0.294094771147,1.21846967915e-07,0.0,0.0,0.0,1.21846967915e-07,0.0,0.0,0.0,1.21846967915e-07,0.26477955,1.12776475,13.01342455,9e-08,0.0,0.0,0.0,9e-08,0.0,0.0,0.0,9e-08
1538769439023814816,1196,1538769439023149600,base_link,-0.331394509315,0.172429539791,0.388550918804,-0.842302746345,1.0,0.0,0.0,0.0,1.0,0.0,0.0,0.0,1.0,-0.0528554655612,-0.256191939116,-0.36089643836,1.21846967915e-07,0.0,0.0,0.0,1.21846967915e-07,0.0,0.0,0.0,1.21846967915e-07,0.24516625,0.79433865,12.28773245,9e-08,0.0,0.0,0.0,9e-08,0.0,0.0,0.0,9e-08
1538769439373055200,1197,1538769439372731712,base_link,-0.203806322612,0.132375191566,0.462276209089,-0.852783969146,1.0,0.0,0.0,0.0,1.0,0.0,0.0,0.0,1.0,-1.17550706863,-0.162547081709,-0.202232569456,1.21846967915e-07,0.0,0.0,0.0,1.21846967915e-07,0.0,0.0,0.0,1.21846967915e-07,0.28439285,0.7060788,12.69961175,9e-08,0.0,0.0,0.0,9e-08,0.0,0.0,0.0,9e-08
1538769439976159264,1198,1538769439975774528,base_link,0.0309752204865,0.00930725292123,0.511942003832,-0.85841091295,1.0,0.0,0.0,0.0,1.0,0.0,0.0,0.0,1.0,-0.591585814953,0.0124679673463,-0.0678963363171,1.21846967915e-07,0.0,0.0,0.0,1.21846967915e-07,0.0,0.0,0.0,1.21846967915e-07,-0.22555295,0.42168595,10.44408225,9e-08,0.0,0.0,0.0,9e-08,0.0,0.0,0.0,9e-08
1538769440372825344,1199,1538769440372525280,base_link,0.0978872614451,-0.0344234369513,0.510274959644,-0.853728631707,1.0,0.0,0.0,0.0,1.0,0.0,0.0,0.0,1.0,-0.229979529977,-0.0212363172323,0.0999589934945,1.21846967915e-07,0.0,0.0,0.0,1.21846967915e-07,0.0,0.0,0.0,1.21846967915e-07,-0.2157463,0.12748645,9.71839015,9e-08,0.0,0.0,0.0,9e-08,0.0,0.0,0.0,9e-08
1538769440861157856,1200,1538769440860787680,base_link,0.135204259428,-0.0601679314398,0.475475302334,-0.867192519069,1.0,0.0,0.0,0.0,1.0,0.0,0.0,0.0,1.0,-0.133182659745,0.0134915523231,0.147331207991,1.21846967915e-07,0.0,0.0,0.0,1.21846967915e-07,0.0,0.0,0.0,1.21846967915e-07,-0.10787315,0.24516625,9.16921775,9e-08,0.0,0.0,0.0,9e-08,0.0,0.0,0.0,9e-08
1538769441216932224,1201,1538769441216497312,base_link,0.126990532946,-0.0632008895298,0.451170646832,-0.881092560145,1.0,0.0,0.0,0.0,1.0,0.0,0.0,0.0,1.0,0.162338271737,0.0151461148635,0.180308446288,1.21846967915e-07,0.0,0.0,0.0,1.21846967915e-07,0.0,0.0,0.0,1.21846967915e-07,-0.2157463,0.20593965,8.9828914,9e-08,0.0,0.0,0.0,9e-08,0.0,0.0,0.0,9e-08
1538769441678687904,1202,1538769441678136448,base_link,0.0928133766411,-0.0550641217168,0.418967200433,-0.901565363453,1.0,0.0,0.0,0.0,1.0,0.0,0.0,0.0,1.0,0.192104622722,0.00998275075108,0.158341616392,1.21846967915e-07,0.0,0.0,0.0,1.21846967915e-07,0.0,0.0,0.0,1.21846967915e-07,-0.14709975,0.4118793,9.56148375,9e-08,0.0,0.0,0.0,9e-08,0.0,0.0,0.0,9e-08
1538769441987886976,1203,1538769441987412256,base_link,0.0611804165893,-0.0453075286482,0.406280801754,-0.910571301217,1.0,0.0,0.0,0.0,1.0,0.0,0.0,0.0,1.0,0.283222973347,0.023021992296,0.0787275657058,1.21846967915e-07,0.0,0.0,0.0,1.21846967915e-07,0.0,0.0,0.0,1.21846967915e-07,-0.2745862,0.16671305,9.5516771,9e-08,0.0,0.0,0.0,9e-08,0.0,0.0,0.0,9e-08
1538769442497140064,1204,1538769442494374464,base_link,0.0106532195658,-0.0298300233867,0.382673115491,-0.923340655066,1.0,0.0,0.0,0.0,1.0,0.0,0.0,0.0,1.0,0.145801305771,0.0210482627153,0.0416897088289,1.21846967915e-07,0.0,0.0,0.0,1.21846967915e-07,0.0,0.0,0.0,1.21846967915e-07,-0.1765197,0.48052585,9.56148375,9e-08,0.0,0.0,0.0,9e-08,0.0,0.0,0.0,9e-08
1538769442871997920,1205,1538769442871658592,base_link,-0.0132211434643,-0.0231640103148,0.382996757368,-0.923364561718,1.0,0.0,0.0,0.0,1.0,0.0,0.0,0.0,1.0,0.100352264941,0.0178500730544,-0.0248993895948,1.21846967915e-07,0.0,0.0,0.0,1.21846967915e-07,0.0,0.0,0.0,1.21846967915e-07,-0.12748645,0.50013915,9.91452315,9e-08,0.0,0.0,0.0,9e-08,0.0,0.0,0.0,9e-08
1538769443130947104,1206,1538769443130457696,base_link,-0.0280770777444,-0.0186006672789,0.386683724448,-0.921597195161,1.0,0.0,0.0,0.0,1.0,0.0,0.0,0.0,1.0,0.148540750146,-0.00436657341197,-0.00314530055039,1.21846967915e-07,0.0,0.0,0.0,1.21846967915e-07,0.0,0.0,0.0,1.21846967915e-07,-0.06864655,0.2549729,9.34573745,9e-08,0.0,0.0,0.0,9e-08,0.0,0.0,0.0,9e-08
1538769443686745312,1207,1538769443683601248,base_link,-0.0431154007012,-0.00033610273548,0.377162062212,-0.925143085196,1.0,0.0,0.0,0.0,1.0,0.0,0.0,0.0,1.0,-0.0108522176743,-0.0468315817416,-0.0419492833316,1.21846967915e-07,0.0,0.0,0.0,1.21846967915e-07,0.0,0.0,0.0,1.21846967915e-07,-0.0196133,0.7649187,11.81701325,9e-08,0.0,0.0,0.0,9e-08,0.0,0.0,0.0,9e-08
1538769444105306912,1208,1538769444104778432,base_link,-0.0384244128583,0.00353500179414,0.390661666698,-0.919725247251,1.0,0.0,0.0,0.0,1.0,0.0,0.0,0.0,1.0,0.110214322805,-0.024342186749,-0.0695114210248,1.21846967915e-07,0.0,0.0,0.0,1.21846967915e-07,0.0,0.0,0.0,1.21846967915e-07,-0.1176798,0.36284605,10.1596894,9e-08,0.0,0.0,0.0,9e-08,0.0,0.0,0.0,9e-08
1538769444536048416,1209,1538769444535143616,base_link,-0.0359975264413,0.0127830883348,0.396198942203,-0.917369701342,1.0,0.0,0.0,0.0,1.0,0.0,0.0,0.0,1.0,-0.0330542176962,-0.0407116115093,0.00922781415284,1.21846967915e-07,0.0,0.0,0.0,1.21846967915e-07,0.0,0.0,0.0,1.21846967915e-07,0.02941995,0.196133,10.8461549,9e-08,0.0,0.0,0.0,9e-08,0.0,0.0,0.0,9e-08
1538769444882209216,1210,1538769444881738688,base_link,-0.0204845993971,0.00877007833569,0.390427063693,-0.920364153392,1.0,0.0,0.0,0.0,1.0,0.0,0.0,0.0,1.0,-0.101634375751,-0.00401959940791,0.014605242759,1.21846967915e-07,0.0,0.0,0.0,1.21846967915e-07,0.0,0.0,0.0,1.21846967915e-07,0.0392266,0.4511059,9.97336305,9e-08,0.0,0.0,0.0,9e-08,0.0,0.0,0.0,9e-08
1538769445375563104,1211,1538769445374990912,base_link,-0.0129050744136,0.00462826919412,0.391234318076,-0.920188973276,1.0,0.0,0.0,0.0,1.0,0.0,0.0,0.0,1.0,-0.00921702571213,0.00902242027223,0.0206019096076,1.21846967915e-07,0.0,0.0,0.0,1.21846967915e-07,0.0,0.0,0.0,1.21846967915e-07,0.0,0.392266,9.67916355,9e-08,0.0,0.0,0.0,9e-08,0.0,0.0,0.0,9e-08
1538769445761633664,1212,1538769445761384992,base_link,-0.0200367148885,0.00714209251141,0.383057989733,-0.923479343068,1.0,0.0,0.0,0.0,1.0,0.0,0.0,0.0,1.0,0.116243362427,-0.00257376534864,0.055342450738,1.21846967915e-07,0.0,0.0,0.0,1.21846967915e-07,0.0,0.0,0.0,1.21846967915e-07,0.06864655,0.53936575,10.395049,9e-08,0.0,0.0,0.0,9e-08,0.0,0.0,0.0,9e-08
1538769446138366368,1213,1538769446137954336,base_link,-0.0206042934598,0.00382442049547,0.379300501592,-0.925036197341,1.0,0.0,0.0,0.0,1.0,0.0,0.0,0.0,1.0,-0.00465040002018,0.027418397367,-0.0748843923211,1.21846967915e-07,0.0,0.0,0.0,1.21846967915e-07,0.0,0.0,0.0,1.21846967915e-07,0.0784532,0.6668522,8.83579165,9e-08,0.0,0.0,0.0,9e-08,0.0,0.0,0.0,9e-08
1538769446563093824,1214,1538769446562564672,base_link,-0.0184891529002,-0.00157514546077,0.390663458883,-0.920346528236,1.0,0.0,0.0,0.0,1.0,0.0,0.0,0.0,1.0,-0.0279599800706,0.00714779924601,-0.0138658564538,1.21846967915e-07,0.0,0.0,0.0,1.21846967915e-07,0.0,0.0,0.0,1.21846967915e-07,0.08825985,0.16671305,9.67916355,9e-08,0.0,0.0,0.0,9e-08,0.0,0.0,0.0,9e-08
1538769446911585056,1215,1538769446909808256,base_link,-0.0219536078465,0.000364400213635,0.381748475336,-0.924005415511,1.0,0.0,0.0,0.0,1.0,0.0,0.0,0.0,1.0,-0.0188352707773,-0.0218265876174,0.0939009636641,1.21846967915e-07,0.0,0.0,0.0,1.21846967915e-07,0.0,0.0,0.0,1.21846967915e-07,0.0980665,0.44129925,10.6304086,9e-08,0.0,0.0,0.0,9e-08,0.0,0.0,0.0,9e-08
1538769447197842720,1216,1538769447197319360,base_link,-0.0137143165056,0.00178793608259,0.36954639219,-0.929109350306,1.0,0.0,0.0,0.0,1.0,0.0,0.0,0.0,1.0,-0.0540318004787,-0.0292390435934,0.0700894147158,1.21846967915e-07,0.0,0.0,0.0,1.21846967915e-07,0.0,0.0,0.0,1.21846967915e-07,0.18632635,0.6080123,10.42446895,9e-08,0.0,0.0,0.0,9e-08,0.0,0.0,0.0,9e-08
1538769447676806240,1217,1538769447671278240,base_link,-0.0154364923056,0.00769638813691,0.372251398434,-0.927971646484,1.0,0.0,0.0,0.0,1.0,0.0,0.0,0.0,1.0,0.0989122539759,-0.0276991110295,-0.077080078423,1.21846967915e-07,0.0,0.0,0.0,1.21846967915e-07,0.0,0.0,0.0,1.21846967915e-07,0.1372931,0.392266,10.4146623,9e-08,0.0,0.0,0.0,9e-08,0.0,0.0,0.0,9e-08
1538769448080289536,1218,1538769448079653248,base_link,-0.0268046916582,0.0185489871636,0.374094782643,-0.926817423865,1.0,0.0,0.0,0.0,1.0,0.0,0.0,0.0,1.0,0.0668008774519,-0.0381631441414,0.0317185819149,1.21846967915e-07,0.0,0.0,0.0,1.21846967915e-07,0.0,0.0,0.0,1.21846967915e-07,0.2157463,0.30400615,10.52253545,9e-08,0.0,0.0,0.0,9e-08,0.0,0.0,0.0,9e-08
1538769448545670688,1219,1538769448544972480,base_link,-0.0350837415664,0.0264141830951,0.366840285138,-0.929246806402,1.0,0.0,0.0,0.0,1.0,0.0,0.0,0.0,1.0,0.00170712824911,0.0140709215775,-0.0403966158628,1.21846967915e-07,0.0,0.0,0.0,1.21846967915e-07,0.0,0.0,0.0,1.21846967915e-07,0.2157463,0.51975245,10.2773692,9e-08,0.0,0.0,0.0,9e-08,0.0,0.0,0.0,9e-08
1538769448873707872,1220,1538769448872750464,base_link,-0.0312211339611,0.0208314879171,0.371419594842,-0.927706189735,1.0,0.0,0.0,0.0,1.0,0.0,0.0,0.0,1.0,-0.0438551977277,0.0309986434877,-0.0114857852459,1.21846967915e-07,0.0,0.0,0.0,1.21846967915e-07,0.0,0.0,0.0,1.21846967915e-07,0.2157463,0.4511059,9.65955025,9e-08,0.0,0.0,0.0,9e-08,0.0,0.0,0.0,9e-08
1538769449266946240,1221,1538769449266006976,base_link,-0.0355575962167,0.0159583509052,0.375287429366,-0.926088728874,1.0,0.0,0.0,0.0,1.0,0.0,0.0,0.0,1.0,-0.00794983375818,0.0260761212558,-0.0726162269711,1.21846967915e-07,0.0,0.0,0.0,1.21846967915e-07,0.0,0.0,0.0,1.21846967915e-07,0.196133,0.38245935,9.3751574,9e-08,0.0,0.0,0.0,9e-08,0.0,0.0,0.0,9e-08
1538769449751275424,1222,1538769449750231232,base_link,-0.0379639706856,0.0158691405727,0.376405299097,-0.925540900295,1.0,0.0,0.0,0.0,1.0,0.0,0.0,0.0,1.0,-0.0264544934034,-0.0106431879103,-0.00946149416268,1.21846967915e-07,0.0,0.0,0.0,1.21846967915e-07,0.0,0.0,0.0,1.21846967915e-07,0.26477955,0.38245935,9.73800345,9e-08,0.0,0.0,0.0,9e-08,0.0,0.0,0.0,9e-08
1538769450153720416,1223,1538769450153434240,base_link,-0.0220832988813,0.0124889407813,0.373593235254,-0.927245624871,1.0,0.0,0.0,0.0,1.0,0.0,0.0,0.0,1.0,-0.305021047592,-0.00637708883733,0.00886964518577,1.21846967915e-07,0.0,0.0,0.0,1.21846967915e-07,0.0,0.0,0.0,1.21846967915e-07,0.26477955,0.51975245,9.42419065,9e-08,0.0,0.0,0.0,9e-08,0.0,0.0,0.0,9e-08
1538769450536177664,1224,1538769450535771328,base_link,0.0580161463514,-0.0168021328541,0.371003557487,-0.926665082663,1.0,0.0,0.0,0.0,1.0,0.0,0.0,0.0,1.0,-0.397069662809,-0.0298562329262,0.0437970422208,1.21846967915e-07,0.0,0.0,0.0,1.21846967915e-07,0.0,0.0,0.0,1.21846967915e-07,0.2353596,0.46091255,10.24794925,9e-08,0.0,0.0,0.0,9e-08,0.0,0.0,0.0,9e-08
1538769450999894048,1225,1538769450999302432,base_link,0.120395287188,-0.032258707155,0.346133549056,-0.929868763242,1.0,0.0,0.0,0.0,1.0,0.0,0.0,0.0,1.0,-0.201395213604,-0.0577017962933,0.138966619968,1.21846967915e-07,0.0,0.0,0.0,1.21846967915e-07,0.0,0.0,0.0,1.21846967915e-07,0.4118793,0.10787315,11.5326204,9e-08,0.0,0.0,0.0,9e-08,0.0,0.0,0.0,9e-08
1538769451382013824,1226,1538769451381641920,base_link,0.116663491858,-0.022649352515,0.314411985927,-0.941818315602,1.0,0.0,0.0,0.0,1.0,0.0,0.0,0.0,1.0,0.130056679249,-0.0573889054358,0.226979136467,1.21846967915e-07,0.0,0.0,0.0,1.21846967915e-07,0.0,0.0,0.0,1.21846967915e-07,0.46091255,0.2745862,11.0030613,9e-08,0.0,0.0,0.0,9e-08,0.0,0.0,0.0,9e-08
1538769451714057824,1227,1538769451713481952,base_link,0.085786781858,-0.00697161949292,0.284425408971,-0.954826796499,1.0,0.0,0.0,0.0,1.0,0.0,0.0,0.0,1.0,0.198907002807,-0.0585376881063,0.168975889683,1.21846967915e-07,0.0,0.0,0.0,1.21846967915e-07,0.0,0.0,0.0,1.21846967915e-07,0.4511059,0.2353596,11.77778665,9e-08,0.0,0.0,0.0,9e-08,0.0,0.0,0.0,9e-08
1538769452114744608,1228,1538769452114337184,base_link,0.0590308363412,0.00482332634746,0.251761086754,-0.965975388444,1.0,0.0,0.0,0.0,1.0,0.0,0.0,0.0,1.0,0.224761024117,0.0194085706025,0.130595594645,1.21846967915e-07,0.0,0.0,0.0,1.21846967915e-07,0.0,0.0,0.0,1.21846967915e-07,0.20593965,0.4314926,10.30678915,9e-08,0.0,0.0,0.0,9e-08,0.0,0.0,0.0,9e-08
1538769452453015488,1229,1538769452452683968,base_link,0.0155649767293,0.0128003943485,0.233616940852,-0.972119851845,1.0,0.0,0.0,0.0,1.0,0.0,0.0,0.0,1.0,0.163119286299,0.0181751586497,0.101374872029,1.21846967915e-07,0.0,0.0,0.0,1.21846967915e-07,0.0,0.0,0.0,1.21846967915e-07,0.24516625,0.51975245,10.1204628,9e-08,0.0,0.0,0.0,9e-08,0.0,0.0,0.0,9e-08
1538769452899789120,1230,1538769452899321600,base_link,-0.017682967395,0.0154338008755,0.226977046547,-0.973617240396,1.0,0.0,0.0,0.0,1.0,0.0,0.0,0.0,1.0,0.151208728552,0.00777717167512,0.0789603441954,1.21846967915e-07,0.0,0.0,0.0,1.21846967915e-07,0.0,0.0,0.0,1.21846967915e-07,0.10787315,0.2353596,10.1204628,9e-08,0.0,0.0,0.0,9e-08,0.0,0.0,0.0,9e-08
1538769453253484960,1231,1538769453253099008,base_link,-0.0295241144511,0.0149555501421,0.216760634916,-0.975663612797,1.0,0.0,0.0,0.0,1.0,0.0,0.0,0.0,1.0,-0.0540435314178,0.0182997174561,0.0500401072204,1.21846967915e-07,0.0,0.0,0.0,1.21846967915e-07,0.0,0.0,0.0,1.21846967915e-07,0.0392266,0.48052585,9.5124505,9e-08,0.0,0.0,0.0,9e-08,0.0,0.0,0.0,9e-08
1538769453824612096,1232,1538769453824208352,base_link,-0.0332550623083,0.00274310247231,0.244661704389,-0.969034172063,1.0,0.0,0.0,0.0,1.0,0.0,0.0,0.0,1.0,0.0860378071666,0.0190172065049,-0.155546888709,1.21846967915e-07,0.0,0.0,0.0,1.21846967915e-07,0.0,0.0,0.0,1.21846967915e-07,-0.10787315,0.44129925,7.01175475,9e-08,0.0,0.0,0.0,9e-08,0.0,0.0,0.0,9e-08
1538769454111219008,1233,1538769454110744672,base_link,-0.0484235158783,0.00695959070593,0.250137035281,-0.966973728075,1.0,0.0,0.0,0.0,1.0,0.0,0.0,0.0,1.0,0.0935151726007,7.12219625711e-05,0.0441272743046,1.21846967915e-07,0.0,0.0,0.0,1.21846967915e-07,0.0,0.0,0.0,1.21846967915e-07,0.0196133,0.26477955,10.8657682,9e-08,0.0,0.0,0.0,9e-08,0.0,0.0,0.0,9e-08
1538769454562644224,1234,1538769454560223584,base_link,-0.0486590377775,0.00311415577524,0.248844938897,-0.96731525185,1.0,0.0,0.0,0.0,1.0,0.0,0.0,0.0,1.0,0.0971701517701,0.0073765758425,-0.087960742414,1.21846967915e-07,0.0,0.0,0.0,1.21846967915e-07,0.0,0.0,0.0,1.21846967915e-07,-0.0980665,0.6668522,9.1201845,9e-08,0.0,0.0,0.0,9e-08,0.0,0.0,0.0,9e-08
1538769454831795680,1235,1538769454831317984,base_link,-0.0593750993999,0.00553943876494,0.256505859715,-0.964701330009,1.0,0.0,0.0,0.0,1.0,0.0,0.0,0.0,1.0,0.0153492400423,0.00524195749313,-0.00541126914322,1.21846967915e-07,0.0,0.0,0.0,1.21846967915e-07,0.0,0.0,0.0,1.21846967915e-07,0.0980665,0.3138128,10.9246081,9e-08,0.0,0.0,0.0,9e-08,0.0,0.0,0.0,9e-08
1538769455263736352,1236,1538769455263322400,base_link,-0.0571779775681,0.00212507776229,0.252466453206,-0.96591244579,1.0,0.0,0.0,0.0,1.0,0.0,0.0,0.0,1.0,-0.108721032739,-0.00303859077394,-0.00307710235938,1.21846967915e-07,0.0,0.0,0.0,1.21846967915e-07,0.0,0.0,0.0,1.21846967915e-07,-0.0588399,0.51975245,9.81645665,9e-08,0.0,0.0,0.0,9e-08,0.0,0.0,0.0,9e-08
1538769455653756672,1237,1538769455651715968,base_link,-0.0400185749663,-0.00602814710901,0.257006059859,-0.965562043732,1.0,0.0,0.0,0.0,1.0,0.0,0.0,0.0,1.0,-0.126862630248,0.0131280962378,-0.0516484491527,1.21846967915e-07,0.0,0.0,0.0,1.21846967915e-07,0.0,0.0,0.0,1.21846967915e-07,-0.04903325,0.53936575,9.7478101,9e-08,0.0,0.0,0.0,9e-08,0.0,0.0,0.0,9e-08
1538769456064501792,1238,1538769456064183584,base_link,-0.0301905686193,-0.00779401841812,0.263865554628,-0.964055367665,1.0,0.0,0.0,0.0,1.0,0.0,0.0,0.0,1.0,-0.0100160976872,-0.00797954760492,0.00426181405783,1.21846967915e-07,0.0,0.0,0.0,1.21846967915e-07,0.0,0.0,0.0,1.21846967915e-07,-0.0392266,0.30400615,9.89490985,9e-08,0.0,0.0,0.0,9e-08,0.0,0.0,0.0,9e-08
1538769456460684896,1239,1538769456460270304,base_link,-0.0238702951957,-0.00646550793551,0.260195210824,-0.965239275247,1.0,0.0,0.0,0.0,1.0,0.0,0.0,0.0,1.0,-0.0434396117926,-0.0351184047759,0.0152772814035,1.21846967915e-07,0.0,0.0,0.0,1.21846967915e-07,0.0,0.0,0.0,1.21846967915e-07,0.08825985,0.3138128,10.7284751,9e-08,0.0,0.0,0.0,9e-08,0.0,0.0,0.0,9e-08
1538769456946966912,1240,1538769456946164352,base_link,-0.0162745658501,-0.00243693844701,0.249849908529,-0.968144732489,1.0,0.0,0.0,0.0,1.0,0.0,0.0,0.0,1.0,-0.0493579618633,-0.0133191738278,0.0536984093487,1.21846967915e-07,0.0,0.0,0.0,1.21846967915e-07,0.0,0.0,0.0,1.21846967915e-07,-0.02941995,0.4314926,10.0616229,9e-08,0.0,0.0,0.0,9e-08,0.0,0.0,0.0,9e-08
1538769457302456704,1241,1538769457301066688,base_link,-0.00747818692427,-0.0024112629542,0.253443135604,-0.967318375483,1.0,0.0,0.0,0.0,1.0,0.0,0.0,0.0,1.0,-0.00682795140892,-0.0266906619072,-0.0321378968656,1.21846967915e-07,0.0,0.0,0.0,1.21846967915e-07,0.0,0.0,0.0,1.21846967915e-07,-0.04903325,0.4903325,10.4146623,9e-08,0.0,0.0,0.0,9e-08,0.0,0.0,0.0,9e-08
1538769457592524000,1242,1538769457588402720,base_link,-0.00647977866591,0.000671724851261,0.25287156001,-0.967477925015,1.0,0.0,0.0,0.0,1.0,0.0,0.0,0.0,1.0,-0.00459520611912,-0.0215663518757,0.0354455634952,1.21846967915e-07,0.0,0.0,0.0,1.21846967915e-07,0.0,0.0,0.0,1.21846967915e-07,-0.0588399,0.42168595,10.1596894,9e-08,0.0,0.0,0.0,9e-08,0.0,0.0,0.0,9e-08
1538769458098008192,1243,1538769458097553024,base_link,-0.00935691230719,0.00702841160157,0.248652210314,-0.968522136003,1.0,0.0,0.0,0.0,1.0,0.0,0.0,0.0,1.0,0.103145636618,-0.0385628268123,0.0656706914306,1.21846967915e-07,0.0,0.0,0.0,1.21846967915e-07,0.0,0.0,0.0,1.21846967915e-07,-0.00980665,0.1765197,11.15016105,9e-08,0.0,0.0,0.0,9e-08,0.0,0.0,0.0,9e-08
1538769458529226560,1244,1538769458528955968,base_link,-0.00832219045664,0.0135997683556,0.231244402343,-0.972765035264,1.0,0.0,0.0,0.0,1.0,0.0,0.0,0.0,1.0,0.00314699299634,-0.00966922473162,0.0766553208232,1.21846967915e-07,0.0,0.0,0.0,1.21846967915e-07,0.0,0.0,0.0,1.21846967915e-07,-0.02941995,0.57859235,10.50292215,9e-08,0.0,0.0,0.0,9e-08,0.0,0.0,0.0,9e-08
1538769458888169536,1245,1538769458886857600,base_link,-0.0301935265224,0.0166097832292,0.22938210299,-0.972726229155,1.0,0.0,0.0,0.0,1.0,0.0,0.0,0.0,1.0,0.214047893882,0.0109492605552,-0.0530468448997,1.21846967915e-07,0.0,0.0,0.0,1.21846967915e-07,0.0,0.0,0.0,1.21846967915e-07,0.02941995,0.4707192,10.2969825,9e-08,0.0,0.0,0.0,9e-08,0.0,0.0,0.0,9e-08
1538769459270106496,1246,1538769459268355520,base_link,0.0203522457329,0.00271392156546,0.230249495333,-0.972914996607,1.0,0.0,0.0,0.0,1.0,0.0,0.0,0.0,1.0,-1.14110565186,-0.0103566087782,0.113473989069,1.21846967915e-07,0.0,0.0,0.0,1.21846967915e-07,0.0,0.0,0.0,1.21846967915e-07,-0.00980665,0.4314926,10.1596894,9e-08,0.0,0.0,0.0,9e-08,0.0,0.0,0.0,9e-08
1538769459629616416,1247,1538769459629317152,base_link,0.209069934845,-0.0443570946632,0.203611958309,-0.955439365387,1.0,0.0,0.0,0.0,1.0,0.0,0.0,0.0,1.0,-0.780871152878,0.00307607650757,0.123706825078,1.21846967915e-07,0.0,0.0,0.0,1.21846967915e-07,0.0,0.0,0.0,1.21846967915e-07,0.02941995,0.5099458,9.5516771,9e-08,0.0,0.0,0.0,9e-08,0.0,0.0,0.0,9e-08
1538769460144810816,1248,1538769460144536608,base_link,0.312826699042,-0.0543392208558,0.148195225268,-0.936602840403,1.0,0.0,0.0,0.0,1.0,0.0,0.0,0.0,1.0,-0.189104229212,-0.20390149951,0.30064278841,1.21846967915e-07,0.0,0.0,0.0,1.21846967915e-07,0.0,0.0,0.0,1.21846967915e-07,0.2549729,-0.2157463,9.34573745,9e-08,0.0,0.0,0.0,9e-08,0.0,0.0,0.0,9e-08
1538769460503400416,1249,1538769460503036000,base_link,0.35267129679,-0.0376222601854,0.051933560079,-0.933547228209,1.0,0.0,0.0,0.0,1.0,0.0,0.0,0.0,1.0,-0.190891161561,-0.351385325193,0.458416283131,1.21846967915e-07,0.0,0.0,0.0,1.21846967915e-07,0.0,0.0,0.0,1.21846967915e-07,0.6276256,0.16671305,12.09159945,9e-08,0.0,0.0,0.0,9e-08,0.0,0.0,0.0,9e-08
1538769460912009024,1250,1538769460909643200,base_link,0.39211237701,0.00381012974242,-0.0535401252717,-0.918350054006,1.0,0.0,0.0,0.0,1.0,0.0,0.0,0.0,1.0,-0.18237118423,-0.429691463709,0.393670916557,1.21846967915e-07,0.0,0.0,0.0,1.21846967915e-07,0.0,0.0,0.0,1.21846967915e-07,1.2160246,0.06864655,14.38635555,9e-08,0.0,0.0,0.0,9e-08,0.0,0.0,0.0,9e-08
1538769461316445344,1251,1538769461316112608,base_link,0.393753783946,0.063790115177,-0.154685144374,-0.903859106799,1.0,0.0,0.0,0.0,1.0,0.0,0.0,0.0,1.0,0.0329064279795,-0.51487404108,0.337353438139,1.21846967915e-07,0.0,0.0,0.0,1.21846967915e-07,0.0,0.0,0.0,1.21846967915e-07,1.67693715,1.9359608243e-15,15.8083198,9e-08,0.0,0.0,0.0,9e-08,0.0,0.0,0.0,9e-08
1538769461677174464,1252,1538769461676708288,base_link,0.380963184978,0.120609621146,-0.248691950488,-0.882310990944,1.0,0.0,0.0,0.0,1.0,0.0,0.0,0.0,1.0,-0.0438412576914,-0.5199046731,0.438372373581,1.21846967915e-07,0.0,0.0,0.0,1.21846967915e-07,0.0,0.0,0.0,1.21846967915e-07,1.93191005,-0.30400615,15.64160675,9e-08,0.0,0.0,0.0,9e-08,0.0,0.0,0.0,9e-08
1538769462123572640,1253,1538769462121099488,base_link,0.372479550411,0.190501526818,-0.372349041009,-0.828446947285,1.0,0.0,0.0,0.0,1.0,0.0,0.0,0.0,1.0,-0.261538892984,-0.54234534502,0.338887602091,1.21846967915e-07,0.0,0.0,0.0,1.21846967915e-07,0.0,0.0,0.0,1.21846967915e-07,1.96133,0.48052585,17.6715833,9e-08,0.0,0.0,0.0,9e-08,0.0,0.0,0.0,9e-08
1538769462566286656,1254,1538769462565484576,base_link,0.346404680731,0.275961236775,-0.477717960744,-0.758705966068,1.0,0.0,0.0,0.0,1.0,0.0,0.0,0.0,1.0,0.0929675996304,-0.631101131439,0.403852790594,1.21846967915e-07,0.0,0.0,0.0,1.21846967915e-07,0.0,0.0,0.0,1.21846967915e-07,2.353596,-0.3726527,18.3580488,9e-08,0.0,0.0,0.0,9e-08,0.0,0.0,0.0,9e-08
1538769462813026912,1255,1538769462812177728,base_link,0.31993636797,0.313230404988,-0.549134365704,-0.705676187953,1.0,0.0,0.0,0.0,1.0,0.0,0.0,0.0,1.0,-0.0459763556719,-0.650810003281,0.521378576756,1.21846967915e-07,0.0,0.0,0.0,1.21846967915e-07,0.0,0.0,0.0,1.21846967915e-07,2.157463,0.08825985,19.05432095,9e-08,0.0,0.0,0.0,9e-08,0.0,0.0,0.0,9e-08
1538769463318977920,1256,1538769463318407584,base_link,0.236391853536,0.374577359906,-0.673811808501,-0.591429065698,1.0,0.0,0.0,0.0,1.0,0.0,0.0,0.0,1.0,0.342970758677,-0.549248218536,0.17795920372,1.21846967915e-07,0.0,0.0,0.0,1.21846967915e-07,0.0,0.0,0.0,1.21846967915e-07,2.1770763,0.50013915,16.42613875,9e-08,0.0,0.0,0.0,9e-08,0.0,0.0,0.0,9e-08
1538769463645617408,1257,1538769463644732608,base_link,0.122307259265,0.331695537751,-0.754735705484,-0.552623759382,1.0,0.0,0.0,0.0,1.0,0.0,0.0,0.0,1.0,1.09854328632,-0.439511716366,0.257942974567,1.21846967915e-07,0.0,0.0,0.0,1.21846967915e-07,0.0,0.0,0.0,1.21846967915e-07,2.1966896,-0.06864655,17.87752295,9e-08,0.0,0.0,0.0,9e-08,0.0,0.0,0.0,9e-08
1538769464140805920,1258,1538769464140489408,base_link,-0.0544334435156,0.149951792333,-0.861759804791,-0.481582286894,1.0,0.0,0.0,0.0,1.0,0.0,0.0,0.0,1.0,0.913969993591,-0.0992177799344,0.0685500502586,1.21846967915e-07,0.0,0.0,0.0,1.21846967915e-07,0.0,0.0,0.0,1.21846967915e-07,0.67665885,1.0198916,15.4552804,9e-08,0.0,0.0,0.0,9e-08,0.0,0.0,0.0,9e-08
1538769464538761056,1259,1538769464538201920,base_link,-0.132468953274,0.00885602106342,-0.874300706466,-0.466874524881,1.0,0.0,0.0,0.0,1.0,0.0,0.0,0.0,1.0,0.617261826992,0.0838138982654,-0.0257154740393,1.21846967915e-07,0.0,0.0,0.0,1.21846967915e-07,0.0,0.0,0.0,1.21846967915e-07,0.0588399,0.28439285,10.1793027,9e-08,0.0,0.0,0.0,9e-08,0.0,0.0,0.0,9e-08
1538769464928564160,1260,1538769464925025696,base_link,-0.141029783921,-0.0653055391657,-0.873079527262,-0.462144918481,1.0,0.0,0.0,0.0,1.0,0.0,0.0,0.0,1.0,0.120698556304,0.170973688364,-0.0676709786057,1.21846967915e-07,0.0,0.0,0.0,1.21846967915e-07,0.0,0.0,0.0,1.21846967915e-07,-0.02941995,0.5491724,6.99214145,9e-08,0.0,0.0,0.0,9e-08,0.0,0.0,0.0,9e-08
1538769465270847072,1261,1538769465270391104,base_link,-0.105655625914,-0.0762943505296,-0.869188108435,-0.476999049208,1.0,0.0,0.0,0.0,1.0,0.0,0.0,0.0,1.0,-0.144477888942,0.166679427028,-0.129133984447,1.21846967915e-07,0.0,0.0,0.0,1.21846967915e-07,0.0,0.0,0.0,1.21846967915e-07,-0.2549729,0.7256921,7.30595425,9e-08,0.0,0.0,0.0,9e-08,0.0,0.0,0.0,9e-08
1538769465622102528,1262,1538769465619931328,base_link,-0.0516943515428,-0.0598241606235,-0.862598895146,-0.499671802204,1.0,0.0,0.0,0.0,1.0,0.0,0.0,0.0,1.0,-0.161094203591,0.209512814879,-0.127404645085,1.21846967915e-07,0.0,0.0,0.0,1.21846967915e-07,0.0,0.0,0.0,1.21846967915e-07,-0.2941995,0.32361945,6.58026215,9e-08,0.0,0.0,0.0,9e-08,0.0,0.0,0.0,9e-08
1538769466140278752,1263,1538769466139696448,base_link,0.01573070926,-0.0360462717593,-0.859446776267,-0.509710162586,1.0,0.0,0.0,0.0,1.0,0.0,0.0,0.0,1.0,-0.189004272223,0.132907941937,0.0369387045503,1.21846967915e-07,0.0,0.0,0.0,1.21846967915e-07,0.0,0.0,0.0,1.21846967915e-07,-0.4511059,0.04903325,6.3939358,9e-08,0.0,0.0,0.0,9e-08,0.0,0.0,0.0,9e-08
1538769466558788448,1264,1538769466558520320,base_link,0.0763383023093,0.0270825169432,-0.869690202968,-0.486906512319,1.0,0.0,0.0,0.0,1.0,0.0,0.0,0.0,1.0,-0.773083686829,0.0472707003355,0.126495346427,1.21846967915e-07,0.0,0.0,0.0,1.21846967915e-07,0.0,0.0,0.0,1.21846967915e-07,-0.5295591,0.3726527,8.0218397,9e-08,0.0,0.0,0.0,9e-08,0.0,0.0,0.0,9e-08
1538769466962391104,1265,1538769466961995104,base_link,0.14632720829,0.139082319954,-0.87108354101,-0.447725273993,1.0,0.0,0.0,0.0,1.0,0.0,0.0,0.0,1.0,-0.544728517532,-0.00728754606098,0.0999782085419,1.21846967915e-07,0.0,0.0,0.0,1.21846967915e-07,0.0,0.0,0.0,1.21846967915e-07,-0.44129925,0.30400615,9.79684335,9e-08,0.0,0.0,0.0,9e-08,0.0,0.0,0.0,9e-08
1538769467285750176,1266,1538769467284731328,base_link,0.165234008657,0.1842221099,-0.873413461025,-0.419414905204,1.0,0.0,0.0,0.0,1.0,0.0,0.0,0.0,1.0,-0.310578435659,-0.10710439086,0.198666930199,1.21846967915e-07,0.0,0.0,0.0,1.21846967915e-07,0.0,0.0,0.0,1.21846967915e-07,-0.1569064,-0.08825985,10.591182,9e-08,0.0,0.0,0.0,9e-08,0.0,0.0,0.0,9e-08
1538769467764723008,1267,1538769467764484896,base_link,0.169410422773,0.245479196759,-0.895698666303,-0.329793832261,1.0,0.0,0.0,0.0,1.0,0.0,0.0,0.0,1.0,-0.203997194767,-0.266070127487,0.352283775806,1.21846967915e-07,0.0,0.0,0.0,1.21846967915e-07,0.0,0.0,0.0,1.21846967915e-07,0.0,0.30400615,12.66038515,9e-08,0.0,0.0,0.0,9e-08,0.0,0.0,0.0,9e-08
1538769468233062656,1268,1538769468228453952,base_link,0.151697467082,0.312014345875,-0.90800801973,-0.23485391748,1.0,0.0,0.0,0.0,1.0,0.0,0.0,0.0,1.0,-0.13495194912,-0.349506646395,0.346105992794,1.21846967915e-07,0.0,0.0,0.0,1.21846967915e-07,0.0,0.0,0.0,1.21846967915e-07,0.0392266,0.0392266,13.83718315,9e-08,0.0,0.0,0.0,9e-08,0.0,0.0,0.0,9e-08
1538769468733763584,1269,1538769468733359040,base_link,0.099956241289,0.357321831668,-0.920674799274,-0.121193120363,1.0,0.0,0.0,0.0,1.0,0.0,0.0,0.0,1.0,-0.249672740698,-0.414602130651,0.328487753868,1.21846967915e-07,0.0,0.0,0.0,1.21846967915e-07,0.0,0.0,0.0,1.21846967915e-07,0.3334261,0.06864655,14.71978165,9e-08,0.0,0.0,0.0,9e-08,0.0,0.0,0.0,9e-08
1538769469089361504,1270,1538769469087800288,base_link,0.058819086584,0.378217614694,-0.923390809433,-0.0290028282084,1.0,0.0,0.0,0.0,1.0,0.0,0.0,0.0,1.0,0.0026820525527,-0.432497113943,0.372012853622,1.21846967915e-07,0.0,0.0,0.0,1.21846967915e-07,0.0,0.0,0.0,1.21846967915e-07,0.44129925,-0.1569064,14.40596885,9e-08,0.0,0.0,0.0,9e-08,0.0,0.0,0.0,9e-08
1538769469454188352,1271,1538769469453692416,base_link,0.00595664236403,0.377650087171,-0.923240196446,0.0705157410664,1.0,0.0,0.0,0.0,1.0,0.0,0.0,0.0,1.0,0.0185437817127,-0.486052542925,0.354421108961,1.21846967915e-07,0.0,0.0,0.0,1.21846967915e-07,0.0,0.0,0.0,1.21846967915e-07,0.46091255,0.2157463,15.60238015,9e-08,0.0,0.0,0.0,9e-08,0.0,0.0,0.0,9e-08
1538769469859644928,1272,1538769469859307616,base_link,-0.0561505398181,0.394794154477,-0.900037330656,0.175833716604,1.0,0.0,0.0,0.0,1.0,0.0,0.0,0.0,1.0,0.0118192508817,-0.464728951454,0.352614164352,1.21846967915e-07,0.0,0.0,0.0,1.21846967915e-07,0.0,0.0,0.0,1.21846967915e-07,0.8041453,0.16671305,16.60265845,9e-08,0.0,0.0,0.0,9e-08,0.0,0.0,0.0,9e-08
1538769470268701568,1273,1538769470268035040,base_link,-0.101722252054,0.330942906049,-0.896425381354,0.27667835484,1.0,0.0,0.0,0.0,1.0,0.0,0.0,0.0,1.0,0.645309150219,-0.445533305407,0.306192219257,1.21846967915e-07,0.0,0.0,0.0,1.21846967915e-07,0.0,0.0,0.0,1.21846967915e-07,0.48052585,0.10787315,14.9257213,9e-08,0.0,0.0,0.0,9e-08,0.0,0.0,0.0,9e-08
1538769470722705504,1274,1538769470722363392,base_link,-0.0997484174014,0.159759932581,-0.909759921621,0.369951215947,1.0,0.0,0.0,0.0,1.0,0.0,0.0,0.0,1.0,0.752278923988,-0.240412786603,0.153068974614,1.21846967915e-07,0.0,0.0,0.0,1.21846967915e-07,0.0,0.0,0.0,1.21846967915e-07,0.196133,0.53936575,15.34740725,9e-08,0.0,0.0,0.0,9e-08,0.0,0.0,0.0,9e-08
1538769471170650048,1275,1538769471170249184,base_link,-0.0688988249289,0.014499990261,-0.912745027903,0.402416719637,1.0,0.0,0.0,0.0,1.0,0.0,0.0,0.0,1.0,0.698845744133,-0.0769217386842,0.0991769656539,1.21846967915e-07,0.0,0.0,0.0,1.21846967915e-07,0.0,0.0,0.0,1.21846967915e-07,-0.22555295,-0.0196133,12.748645,9e-08,0.0,0.0,0.0,9e-08,0.0,0.0,0.0,9e-08
1538769471501580064,1276,1538769471501225856,base_link,-0.0330923579839,-0.0781667261117,-0.900518109657,0.426452802725,1.0,0.0,0.0,0.0,1.0,0.0,0.0,0.0,1.0,0.364933222532,-0.0054543488659,0.0840102434158,1.21846967915e-07,0.0,0.0,0.0,1.21846967915e-07,0.0,0.0,0.0,1.21846967915e-07,-0.36284605,0.65704555,10.8069283,9e-08,0.0,0.0,0.0,9e-08,0.0,0.0,0.0,9e-08
1538769472009755648,1277,1538769472007187104,base_link,0.00480979524596,-0.116015691175,-0.902003748668,0.415820228776,1.0,0.0,0.0,0.0,1.0,0.0,0.0,0.0,1.0,0.093368075788,0.0998315066099,-0.118366912007,1.21846967915e-07,0.0,0.0,0.0,1.21846967915e-07,0.0,0.0,0.0,1.21846967915e-07,-0.4314926,0.46091255,8.44352565,9e-08,0.0,0.0,0.0,9e-08,0.0,0.0,0.0,9e-08
1538769472342243360,1278,1538769472341756832,base_link,0.0318574144915,-0.122815366241,-0.912517019513,0.388862675062,1.0,0.0,0.0,0.0,1.0,0.0,0.0,0.0,1.0,0.0603469870985,0.096491985023,-0.186461448669,1.21846967915e-07,0.0,0.0,0.0,1.21846967915e-07,0.0,0.0,0.0,1.21846967915e-07,-0.4118793,0.4707192,6.4527757,9e-08,0.0,0.0,0.0,9e-08,0.0,0.0,0.0,9e-08
1538769472663774880,1279,1538769472661919136,base_link,0.0486970189695,-0.116060663732,-0.919684906669,0.371938429208,1.0,0.0,0.0,0.0,1.0,0.0,0.0,0.0,1.0,-0.051214247942,0.0896430313587,-0.0894627049565,1.21846967915e-07,0.0,0.0,0.0,1.21846967915e-07,0.0,0.0,0.0,1.21846967915e-07,-0.392266,0.34323275,8.11009955,9e-08,0.0,0.0,0.0,9e-08,0.0,0.0,0.0,9e-08
1538769473064446880,1280,1538769473063739648,base_link,0.0564883574204,-0.0919394369168,-0.926582203398,0.360279926947,1.0,0.0,0.0,0.0,1.0,0.0,0.0,0.0,1.0,-0.18254365027,0.0642751678824,-0.0625404193997,1.21846967915e-07,0.0,0.0,0.0,1.21846967915e-07,0.0,0.0,0.0,1.21846967915e-07,-0.40207265,0.44129925,8.5317855,9e-08,0.0,0.0,0.0,9e-08,0.0,0.0,0.0,9e-08
1538769473375755040,1281,1538769473375356992,base_link,0.0561137405225,-0.0618699543504,-0.932128133713,0.352364157108,1.0,0.0,0.0,0.0,1.0,0.0,0.0,0.0,1.0,-0.148703470826,0.0271274968982,-0.0597986727953,1.21846967915e-07,0.0,0.0,0.0,1.21846967915e-07,0.0,0.0,0.0,1.21846967915e-07,-0.53936575,0.42168595,9.14960445,9e-08,0.0,0.0,0.0,9e-08,0.0,0.0,0.0,9e-08
1538769473732697408,1282,1538769473729857504,base_link,0.0574780638683,-0.0520494054318,-0.937446129746,0.339384568582,1.0,0.0,0.0,0.0,1.0,0.0,0.0,0.0,1.0,0.00349376909435,0.0079563325271,-0.0548213720322,1.21846967915e-07,0.0,0.0,0.0,1.21846967915e-07,0.0,0.0,0.0,1.21846967915e-07,-0.59820565,0.2353596,9.218251,9e-08,0.0,0.0,0.0,9e-08,0.0,0.0,0.0,9e-08
1538769474251373024,1283,1538769474250993728,base_link,0.0427064439281,-0.0265501405805,-0.936365835069,0.347405055515,1.0,0.0,0.0,0.0,1.0,0.0,0.0,0.0,1.0,-0.204695165157,-0.0377327762544,0.0197451729327,1.21846967915e-07,0.0,0.0,0.0,1.21846967915e-07,0.0,0.0,0.0,1.21846967915e-07,-0.3530394,0.48052585,10.591182,9e-08,0.0,0.0,0.0,9e-08,0.0,0.0,0.0,9e-08
1538769474702341792,1284,1538769474701998048,base_link,0.0341606498415,-0.0174664130518,-0.939708075729,0.33981863814,1.0,0.0,0.0,0.0,1.0,0.0,0.0,0.0,1.0,-0.040889210999,-0.037605702877,-0.038153398782,1.21846967915e-07,0.0,0.0,0.0,1.21846967915e-07,0.0,0.0,0.0,1.21846967915e-07,-0.3530394,0.28439285,10.5715687,9e-08,0.0,0.0,0.0,9e-08,0.0,0.0,0.0,9e-08
1538769475145947840,1285,1538769475144964448,base_link,0.0153451888829,0.0131457953625,-0.94131891567,0.336913063334,1.0,0.0,0.0,0.0,1.0,0.0,0.0,0.0,1.0,-0.161289483309,-0.00294094020501,-0.0659208744764,1.21846967915e-07,0.0,0.0,0.0,1.21846967915e-07,0.0,0.0,0.0,1.21846967915e-07,-0.24516625,0.6668522,11.0226746,9e-08,0.0,0.0,0.0,9e-08,0.0,0.0,0.0,9e-08
1538769475456214624,1286,1538769475453614336,base_link,0.0138044778608,0.00644789926765,-0.944234560648,0.32892089545,1.0,0.0,0.0,0.0,1.0,0.0,0.0,0.0,1.0,0.165252536535,-0.00817893911153,-0.019570754841,1.21846967915e-07,0.0,0.0,0.0,1.21846967915e-07,0.0,0.0,0.0,1.21846967915e-07,-0.24516625,0.22555295,10.42446895,9e-08,0.0,0.0,0.0,9e-08,0.0,0.0,0.0,9e-08
1538769475812503296,1287,1538769475811700576,base_link,0.0186424945929,-0.0056875050857,-0.940106437871,0.34032336851,1.0,0.0,0.0,0.0,1.0,0.0,0.0,0.0,1.0,0.134375989437,0.000905799446628,0.0952681601048,1.21846967915e-07,0.0,0.0,0.0,1.21846967915e-07,0.0,0.0,0.0,1.21846967915e-07,-0.2549729,0.196133,9.7281968,9e-08,0.0,0.0,0.0,9e-08,0.0,0.0,0.0,9e-08
1538769476295199392,1288,1538769476293193504,base_link,0.0210567224503,-0.00587806892211,-0.935643115161,0.352269816756,1.0,0.0,0.0,0.0,1.0,0.0,0.0,0.0,1.0,0.0400046333671,0.0198997408152,-0.0578802600503,1.21846967915e-07,0.0,0.0,0.0,1.21846967915e-07,0.0,0.0,0.0,1.21846967915e-07,-0.2549729,0.50013915,10.03220295,9e-08,0.0,0.0,0.0,9e-08,0.0,0.0,0.0,9e-08
1538769476659015424,1289,1538769476658064224,base_link,0.0321602486757,-0.0263344372456,-0.937752160474,0.344808789545,1.0,0.0,0.0,0.0,1.0,0.0,0.0,0.0,1.0,0.0904606431723,-0.00477938586846,0.0125736389309,1.21846967915e-07,0.0,0.0,0.0,1.21846967915e-07,0.0,0.0,0.0,1.21846967915e-07,-0.2941995,0.06864655,9.63993695,9e-08,0.0,0.0,0.0,9e-08,0.0,0.0,0.0,9e-08
1538769477092056064,1290,1538769477091567744,base_link,0.0362580690772,-0.0335752874157,-0.93670225779,0.346622175795,1.0,0.0,0.0,0.0,1.0,0.0,0.0,0.0,1.0,-0.00915893632919,0.00323170749471,0.0277140215039,1.21846967915e-07,0.0,0.0,0.0,1.21846967915e-07,0.0,0.0,0.0,1.21846967915e-07,-0.2549729,0.30400615,9.4339973,9e-08,0.0,0.0,0.0,9e-08,0.0,0.0,0.0,9e-08
1538769477427327776,1291,1538769477426972256,base_link,0.0384875450405,-0.0344376833088,-0.938155856467,0.342339515425,1.0,0.0,0.0,0.0,1.0,0.0,0.0,0.0,1.0,0.0409345068038,0.0181204695255,-0.0681299269199,1.21846967915e-07,0.0,0.0,0.0,1.21846967915e-07,0.0,0.0,0.0,1.21846967915e-07,-0.28439285,0.4511059,9.44380395,9e-08,0.0,0.0,0.0,9e-08,0.0,0.0,0.0,9e-08
1538769477778679296,1292,1538769477777355616,base_link,0.0385314683277,-0.0294057524989,-0.940545818993,0.336190704874,1.0,0.0,0.0,0.0,1.0,0.0,0.0,0.0,1.0,-0.0530554056168,-0.0212273765355,-0.0491882152855,1.21846967915e-07,0.0,0.0,0.0,1.21846967915e-07,0.0,0.0,0.0,1.21846967915e-07,-0.196133,0.42168595,9.79684335,9e-08,0.0,0.0,0.0,9e-08,0.0,0.0,0.0,9e-08
1538769478019753472,1293,1538769478018919168,base_link,0.0357304576894,-0.0322636443534,-0.943039822803,0.329178195289,1.0,0.0,0.0,0.0,1.0,0.0,0.0,0.0,1.0,0.0811007395387,-0.0264336392283,0.00801680423319,1.21846967915e-07,0.0,0.0,0.0,1.21846967915e-07,0.0,0.0,0.0,1.21846967915e-07,-0.196133,0.0392266,10.87557485,9e-08,0.0,0.0,0.0,9e-08,0.0,0.0,0.0,9e-08
1538769478422492832,1294,1538769478422028256,base_link,0.0300399986001,-0.0402978576172,-0.943617995229,0.327198349988,1.0,0.0,0.0,0.0,1.0,0.0,0.0,0.0,1.0,0.00180136039853,-0.0509963966906,-0.0254771783948,1.21846967915e-07,0.0,0.0,0.0,1.21846967915e-07,0.0,0.0,0.0,1.21846967915e-07,-0.1372931,0.10787315,10.983448,9e-08,0.0,0.0,0.0,9e-08,0.0,0.0,0.0,9e-08
1538769478854334336,1295,1538769478854024576,base_link,0.0196266264422,-0.0438543472624,-0.940354621601,0.336785951895,1.0,0.0,0.0,0.0,1.0,0.0,0.0,0.0,1.0,-0.0423337742686,-0.0430052429438,0.0637310221791,1.21846967915e-07,0.0,0.0,0.0,1.21846967915e-07,0.0,0.0,0.0,1.21846967915e-07,-0.08825985,0.5295591,11.571847,9e-08,0.0,0.0,0.0,9e-08,0.0,0.0,0.0,9e-08
1538769479320648992,1296,1538769479320325952,base_link,0.022969727791,-0.0711121513745,-0.93912041991,0.335362923473,1.0,0.0,0.0,0.0,1.0,0.0,0.0,0.0,1.0,0.839877426624,-0.0133030395955,-0.130425751209,1.21846967915e-07,0.0,0.0,0.0,1.21846967915e-07,0.0,0.0,0.0,1.21846967915e-07,-0.14709975,0.588399,10.6696352,9e-08,0.0,0.0,0.0,9e-08,0.0,0.0,0.0,9e-08
1538769479740216864,1297,1538769479739924704,base_link,0.0707324516426,-0.22618746495,-0.922788555092,0.303804926844,1.0,0.0,0.0,0.0,1.0,0.0,0.0,0.0,1.0,0.547030091286,-0.0473731569946,-0.0803467407823,1.21846967915e-07,0.0,0.0,0.0,1.21846967915e-07,0.0,0.0,0.0,1.21846967915e-07,-0.04903325,0.48052585,10.50292215,9e-08,0.0,0.0,0.0,9e-08,0.0,0.0,0.0,9e-08
1538769480019801184,1298,1538769480017444320,base_link,0.0845041489868,-0.282203362213,-0.913715306067,0.279901144369,1.0,0.0,0.0,0.0,1.0,0.0,0.0,0.0,1.0,0.25402751565,-0.0798017382622,-0.171213433146,1.21846967915e-07,0.0,0.0,0.0,1.21846967915e-07,0.0,0.0,0.0,1.21846967915e-07,-0.0196133,0.87279185,10.22833595,9e-08,0.0,0.0,0.0,9e-08,0.0,0.0,0.0,9e-08
1538769480410516960,1299,1538769480410345504,base_link,0.0896119494719,-0.310506366436,-0.920232718479,0.220742471569,1.0,0.0,0.0,0.0,1.0,0.0,0.0,0.0,1.0,0.120791397989,-0.141492247581,-0.355608791113,1.21846967915e-07,0.0,0.0,0.0,1.21846967915e-07,0.0,0.0,0.0,1.21846967915e-07,0.0980665,0.8237586,10.09104285,9e-08,0.0,0.0,0.0,9e-08,0.0,0.0,0.0,9e-08
1538769480764380832,1300,1538769480763735200,base_link,0.0777698561738,-0.326358934781,-0.929827505686,0.151203521217,1.0,0.0,0.0,0.0,1.0,0.0,0.0,0.0,1.0,-0.00207091029733,-0.23354396224,-0.254129230976,1.21846967915e-07,0.0,0.0,0.0,1.21846967915e-07,0.0,0.0,0.0,1.21846967915e-07,0.3334261,0.5099458,11.93469305,9e-08,0.0,0.0,0.0,9e-08,0.0,0.0,0.0,9e-08
1538769481064032704,1301,1538769481063691584,base_link,0.0548489316569,-0.31660585733,-0.941293572368,0.103531330616,1.0,0.0,0.0,0.0,1.0,0.0,0.0,0.0,1.0,-0.174663364887,-0.229245766997,-0.267214477062,1.21846967915e-07,0.0,0.0,0.0,1.21846967915e-07,0.0,0.0,0.0,1.21846967915e-07,0.48052585,0.89240515,12.4936721,9e-08,0.0,0.0,0.0,9e-08,0.0,0.0,0.0,9e-08
1538769481360253600,1302,1538769481359829664,base_link,0.0345273283984,-0.294280034274,-0.953387204325,0.0570960913827,1.0,0.0,0.0,0.0,1.0,0.0,0.0,0.0,1.0,-0.227480828762,-0.226899400353,-0.250196129084,1.21846967915e-07,0.0,0.0,0.0,1.21846967915e-07,0.0,0.0,0.0,1.21846967915e-07,0.46091255,0.71588545,11.66010685,9e-08,0.0,0.0,0.0,9e-08,0.0,0.0,0.0,9e-08
1538769481731823232,1303,1538769481725380416,base_link,0.00471602420414,-0.223241771071,-0.974748266613,0.00258601991728,1.0,0.0,0.0,0.0,1.0,0.0,0.0,0.0,1.0,-0.452696025372,-0.191882267594,-0.226737946272,1.21846967915e-07,0.0,0.0,0.0,1.21846967915e-07,0.0,0.0,0.0,1.21846967915e-07,0.55897905,0.7256921,13.62143685,9e-08,0.0,0.0,0.0,9e-08,0.0,0.0,0.0,9e-08
1538769482256712992,1304,1538769482256208032,base_link,-0.0182963944526,-0.148640858669,-0.987020705511,-0.0579764087955,1.0,0.0,0.0,0.0,1.0,0.0,0.0,0.0,1.0,-0.219020426273,-0.0891022980213,-0.150580257177,1.21846967915e-07,0.0,0.0,0.0,1.21846967915e-07,0.0,0.0,0.0,1.21846967915e-07,0.2745862,0.4511059,11.1011278,9e-08,0.0,0.0,0.0,9e-08,0.0,0.0,0.0,9e-08
1538769482605712512,1305,1538769482604086016,base_link,-0.0251764236005,-0.106643682064,-0.990651227277,-0.081261421755,1.0,0.0,0.0,0.0,1.0,0.0,0.0,0.0,1.0,-0.238943561912,-0.0562080070376,-0.0751222670078,1.21846967915e-07,0.0,0.0,0.0,1.21846967915e-07,0.0,0.0,0.0,1.21846967915e-07,0.20593965,0.46091255,10.9049948,9e-08,0.0,0.0,0.0,9e-08,0.0,0.0,0.0,9e-08
1538769483043337056,1306,1538769483037362208,base_link,-0.0224024765472,-0.0565082801579,-0.992813197761,-0.103086845279,1.0,0.0,0.0,0.0,1.0,0.0,0.0,0.0,1.0,-0.200563207269,0.00425746524706,-0.0936040729284,1.21846967915e-07,0.0,0.0,0.0,1.21846967915e-07,0.0,0.0,0.0,1.21846967915e-07,0.0392266,0.392266,9.9243298,9e-08,0.0,0.0,0.0,9e-08,0.0,0.0,0.0,9e-08
1538769483550154208,1307,1538769483549302432,base_link,-0.0117767184238,-0.014033485889,-0.993118550925,-0.115671578127,1.0,0.0,0.0,0.0,1.0,0.0,0.0,0.0,1.0,-0.0964723303914,0.0336930043995,0.00435863155872,1.21846967915e-07,0.0,0.0,0.0,1.21846967915e-07,0.0,0.0,0.0,1.21846967915e-07,0.00980665,0.18632635,8.85540495,9e-08,0.0,0.0,0.0,9e-08,0.0,0.0,0.0,9e-08
1538769484017549088,1308,1538769484016988544,base_link,-0.0010446236219,0.0177949184923,-0.99471657812,-0.101099845949,1.0,0.0,0.0,0.0,1.0,0.0,0.0,0.0,1.0,-0.151089444757,0.0440763086081,0.0739771649241,1.21846967915e-07,0.0,0.0,0.0,1.21846967915e-07,0.0,0.0,0.0,1.21846967915e-07,0.0784532,0.38245935,9.20844435,9e-08,0.0,0.0,0.0,9e-08,0.0,0.0,0.0,9e-08
1538769484399581408,1309,1538769484399056800,base_link,0.00816293575481,0.0257551221282,-0.995260761693,-0.0934133630573,1.0,0.0,0.0,0.0,1.0,0.0,0.0,0.0,1.0,0.036107506603,0.0580230504274,0.0267241559923,1.21846967915e-07,0.0,0.0,0.0,1.21846967915e-07,0.0,0.0,0.0,1.21846967915e-07,0.0196133,0.30400615,9.50264385,9e-08,0.0,0.0,0.0,9e-08,0.0,0.0,0.0,9e-08
1538769484717813824,1310,1538769484717517344,base_link,0.0155821966024,0.0147857195118,-0.996101920005,-0.0855543254887,1.0,0.0,0.0,0.0,1.0,0.0,0.0,0.0,1.0,0.0279863588512,0.0348412133753,0.0834447219968,1.21846967915e-07,0.0,0.0,0.0,1.21846967915e-07,0.0,0.0,0.0,1.21846967915e-07,0.0196133,0.2353596,9.2770909,9e-08,0.0,0.0,0.0,9e-08,0.0,0.0,0.0,9e-08
1538769485116810176,1311,1538769485116544384,base_link,0.0252372752236,0.0172357348346,-0.996642678624,-0.0759564383595,1.0,0.0,0.0,0.0,1.0,0.0,0.0,0.0,1.0,0.0123972604051,0.0567552410066,0.0332837030292,1.21846967915e-07,0.0,0.0,0.0,1.21846967915e-07,0.0,0.0,0.0,1.21846967915e-07,-0.0392266,0.2941995,9.28689755,9e-08,0.0,0.0,0.0,9e-08,0.0,0.0,0.0,9e-08
1538769485387652352,1312,1538769485387418464,base_link,0.0283116036743,0.00557291544386,-0.996900771432,-0.0731863896417,1.0,0.0,0.0,0.0,1.0,0.0,0.0,0.0,1.0,0.0748603492975,0.0149748660624,0.0417251735926,1.21846967915e-07,0.0,0.0,0.0,1.21846967915e-07,0.0,0.0,0.0,1.21846967915e-07,0.0588399,0.28439285,9.52225715,9e-08,0.0,0.0,0.0,9e-08,0.0,0.0,0.0,9e-08
1538769485783210432,1313,1538769485782979296,base_link,0.0248697551144,-0.0200823018465,-0.997300669396,-0.0661027325803,1.0,0.0,0.0,0.0,1.0,0.0,0.0,0.0,1.0,0.117071792483,-0.010127489455,-0.000711472006515,1.21846967915e-07,0.0,0.0,0.0,1.21846967915e-07,0.0,0.0,0.0,1.21846967915e-07,0.0196133,0.4511059,10.8657682,9e-08,0.0,0.0,0.0,9e-08,0.0,0.0,0.0,9e-08
1538769486219541312,1314,1538769486218830208,base_link,0.021315461022,-0.0376869240593,-0.996700807473,-0.0686501803311,1.0,0.0,0.0,0.0,1.0,0.0,0.0,0.0,1.0,0.12212562561,-0.00948563404381,-0.0266915783286,1.21846967915e-07,0.0,0.0,0.0,1.21846967915e-07,0.0,0.0,0.0,1.21846967915e-07,-0.04903325,0.3726527,10.198916,9e-08,0.0,0.0,0.0,9e-08,0.0,0.0,0.0,9e-08
1538769486610407616,1315,1538769486610028448,base_link,0.0194721476671,-0.0469032235462,-0.996424194334,-0.0675259063714,1.0,0.0,0.0,0.0,1.0,0.0,0.0,0.0,1.0,0.0283010341227,0.0010966998525,0.00667747389525,1.21846967915e-07,0.0,0.0,0.0,1.21846967915e-07,0.0,0.0,0.0,1.21846967915e-07,0.02941995,0.48052585,9.6889702,9e-08,0.0,0.0,0.0,9e-08,0.0,0.0,0.0,9e-08
1538769487023907584,1316,1538769487023642080,base_link,0.0186987359045,-0.0425925024535,-0.996402271368,-0.0708431339224,1.0,0.0,0.0,0.0,1.0,0.0,0.0,0.0,1.0,-0.0411300957203,0.00667401310056,-0.0144111979753,1.21846967915e-07,0.0,0.0,0.0,1.21846967915e-07,0.0,0.0,0.0,1.21846967915e-07,0.04903325,0.46091255,10.07142955,9e-08,0.0,0.0,0.0,9e-08,0.0,0.0,0.0,9e-08
1538769487360213152,1317,1538769487359937184,base_link,0.019691382505,-0.0366294749712,-0.996294293768,-0.0752875236923,1.0,0.0,0.0,0.0,1.0,0.0,0.0,0.0,1.0,-0.0273969136178,0.0042741089128,-0.00606100168079,1.21846967915e-07,0.0,0.0,0.0,1.21846967915e-07,0.0,0.0,0.0,1.21846967915e-07,0.04903325,0.26477955,9.42419065,9e-08,0.0,0.0,0.0,9e-08,0.0,0.0,0.0,9e-08
1538769487730642048,1318,1538769487730162400,base_link,0.0194706453525,-0.0368570364423,-0.996755687134,-0.0688516739067,1.0,0.0,0.0,0.0,1.0,0.0,0.0,0.0,1.0,-0.0200844630599,0.00590585963801,0.018731052056,1.21846967915e-07,0.0,0.0,0.0,1.21846967915e-07,0.0,0.0,0.0,1.21846967915e-07,0.0,0.51975245,10.03220295,9e-08,0.0,0.0,0.0,9e-08,0.0,0.0,0.0,9e-08
1538769488108874176,1319,1538769488108612224,base_link,0.0211238350355,-0.032451536175,-0.996687089101,-0.0715229181007,1.0,0.0,0.0,0.0,1.0,0.0,0.0,0.0,1.0,-0.0654302015901,0.015292910859,-0.0165814831853,1.21846967915e-07,0.0,0.0,0.0,1.21846967915e-07,0.0,0.0,0.0,1.21846967915e-07,0.0588399,0.4511059,9.5320638,9e-08,0.0,0.0,0.0,9e-08,0.0,0.0,0.0,9e-08
1538769488413399840,1320,1538769488412355520,base_link,0.022763891254,-0.0307249787699,-0.996461987499,-0.0748417557491,1.0,0.0,0.0,0.0,1.0,0.0,0.0,0.0,1.0,0.0282957814634,0.0197227261961,-0.0221332982183,1.21846967915e-07,0.0,0.0,0.0,1.21846967915e-07,0.0,0.0,0.0,1.21846967915e-07,0.0980665,0.46091255,9.67916355,9e-08,0.0,0.0,0.0,9e-08,0.0,0.0,0.0,9e-08
1538769488713086752,1321,1538769488712796352,base_link,0.0230877748535,-0.0322601686674,-0.996136734429,-0.078344383918,1.0,0.0,0.0,0.0,1.0,0.0,0.0,0.0,1.0,0.0130294691771,-0.0195860471576,-0.00205723638646,1.21846967915e-07,0.0,0.0,0.0,1.21846967915e-07,0.0,0.0,0.0,1.21846967915e-07,-0.04903325,0.2745862,9.022118,9e-08,0.0,0.0,0.0,9e-08,0.0,0.0,0.0,9e-08
1538769489213882848,1322,1538769489211151552,base_link,0.0137963369894,-0.0323687144341,-0.996057213195,-0.0814368187852,1.0,0.0,0.0,0.0,1.0,0.0,0.0,0.0,1.0,-0.0644516944885,-0.0300993025303,-0.039904948324,1.21846967915e-07,0.0,0.0,0.0,1.21846967915e-07,0.0,0.0,0.0,1.21846967915e-07,0.1765197,0.5491724,10.62060195,9e-08,0.0,0.0,0.0,9e-08,0.0,0.0,0.0,9e-08
1538769489629366176,1323,1538769489628887360,base_link,-0.00472578109408,-0.172558387594,-0.97960197542,-0.102865152594,1.0,0.0,0.0,0.0,1.0,0.0,0.0,0.0,1.0,0.868663609028,-0.0459307469428,-0.0870789960027,1.21846967915e-07,0.0,0.0,0.0,1.21846967915e-07,0.0,0.0,0.0,1.21846967915e-07,0.18632635,0.28439285,10.34601575,9e-08,0.0,0.0,0.0,9e-08,0.0,0.0,0.0,9e-08
1538769490006738016,1324,1538769490006360896,base_link,-0.0300852573575,-0.27087836241,-0.954627361193,-0.120026627584,1.0,0.0,0.0,0.0,1.0,0.0,0.0,0.0,1.0,0.248309791088,-0.13575860858,-0.110632553697,1.21846967915e-07,0.0,0.0,0.0,1.21846967915e-07,0.0,0.0,0.0,1.21846967915e-07,0.2941995,0.69627215,10.8657682,9e-08,0.0,0.0,0.0,9e-08,0.0,0.0,0.0,9e-08
1538769490257950144,1325,1538769490256477152,base_link,-0.0428011998137,-0.296268706064,-0.941858134027,-0.152630817559,1.0,0.0,0.0,0.0,1.0,0.0,0.0,0.0,1.0,0.226026445627,-0.130026713014,-0.31999784708,1.21846967915e-07,0.0,0.0,0.0,1.21846967915e-07,0.0,0.0,0.0,1.21846967915e-07,0.4903325,1.20621795,11.4933938,9e-08,0.0,0.0,0.0,9e-08,0.0,0.0,0.0,9e-08
1538769490757141280,1326,1538769490753964192,base_link,-0.0811582150838,-0.346905927045,-0.902789415755,-0.240916775476,1.0,0.0,0.0,0.0,1.0,0.0,0.0,0.0,1.0,0.101691879332,-0.320336282253,-0.180934265256,1.21846967915e-07,0.0,0.0,0.0,1.21846967915e-07,0.0,0.0,0.0,1.21846967915e-07,0.73549875,0.55897905,12.5132854,9e-08,0.0,0.0,0.0,9e-08,0.0,0.0,0.0,9e-08
1538769491168919200,1327,1538769491168645856,base_link,-0.127832469537,-0.343220010645,-0.878495463159,-0.306764739227,1.0,0.0,0.0,0.0,1.0,0.0,0.0,0.0,1.0,0.00522011704743,-0.29513078928,-0.323118984699,1.21846967915e-07,0.0,0.0,0.0,1.21846967915e-07,0.0,0.0,0.0,1.21846967915e-07,0.89240515,1.3140911,13.17033095,9e-08,0.0,0.0,0.0,9e-08,0.0,0.0,0.0,9e-08
1538769491584416736,1328,1538769491583513952,base_link,-0.158688445318,-0.344283193469,-0.837333297686,-0.393903552414,1.0,0.0,0.0,0.0,1.0,0.0,0.0,0.0,1.0,0.024836409837,-0.313522666693,-0.380033999681,1.21846967915e-07,0.0,0.0,0.0,1.21846967915e-07,0.0,0.0,0.0,1.21846967915e-07,1.22583125,0.8041453,13.0820711,9e-08,0.0,0.0,0.0,9e-08,0.0,0.0,0.0,9e-08
1538769491921660096,1329,1538769491921450976,base_link,-0.186848599588,-0.332525467355,-0.80101902578,-0.461392386945,1.0,0.0,0.0,0.0,1.0,0.0,0.0,0.0,1.0,-0.0323026403785,-0.339300394058,-0.331514686346,1.21846967915e-07,0.0,0.0,0.0,1.21846967915e-07,0.0,0.0,0.0,1.21846967915e-07,1.20621795,1.14737805,12.8467115,9e-08,0.0,0.0,0.0,9e-08,0.0,0.0,0.0,9e-08
1538769492410693184,1330,1538769492410387808,base_link,-0.220455281153,-0.295649756347,-0.743266964666,-0.558162082033,1.0,0.0,0.0,0.0,1.0,0.0,0.0,0.0,1.0,-0.0654573366046,-0.365651339293,-0.269360214472,1.21846967915e-07,0.0,0.0,0.0,1.21846967915e-07,0.0,0.0,0.0,1.21846967915e-07,1.20621795,0.7649187,13.32723735,9e-08,0.0,0.0,0.0,9e-08,0.0,0.0,0.0,9e-08
1538769492724106720,1331,1538769492721717184,base_link,-0.246503005338,-0.273018779494,-0.70227172034,-0.60951738713,1.0,0.0,0.0,0.0,1.0,0.0,0.0,0.0,1.0,-0.00138176605105,-0.384310156107,-0.374184310436,1.21846967915e-07,0.0,0.0,0.0,1.21846967915e-07,0.0,0.0,0.0,1.21846967915e-07,1.1375714,1.06892485,14.8472681,9e-08,0.0,0.0,0.0,9e-08,0.0,0.0,0.0,9e-08
1538769493197941920,1332,1538769493197690368,base_link,-0.293127465198,-0.234133522029,-0.622979834447,-0.686406518676,1.0,0.0,0.0,0.0,1.0,0.0,0.0,0.0,1.0,-0.115326106548,-0.417661041021,-0.287776887417,1.21846967915e-07,0.0,0.0,0.0,1.21846967915e-07,0.0,0.0,0.0,1.21846967915e-07,1.3925443,0.9218251,15.3376006,9e-08,0.0,0.0,0.0,9e-08,0.0,0.0,0.0,9e-08
1538769493528084160,1333,1538769493527407712,base_link,-0.313128173449,-0.198312583149,-0.575973533635,-0.728613309588,1.0,0.0,0.0,0.0,1.0,0.0,0.0,0.0,1.0,-0.0777987539768,-0.340096861124,-0.275989890099,1.21846967915e-07,0.0,0.0,0.0,1.21846967915e-07,0.0,0.0,0.0,1.21846967915e-07,1.18660465,1.0787315,14.317709,9e-08,0.0,0.0,0.0,9e-08,0.0,0.0,0.0,9e-08
1538769494086569920,1334,1538769494086216128,base_link,-0.33372703551,-0.164270958322,-0.467897016245,-0.80169426854,1.0,0.0,0.0,0.0,1.0,0.0,0.0,0.0,1.0,0.0560824871063,-0.277867078781,-0.345990657806,1.21846967915e-07,0.0,0.0,0.0,1.21846967915e-07,0.0,0.0,0.0,1.21846967915e-07,0.7649187,0.3726527,12.18966595,9e-08,0.0,0.0,0.0,9e-08,0.0,0.0,0.0,9e-08
1538769494432956608,1335,1538769494432215872,base_link,-0.35101301038,-0.144646656262,-0.403557216251,-0.832471491757,1.0,0.0,0.0,0.0,1.0,0.0,0.0,0.0,1.0,-0.0372478142381,-0.27301594615,-0.325760006905,1.21846967915e-07,0.0,0.0,0.0,1.21846967915e-07,0.0,0.0,0.0,1.21846967915e-07,0.6668522,0.8825985,12.4544455,9e-08,0.0,0.0,0.0,9e-08,0.0,0.0,0.0,9e-08
1538769494780027424,1336,1538769494779712544,base_link,-0.353532938384,-0.125025450926,-0.341645591939,-0.86177803848,1.0,0.0,0.0,0.0,1.0,0.0,0.0,0.0,1.0,0.0196628458798,-0.26266977191,-0.341098695993,1.21846967915e-07,0.0,0.0,0.0,1.21846967915e-07,0.0,0.0,0.0,1.21846967915e-07,0.5099458,0.8237586,11.93469305,9e-08,0.0,0.0,0.0,9e-08,0.0,0.0,0.0,9e-08
1538769495178155744,1337,1538769495177709600,base_link,-0.365656228881,-0.101048338934,-0.258271332664,-0.888470975442,1.0,0.0,0.0,0.0,1.0,0.0,0.0,0.0,1.0,-0.0223557204008,-0.276260644197,-0.345222264528,1.21846967915e-07,0.0,0.0,0.0,1.21846967915e-07,0.0,0.0,0.0,1.21846967915e-07,0.65704555,0.93163175,12.28773245,9e-08,0.0,0.0,0.0,9e-08,0.0,0.0,0.0,9e-08
1538769495417079936,1338,1538769495416756032,base_link,-0.363598396295,-0.088293737793,-0.202792365284,-0.904917498262,1.0,0.0,0.0,0.0,1.0,0.0,0.0,0.0,1.0,-0.0982956066728,-0.270125418901,-0.386232018471,1.21846967915e-07,0.0,0.0,0.0,1.21846967915e-07,0.0,0.0,0.0,1.21846967915e-07,0.48052585,0.8433719,13.11149105,9e-08,0.0,0.0,0.0,9e-08,0.0,0.0,0.0,9e-08
1538769495858180864,1339,1538769495855863872,base_link,-0.384507801024,-0.0604270651328,-0.111193306172,-0.914406020001,1.0,0.0,0.0,0.0,1.0,0.0,0.0,0.0,1.0,0.181977376342,-0.330159962177,-0.275244086981,1.21846967915e-07,0.0,0.0,0.0,1.21846967915e-07,0.0,0.0,0.0,1.21846967915e-07,0.3334261,0.6472389,12.60154525,9e-08,0.0,0.0,0.0,9e-08,0.0,0.0,0.0,9e-08
1538769496217163680,1340,1538769496216528288,base_link,-0.384337575582,-0.0291225232949,-0.0423280747616,-0.921761813442,1.0,0.0,0.0,0.0,1.0,0.0,0.0,0.0,1.0,-0.482543349266,-0.290710508823,-0.341848671436,1.21846967915e-07,0.0,0.0,0.0,1.21846967915e-07,0.0,0.0,0.0,1.21846967915e-07,0.5491724,1.5298374,11.8464332,9e-08,0.0,0.0,0.0,9e-08,0.0,0.0,0.0,9e-08
1538769496570381216,1341,1538769496569885920,base_link,-0.107240140644,0.00265079460622,0.00114012585479,-0.994228960369,1.0,0.0,0.0,0.0,1.0,0.0,0.0,0.0,1.0,-1.59278690815,-0.092655479908,-0.164666503668,1.21846967915e-07,0.0,0.0,0.0,1.21846967915e-07,0.0,0.0,0.0,1.21846967915e-07,0.32361945,0.81395195,13.6116302,9e-08,0.0,0.0,0.0,9e-08,0.0,0.0,0.0,9e-08
1538769496925138912,1342,1538769496924747584,base_link,0.100769246874,0.00807428143889,0.0265919378125,-0.994521610478,1.0,0.0,0.0,0.0,1.0,0.0,0.0,0.0,1.0,-0.957250475883,-0.0674220919609,-0.0758963227272,1.21846967915e-07,0.0,0.0,0.0,1.21846967915e-07,0.0,0.0,0.0,1.21846967915e-07,0.0,0.24516625,11.30706745,9e-08,0.0,0.0,0.0,9e-08,0.0,0.0,0.0,9e-08
1538769497402007200,1343,1538769497401729472,base_link,0.254861701189,0.0228953706541,-0.000596902389357,-0.966706242339,1.0,0.0,0.0,0.0,1.0,0.0,0.0,0.0,1.0,-0.373746663332,-0.138395354152,0.197860121727,1.21846967915e-07,0.0,0.0,0.0,1.21846967915e-07,0.0,0.0,0.0,1.21846967915e-07,0.0,-0.1765197,11.2580342,9e-08,0.0,0.0,0.0,9e-08,0.0,0.0,0.0,9e-08
1538769497898245856,1344,1538769497897830048,base_link,0.313093109746,0.0387342652026,-0.0824439005556,-0.94534404562,1.0,0.0,0.0,0.0,1.0,0.0,0.0,0.0,1.0,-0.0145708918571,-0.155412003398,0.313502877951,1.21846967915e-07,0.0,0.0,0.0,1.21846967915e-07,0.0,0.0,0.0,1.21846967915e-07,0.02941995,1.27302634848e-15,10.395049,9e-08,0.0,0.0,0.0,9e-08,0.0,0.0,0.0,9e-08
1538769498305238944,1345,1538769498304711008,base_link,0.305290048872,0.0522123104239,-0.156470517794,-0.937863976151,1.0,0.0,0.0,0.0,1.0,0.0,0.0,0.0,1.0,-0.00233728252351,-0.208520233631,0.382334053516,1.21846967915e-07,0.0,0.0,0.0,1.21846967915e-07,0.0,0.0,0.0,1.21846967915e-07,0.0392266,0.0588399,12.0425662,9e-08,0.0,0.0,0.0,9e-08,0.0,0.0,0.0,9e-08
1538769498773758400,1346,1538769498773537952,base_link,0.269091307075,0.0664617157179,-0.245179205124,-0.929010153968,1.0,0.0,0.0,0.0,1.0,0.0,0.0,0.0,1.0,0.337490469217,-0.17372970283,0.2712495327,1.21846967915e-07,0.0,0.0,0.0,1.21846967915e-07,0.0,0.0,0.0,1.21846967915e-07,0.0392266,0.3726527,12.18966595,9e-08,0.0,0.0,0.0,9e-08,0.0,0.0,0.0,9e-08
1538769499151236512,1347,1538769499149555744,base_link,0.194747638956,0.062948127702,-0.302966533346,-0.930764293477,1.0,0.0,0.0,0.0,1.0,0.0,0.0,0.0,1.0,0.505868494511,-0.12424839288,0.252231299877,1.21846967915e-07,0.0,0.0,0.0,1.21846967915e-07,0.0,0.0,0.0,1.21846967915e-07,0.00980665,0.3138128,11.58165365,9e-08,0.0,0.0,0.0,9e-08,0.0,0.0,0.0,9e-08
1538769499421620192,1348,1538769499418398688,base_link,0.126471423234,0.048833216179,-0.336801798813,-0.931764371727,1.0,0.0,0.0,0.0,1.0,0.0,0.0,0.0,1.0,0.528854608536,-0.061360757798,0.210094034672,1.21846967915e-07,0.0,0.0,0.0,1.21846967915e-07,0.0,0.0,0.0,1.21846967915e-07,-0.08825985,0.196133,11.5326204,9e-08,0.0,0.0,0.0,9e-08,0.0,0.0,0.0,9e-08
1538769499722194336,1349,1538769499721898400,base_link,0.0552731838642,0.0246823807747,-0.368897752223,-0.927496686587,1.0,0.0,0.0,0.0,1.0,0.0,0.0,0.0,1.0,0.41609698534,-0.00660397997126,0.151142731309,1.21846967915e-07,0.0,0.0,0.0,1.21846967915e-07,0.0,0.0,0.0,1.21846967915e-07,-0.1569064,0.48052585,10.58137535,9e-08,0.0,0.0,0.0,9e-08,0.0,0.0,0.0,9e-08
1538769500315631936,1350,1538769500315105472,base_link,-0.0500270026028,-0.0288744188889,-0.380756833522,-0.922869330225,1.0,0.0,0.0,0.0,1.0,0.0,0.0,0.0,1.0,0.36892926693,0.0550922937691,-0.0667780935764,1.21846967915e-07,0.0,0.0,0.0,1.21846967915e-07,0.0,0.0,0.0,1.21846967915e-07,-0.1765197,0.4314926,8.9240515,9e-08,0.0,0.0,0.0,9e-08,0.0,0.0,0.0,9e-08
1538769500512705088,1351,1538769500512264032,base_link,-0.0701193643235,-0.0424451024915,-0.374725134731,-0.923505691061,1.0,0.0,0.0,0.0,1.0,0.0,0.0,0.0,1.0,0.204169809818,0.0621448569,-0.0851892977953,1.21846967915e-07,0.0,0.0,0.0,1.21846967915e-07,0.0,0.0,0.0,1.21846967915e-07,-0.3334261,0.4314926,8.97308475,9e-08,0.0,0.0,0.0,9e-08,0.0,0.0,0.0,9e-08
1538769501022018432,1352,1538769501021723392,base_link,-0.0785324997242,-0.061741599658,-0.360684331007,-0.92732272415,1.0,0.0,0.0,0.0,1.0,0.0,0.0,0.0,1.0,-0.149925470352,0.0199848990887,-0.0846143141389,1.21846967915e-07,0.0,0.0,0.0,1.21846967915e-07,0.0,0.0,0.0,1.21846967915e-07,-0.08825985,0.38245935,9.30651085,9e-08,0.0,0.0,0.0,9e-08,0.0,0.0,0.0,9e-08
1538769501367132928,1353,1538769501365222432,base_link,-0.0653521973101,-0.0618572847573,-0.348716987499,-0.932898295238,1.0,0.0,0.0,0.0,1.0,0.0,0.0,0.0,1.0,-0.0953381210566,-0.0223654359579,-0.0474603958428,1.21846967915e-07,0.0,0.0,0.0,1.21846967915e-07,0.0,0.0,0.0,1.21846967915e-07,-0.02941995,0.14709975,9.97336305,9e-08,0.0,0.0,0.0,9e-08,0.0,0.0,0.0,9e-08
1538769501794971744,1354,1538769501794700224,base_link,-0.0408358315295,-0.0459627773688,-0.356108931951,-0.932419587173,1.0,0.0,0.0,0.0,1.0,0.0,0.0,0.0,1.0,-0.209567472339,-0.0149434059858,0.0313929207623,1.21846967915e-07,0.0,0.0,0.0,1.21846967915e-07,0.0,0.0,0.0,1.21846967915e-07,0.06864655,0.6276256,9.71839015,9e-08,0.0,0.0,0.0,9e-08,0.0,0.0,0.0,9e-08
1538769502108148928,1355,1538769502107844736,base_link,-0.0233547664494,-0.0371023883794,-0.354743114278,-0.933935378136,1.0,0.0,0.0,0.0,1.0,0.0,0.0,0.0,1.0,-0.0185257904232,-0.0109740383923,-0.058217573911,1.21846967915e-07,0.0,0.0,0.0,1.21846967915e-07,0.0,0.0,0.0,1.21846967915e-07,0.0784532,0.55897905,11.28745415,9e-08,0.0,0.0,0.0,9e-08,0.0,0.0,0.0,9e-08
