%time,field.header.seq,field.header.stamp,field.header.frame_id,field.orientation.x,field.orientation.y,field.orientation.z,field.orientation.w,field.orientation_covariance0,field.orientation_covariance1,field.orientation_covariance2,field.orientation_covariance3,field.orientation_covariance4,field.orientation_covariance5,field.orientation_covariance6,field.orientation_covariance7,field.orientation_covariance8,field.angular_velocity.x,field.angular_velocity.y,field.angular_velocity.z,field.angular_velocity_covariance0,field.angular_velocity_covariance1,field.angular_velocity_covariance2,field.angular_velocity_covariance3,field.angular_velocity_covariance4,field.angular_velocity_covariance5,field.angular_velocity_covariance6,field.angular_velocity_covariance7,field.angular_velocity_covariance8,field.linear_acceleration.x,field.linear_acceleration.y,field.linear_acceleration.z,field.linear_acceleration_covariance0,field.linear_acceleration_covariance1,field.linear_acceleration_covariance2,field.linear_acceleration_covariance3,field.linear_acceleration_covariance4,field.linear_acceleration_covariance5,field.linear_acceleration_covariance6,field.linear_acceleration_covariance7,field.linear_acceleration_covariance8
1536701659110293888,1436,1536701659106000329,base_link,0.00847617739148,-0.124906869891,-0.988456138478,-0.0853281347326,1.0,0.0,0.0,0.0,1.0,0.0,0.0,0.0,1.0,1.23681855202,0.032565176487,-0.153524383903,1.21846967915e-07,0.0,0.0,0.0,1.21846967915e-07,0.0,0.0,0.0,1.21846967915e-07,-0.36284605,-0.26477955,6.5704555,9e-08,0.0,0.0,0.0,9e-08,0.0,0.0,0.0,9e-08
1536701659379599137,1437,1536701659379327962,base_link,-0.00784285761748,-0.241973193292,-0.966568355674,-0.0844575462735,1.0,0.0,0.0,0.0,1.0,0.0,0.0,0.0,1.0,0.626153707504,-0.102254651487,0.115826554596,1.21846967915e-07,0.0,0.0,0.0,1.21846967915e-07,0.0,0.0,0.0,1.21846967915e-07,-1.0787315,-0.20593965,10.198916,9e-08,0.0,0.0,0.0,9e-08,0.0,0.0,0.0,9e-08
1536701659715551497,1438,1536701659715297096,base_link,-0.0226643452141,-0.32949335686,-0.941324313729,-0.0694909463452,1.0,0.0,0.0,0.0,1.0,0.0,0.0,0.0,1.0,0.277794152498,0.106693506241,0.0389253981411,1.21846967915e-07,0.0,0.0,0.0,1.21846967915e-07,0.0,0.0,0.0,1.21846967915e-07,-0.97085835,0.71588545,11.4737805,9e-08,0.0,0.0,0.0,9e-08,0.0,0.0,0.0,9e-08
1536701660153138368,1439,1536701660152708990,base_link,0.00585529868078,-0.359453126176,-0.926044962966,-0.114890783462,1.0,0.0,0.0,0.0,1.0,0.0,0.0,0.0,1.0,0.00160464458168,0.151725977659,-0.440966576338,1.21846967915e-07,0.0,0.0,0.0,1.21846967915e-07,0.0,0.0,0.0,1.21846967915e-07,-1.0787315,1.12776475,6.08992965,9e-08,0.0,0.0,0.0,9e-08,0.0,0.0,0.0,9e-08
1536701660538456619,1440,1536701660534749170,base_link,0.0376851777226,-0.369519860892,-0.90503914166,-0.207217402379,1.0,0.0,0.0,0.0,1.0,0.0,0.0,0.0,1.0,0.100614830852,-0.132333859801,-0.427224010229,1.21846967915e-07,0.0,0.0,0.0,1.21846967915e-07,0.0,0.0,0.0,1.21846967915e-07,-1.4121576,0.5295591,8.01203305,9e-08,0.0,0.0,0.0,9e-08,0.0,0.0,0.0,9e-08
1536701660762178462,1441,1536701660761545967,base_link,0.0287933055133,-0.38302567772,-0.888034466861,-0.252699547746,1.0,0.0,0.0,0.0,1.0,0.0,0.0,0.0,1.0,0.161660820246,-0.18095459044,-0.223112493753,1.21846967915e-07,0.0,0.0,0.0,1.21846967915e-07,0.0,0.0,0.0,1.21846967915e-07,-1.20621795,0.2745862,12.62115855,9e-08,0.0,0.0,0.0,9e-08,0.0,0.0,0.0,9e-08
1536701661232967548,1442,1536701661232665354,base_link,-0.0113819093054,-0.386156272328,-0.866124392806,-0.317147160903,1.0,0.0,0.0,0.0,1.0,0.0,0.0,0.0,1.0,-0.0595078319311,-0.271034181118,-0.21871098876,1.21846967915e-07,0.0,0.0,0.0,1.21846967915e-07,0.0,0.0,0.0,1.21846967915e-07,-1.0198916,0.89240515,13.34685065,9e-08,0.0,0.0,0.0,9e-08,0.0,0.0,0.0,9e-08
1536701661664430377,1443,1536701661664191694,base_link,-0.0401874867437,-0.368057046836,-0.840087845917,-0.396448467428,1.0,0.0,0.0,0.0,1.0,0.0,0.0,0.0,1.0,0.0026867967099,-0.26929217577,-0.282294869423,1.21846967915e-07,0.0,0.0,0.0,1.21846967915e-07,0.0,0.0,0.0,1.21846967915e-07,-0.89240515,0.7256921,12.5721253,9e-08,0.0,0.0,0.0,9e-08,0.0,0.0,0.0,9e-08
1536701662077533818,1444,1536701662077228999,base_link,-0.0829907611782,-0.351842017131,-0.804128518154,-0.47190788808,1.0,0.0,0.0,0.0,1.0,0.0,0.0,0.0,1.0,0.0547700449824,-0.359313964844,-0.327437758446,1.21846967915e-07,0.0,0.0,0.0,1.21846967915e-07,0.0,0.0,0.0,1.21846967915e-07,-0.588399,1.1375714,14.8472681,9e-08,0.0,0.0,0.0,9e-08,0.0,0.0,0.0,9e-08
1536701662538431581,1445,1536701662537959082,base_link,-0.137770312276,-0.326596496015,-0.748825848798,-0.560012426664,1.0,0.0,0.0,0.0,1.0,0.0,0.0,0.0,1.0,0.0551290623844,-0.423153936863,-0.172109693289,1.21846967915e-07,0.0,0.0,0.0,1.21846967915e-07,0.0,0.0,0.0,1.21846967915e-07,-0.2353596,0.4903325,16.89685795,9e-08,0.0,0.0,0.0,9e-08,0.0,0.0,0.0,9e-08
1536701662823885557,1446,1536701662823606796,base_link,-0.161182214792,-0.285928932754,-0.724886212102,-0.605644217799,1.0,0.0,0.0,0.0,1.0,0.0,0.0,0.0,1.0,-0.0876678526402,-0.280586898327,-0.301611840725,1.21846967915e-07,0.0,0.0,0.0,1.21846967915e-07,0.0,0.0,0.0,1.21846967915e-07,-0.50013915,0.81395195,14.48442205,9e-08,0.0,0.0,0.0,9e-08,0.0,0.0,0.0,9e-08
1536701663339762085,1447,1536701663339369041,base_link,-0.189504703363,-0.23686119541,-0.663017329716,-0.684392257414,1.0,0.0,0.0,0.0,1.0,0.0,0.0,0.0,1.0,0.0443602949381,-0.272635996342,-0.139424487948,1.21846967915e-07,0.0,0.0,0.0,1.21846967915e-07,0.0,0.0,0.0,1.21846967915e-07,-0.65704555,-0.02941995,14.3373223,9e-08,0.0,0.0,0.0,9e-08,0.0,0.0,0.0,9e-08
1536701663603121918,1448,1536701663602654478,base_link,-0.211184728098,-0.220171239551,-0.641935116532,-0.70345216046,1.0,0.0,0.0,0.0,1.0,0.0,0.0,0.0,1.0,0.17138427496,-0.144198730588,-0.176192566752,1.21846967915e-07,0.0,0.0,0.0,1.21846967915e-07,0.0,0.0,0.0,1.21846967915e-07,-0.6080123,0.6472389,11.56204035,9e-08,0.0,0.0,0.0,9e-08,0.0,0.0,0.0,9e-08
1536701663937328914,1449,1536701663929134105,base_link,-0.183210952866,-0.153061089254,-0.622920078908,-0.74496753285,1.0,0.0,0.0,0.0,1.0,0.0,0.0,0.0,1.0,-0.522475719452,-0.184101387858,-0.238156035542,1.21846967915e-07,0.0,0.0,0.0,1.21846967915e-07,0.0,0.0,0.0,1.21846967915e-07,-0.32361945,1.1964113,14.32751565,9e-08,0.0,0.0,0.0,9e-08,0.0,0.0,0.0,9e-08
1536701664312959888,1450,1536701664312656573,base_link,-0.130310927118,-0.0942959198998,-0.591589789164,-0.79003092542,1.0,0.0,0.0,0.0,1.0,0.0,0.0,0.0,1.0,-0.305907994509,-0.126171141863,-0.18058077991,1.21846967915e-07,0.0,0.0,0.0,1.21846967915e-07,0.0,0.0,0.0,1.21846967915e-07,-0.53936575,0.36284605,11.95430635,9e-08,0.0,0.0,0.0,9e-08,0.0,0.0,0.0,9e-08
1536701664747638172,1451,1536701664747403876,base_link,-0.115190551043,-0.0430058719356,-0.575253290981,-0.808681199946,1.0,0.0,0.0,0.0,1.0,0.0,0.0,0.0,1.0,0.0488208010793,-0.0576440356672,-0.0530462898314,1.21846967915e-07,0.0,0.0,0.0,1.21846967915e-07,0.0,0.0,0.0,1.21846967915e-07,-0.50013915,0.588399,12.6309652,9e-08,0.0,0.0,0.0,9e-08,0.0,0.0,0.0,9e-08
1536701665167571395,1452,1536701665167255212,base_link,-0.0314971024705,0.0005710516857,-0.562647328953,-0.826096598261,1.0,0.0,0.0,0.0,1.0,0.0,0.0,0.0,1.0,-0.590046584606,0.0661891624331,-0.118009291589,1.21846967915e-07,0.0,0.0,0.0,1.21846967915e-07,0.0,0.0,0.0,1.21846967915e-07,-0.4903325,0.6472389,8.03164635,9e-08,0.0,0.0,0.0,9e-08,0.0,0.0,0.0,9e-08
1536701665486051615,1453,1536701665485803937,base_link,0.0340071916569,0.0263279033049,-0.548420335558,-0.835096095051,1.0,0.0,0.0,0.0,1.0,0.0,0.0,0.0,1.0,-0.193115249276,0.119484230876,-0.0763428807259,1.21846967915e-07,0.0,0.0,0.0,1.21846967915e-07,0.0,0.0,0.0,1.21846967915e-07,-0.3726527,0.14709975,9.05153795,9e-08,0.0,0.0,0.0,9e-08,0.0,0.0,0.0,9e-08
1536701665943134688,1454,1536701665942802370,base_link,0.0576435961001,0.0263118404085,-0.55956550429,-0.826360302345,1.0,0.0,0.0,0.0,1.0,0.0,0.0,0.0,1.0,-0.0528369769454,0.0487581863999,0.110606454313,1.21846967915e-07,0.0,0.0,0.0,1.21846967915e-07,0.0,0.0,0.0,1.21846967915e-07,-0.5099458,0.18632635,8.63965865,9e-08,0.0,0.0,0.0,9e-08,0.0,0.0,0.0,9e-08
1536701666410315305,1455,1536701666409821487,base_link,0.0795982021802,0.014960174007,-0.584186958827,-0.807567902123,1.0,0.0,0.0,0.0,1.0,0.0,0.0,0.0,1.0,-0.0979879423976,0.00413473183289,0.166012778878,1.21846967915e-07,0.0,0.0,0.0,1.21846967915e-07,0.0,0.0,0.0,1.21846967915e-07,-0.4511059,0.14709975,8.4533323,9e-08,0.0,0.0,0.0,9e-08,0.0,0.0,0.0,9e-08
1536701666808812714,1456,1536701666808376325,base_link,0.0779858304881,0.00440260106548,-0.600910585806,-0.79549060033,1.0,0.0,0.0,0.0,1.0,0.0,0.0,0.0,1.0,0.132721036673,0.0389619320631,0.0179125871509,1.21846967915e-07,0.0,0.0,0.0,1.21846967915e-07,0.0,0.0,0.0,1.21846967915e-07,-0.30400615,0.55897905,9.7870367,9e-08,0.0,0.0,0.0,9e-08,0.0,0.0,0.0,9e-08
1536701667223835921,1457,1536701667223365439,base_link,0.0194515906628,-0.0399010059939,-0.609262806434,-0.79172493837,1.0,0.0,0.0,0.0,1.0,0.0,0.0,0.0,1.0,0.550647258759,-0.0412293151021,0.141588032246,1.21846967915e-07,0.0,0.0,0.0,1.21846967915e-07,0.0,0.0,0.0,1.21846967915e-07,-0.4118793,-0.0196133,10.42446895,9e-08,0.0,0.0,0.0,9e-08,0.0,0.0,0.0,9e-08
1536701667599474385,1458,1536701667599235671,base_link,-0.020816398096,-0.0759323260359,-0.623683140111,-0.777701935303,1.0,0.0,0.0,0.0,1.0,0.0,0.0,0.0,1.0,0.200232684612,0.0510110408068,-0.00378296803683,1.21846967915e-07,0.0,0.0,0.0,1.21846967915e-07,0.0,0.0,0.0,1.21846967915e-07,-0.42168595,0.85317855,9.81645665,9e-08,0.0,0.0,0.0,9e-08,0.0,0.0,0.0,9e-08
1536701668069054054,1459,1536701668068416885,base_link,-0.106077573335,-0.149643058629,-0.590997610412,-0.785542059935,1.0,0.0,0.0,0.0,1.0,0.0,0.0,0.0,1.0,0.666772961617,0.0386025980115,-0.159576460719,1.21846967915e-07,0.0,0.0,0.0,1.21846967915e-07,0.0,0.0,0.0,1.21846967915e-07,-0.4707192,0.2353596,9.1397978,9e-08,0.0,0.0,0.0,9e-08,0.0,0.0,0.0,9e-08
1536701668466784197,1460,1536701668466328632,base_link,-0.174039551076,-0.193359496662,-0.555666459045,-0.789656334112,1.0,0.0,0.0,0.0,1.0,0.0,0.0,0.0,1.0,0.125902503729,-0.0899587199092,-0.160529732704,1.21846967915e-07,0.0,0.0,0.0,1.21846967915e-07,0.0,0.0,0.0,1.21846967915e-07,-0.36284605,0.63743225,9.24767095,9e-08,0.0,0.0,0.0,9e-08,0.0,0.0,0.0,9e-08
1536701668887625507,1461,1536701668887262329,base_link,-0.19815168011,-0.19217169258,-0.51114891378,-0.81396114169,1.0,0.0,0.0,0.0,1.0,0.0,0.0,0.0,1.0,0.227302372456,-0.187136992812,-0.275684446096,1.21846967915e-07,0.0,0.0,0.0,1.21846967915e-07,0.0,0.0,0.0,1.21846967915e-07,-0.16671305,0.75511205,10.52253545,9e-08,0.0,0.0,0.0,9e-08,0.0,0.0,0.0,9e-08
1536701669331811321,1462,1536701669331271245,base_link,-0.249806417967,-0.194857004629,-0.436421652668,-0.842118544133,1.0,0.0,0.0,0.0,1.0,0.0,0.0,0.0,1.0,0.315393149853,-0.24262277782,-0.305090993643,1.21846967915e-07,0.0,0.0,0.0,1.21846967915e-07,0.0,0.0,0.0,1.21846967915e-07,-0.00980665,0.6864655,11.97391965,9e-08,0.0,0.0,0.0,9e-08,0.0,0.0,0.0,9e-08
1536701669766581416,1463,1536701669766336747,base_link,-0.296263815572,-0.179475134068,-0.357920177854,-0.867127196044,1.0,0.0,0.0,0.0,1.0,0.0,0.0,0.0,1.0,0.107294037938,-0.281974196434,-0.225346907973,1.21846967915e-07,0.0,0.0,0.0,1.21846967915e-07,0.0,0.0,0.0,1.21846967915e-07,0.2941995,1.04931155,12.748645,9e-08,0.0,0.0,0.0,9e-08,0.0,0.0,0.0,9e-08
1536701670129830941,1464,1536701670129523689,base_link,-0.317219001885,-0.153607755723,-0.291330216591,-0.889327536471,1.0,0.0,0.0,0.0,1.0,0.0,0.0,0.0,1.0,0.0873872637749,-0.297871619463,-0.331416904926,1.21846967915e-07,0.0,0.0,0.0,1.21846967915e-07,0.0,0.0,0.0,1.21846967915e-07,0.38245935,1.30428445,13.7096967,9e-08,0.0,0.0,0.0,9e-08,0.0,0.0,0.0,9e-08
1536701670565250114,1465,1536701670564869138,base_link,-0.339047568308,-0.121090594384,-0.184841404695,-0.914449271139,1.0,0.0,0.0,0.0,1.0,0.0,0.0,0.0,1.0,0.0383237041533,-0.389084815979,-0.416234642267,1.21846967915e-07,0.0,0.0,0.0,1.21846967915e-07,0.0,0.0,0.0,1.21846967915e-07,0.6472389,1.10815145,14.91591465,9e-08,0.0,0.0,0.0,9e-08,0.0,0.0,0.0,9e-08
1536701670979428073,1466,1536701670979132794,base_link,-0.321723934746,-0.0576762282869,-0.0946364483827,-0.940324999742,1.0,0.0,0.0,0.0,1.0,0.0,0.0,0.0,1.0,-0.194339603186,-0.331398129463,-0.238307356834,1.21846967915e-07,0.0,0.0,0.0,1.21846967915e-07,0.0,0.0,0.0,1.21846967915e-07,0.4314926,0.9022118,16.26923235,9e-08,0.0,0.0,0.0,9e-08,0.0,0.0,0.0,9e-08
1536701671241887054,1467,1536701671235703661,base_link,-0.304160071918,-0.0222729613334,-0.056796168659,-0.95066543067,1.0,0.0,0.0,0.0,1.0,0.0,0.0,0.0,1.0,-0.286118865013,-0.337120711803,-0.222594588995,1.21846967915e-07,0.0,0.0,0.0,1.21846967915e-07,0.0,0.0,0.0,1.21846967915e-07,0.2353596,0.79433865,14.0823494,9e-08,0.0,0.0,0.0,9e-08,0.0,0.0,0.0,9e-08
1536701671541624637,1468,1536701671541164335,base_link,-0.257725500204,0.010819162264,-0.012466301931,-0.966077172688,1.0,0.0,0.0,0.0,1.0,0.0,0.0,0.0,1.0,-0.411956846714,-0.143908411264,-0.239112347364,1.21846967915e-07,0.0,0.0,0.0,1.21846967915e-07,0.0,0.0,0.0,1.21846967915e-07,-0.1176798,1.0198916,11.375714,9e-08,0.0,0.0,0.0,9e-08,0.0,0.0,0.0,9e-08
1536701671963930181,1469,1536701671962814591,base_link,-0.142852780776,0.0438697908023,0.0539921765731,-0.987295988723,1.0,0.0,0.0,0.0,1.0,0.0,0.0,0.0,1.0,-0.655864298344,-0.135294139385,-0.215602084994,1.21846967915e-07,0.0,0.0,0.0,1.21846967915e-07,0.0,0.0,0.0,1.21846967915e-07,-0.0588399,0.5491724,11.79739995,9e-08,0.0,0.0,0.0,9e-08,0.0,0.0,0.0,9e-08
1536701672373941222,1470,1536701672373299251,base_link,-0.071038457987,0.0467998786574,0.0638979620287,-0.994324071565,1.0,0.0,0.0,0.0,1.0,0.0,0.0,0.0,1.0,-0.188295066357,-0.103450842202,0.110729068518,1.21846967915e-07,0.0,0.0,0.0,1.21846967915e-07,0.0,0.0,0.0,1.21846967915e-07,-0.00980665,0.46091255,10.48330885,9e-08,0.0,0.0,0.0,9e-08,0.0,0.0,0.0,9e-08
1536701672690948885,1471,1536701672689142826,base_link,-0.00119869858992,0.0472899684188,0.0597418452303,-0.997092339724,1.0,0.0,0.0,0.0,1.0,0.0,0.0,0.0,1.0,-0.475479662418,0.0637138038874,-0.0122172664851,1.21846967915e-07,0.0,0.0,0.0,1.21846967915e-07,0.0,0.0,0.0,1.21846967915e-07,0.0,0.5491724,10.591182,9e-08,0.0,0.0,0.0,9e-08,0.0,0.0,0.0,9e-08
1536701673081536712,1472,1536701673081187876,base_link,0.0610813648341,0.0341106590865,0.0580825127766,-0.995857395171,1.0,0.0,0.0,0.0,1.0,0.0,0.0,0.0,1.0,-0.170724853873,0.117159515619,0.0687161833048,1.21846967915e-07,0.0,0.0,0.0,1.21846967915e-07,0.0,0.0,0.0,1.21846967915e-07,-0.04903325,0.53936575,9.7870367,9e-08,0.0,0.0,0.0,9e-08,0.0,0.0,0.0,9e-08
1536701673583929039,1473,1536701673583607861,base_link,0.0737148769615,0.0210139809561,0.0321033637399,-0.996540969331,1.0,0.0,0.0,0.0,1.0,0.0,0.0,0.0,1.0,0.0881625115871,0.0427195169032,0.192480623722,1.21846967915e-07,0.0,0.0,0.0,1.21846967915e-07,0.0,0.0,0.0,1.21846967915e-07,-0.1569064,0.196133,8.6690786,9e-08,0.0,0.0,0.0,9e-08,0.0,0.0,0.0,9e-08
1536701673886873050,1474,1536701673886588462,base_link,0.0716530335474,0.00421573812672,0.00472860090093,-0.997409499989,1.0,0.0,0.0,0.0,1.0,0.0,0.0,0.0,1.0,-0.0673754289746,0.120087824762,0.172376900911,1.21846967915e-07,0.0,0.0,0.0,1.21846967915e-07,0.0,0.0,0.0,1.21846967915e-07,-0.20593965,0.392266,6.9431082,9e-08,0.0,0.0,0.0,9e-08,0.0,0.0,0.0,9e-08
1536701674171096161,1475,1536701674170795887,base_link,0.0811460123996,-0.0128239404184,-0.0118661393099,-0.996549078551,1.0,0.0,0.0,0.0,1.0,0.0,0.0,0.0,1.0,-0.151776313782,0.104890547693,0.0878314673901,1.21846967915e-07,0.0,0.0,0.0,1.21846967915e-07,0.0,0.0,0.0,1.21846967915e-07,-0.2157463,0.34323275,7.3942141,9e-08,0.0,0.0,0.0,9e-08,0.0,0.0,0.0,9e-08
1536701674576171640,1476,1536701674573409316,base_link,0.06854377576,-0.0387604266921,-0.0230741218908,-0.996627796635,1.0,0.0,0.0,0.0,1.0,0.0,0.0,0.0,1.0,0.306550741196,0.195599094033,0.0408778190613,1.21846967915e-07,0.0,0.0,0.0,1.21846967915e-07,0.0,0.0,0.0,1.21846967915e-07,-0.18632635,0.1372931,7.63938035,9e-08,0.0,0.0,0.0,9e-08,0.0,0.0,0.0,9e-08
1536701675006418041,1477,1536701675005622508,base_link,0.0177201772864,-0.059331947614,-0.0442356141158,-0.997100258627,1.0,0.0,0.0,0.0,1.0,0.0,0.0,0.0,1.0,0.0622470974922,0.0661899447441,0.137780562043,1.21846967915e-07,0.0,0.0,0.0,1.21846967915e-07,0.0,0.0,0.0,1.21846967915e-07,-0.14709975,0.3726527,8.5906254,9e-08,0.0,0.0,0.0,9e-08,0.0,0.0,0.0,9e-08
1536701675417546976,1478,1536701675415840923,base_link,0.0191878785555,-0.0624349502314,-0.0579481040205,-0.996180565734,1.0,0.0,0.0,0.0,1.0,0.0,0.0,0.0,1.0,-0.0111285112798,-0.0344887524843,-0.0101924594492,1.21846967915e-07,0.0,0.0,0.0,1.21846967915e-07,0.0,0.0,0.0,1.21846967915e-07,-0.0196133,0.588399,9.5124505,9e-08,0.0,0.0,0.0,9e-08,0.0,0.0,0.0,9e-08
1536701675886959509,1479,1536701675886658980,base_link,-0.00450947370238,-0.0432736668321,-0.0569494690416,-0.997428600142,1.0,0.0,0.0,0.0,1.0,0.0,0.0,0.0,1.0,0.153219252825,-0.10486984998,0.066433519125,1.21846967915e-07,0.0,0.0,0.0,1.21846967915e-07,0.0,0.0,0.0,1.21846967915e-07,0.1765197,0.2549729,11.66010685,9e-08,0.0,0.0,0.0,9e-08,0.0,0.0,0.0,9e-08
1536701676344674245,1480,1536701676344324449,base_link,-0.0291677130429,-0.0271654070588,-0.0793028725423,-0.996053381894,1.0,0.0,0.0,0.0,1.0,0.0,0.0,0.0,1.0,0.0804459601641,-0.0274227038026,0.0665859803557,1.21846967915e-07,0.0,0.0,0.0,1.21846967915e-07,0.0,0.0,0.0,1.21846967915e-07,0.24516625,0.85317855,12.6701918,9e-08,0.0,0.0,0.0,9e-08,0.0,0.0,0.0,9e-08
1536701676648889713,1481,1536701676648334847,base_link,-0.0540945877226,-0.0225635681733,-0.0779487529479,-0.995232964127,1.0,0.0,0.0,0.0,1.0,0.0,0.0,0.0,1.0,0.0984822362661,-0.0417427606881,-0.0523270741105,1.21846967915e-07,0.0,0.0,0.0,1.21846967915e-07,0.0,0.0,0.0,1.21846967915e-07,0.26477955,0.97085835,11.9052731,9e-08,0.0,0.0,0.0,9e-08,0.0,0.0,0.0,9e-08
1536701677082454905,1482,1536701677082060420,base_link,-0.0454202229893,-0.0164944326332,-0.0458777003049,-0.997777617333,1.0,0.0,0.0,0.0,1.0,0.0,0.0,0.0,1.0,0.101160302758,0.0255662500858,-0.186728537083,1.21846967915e-07,0.0,0.0,0.0,1.21846967915e-07,0.0,0.0,0.0,1.21846967915e-07,0.06864655,0.50013915,8.46313895,9e-08,0.0,0.0,0.0,9e-08,0.0,0.0,0.0,9e-08
1536701677590228402,1483,1536701677589474453,base_link,-0.0804228130357,-0.0174307277143,-0.0188645707693,-0.996429861478,1.0,0.0,0.0,0.0,1.0,0.0,0.0,0.0,1.0,-0.187914386392,-0.050694450736,-0.0129473460838,1.21846967915e-07,0.0,0.0,0.0,1.21846967915e-07,0.0,0.0,0.0,1.21846967915e-07,0.1765197,0.26477955,9.5909037,9e-08,0.0,0.0,0.0,9e-08,0.0,0.0,0.0,9e-08
1536701677880747460,1484,1536701677880519118,base_link,-0.0481546659055,-0.00377651887031,-0.0241327539237,-0.998541174036,1.0,0.0,0.0,0.0,1.0,0.0,0.0,0.0,1.0,-0.238512486219,-0.124095447361,0.0522394366562,1.21846967915e-07,0.0,0.0,0.0,1.21846967915e-07,0.0,0.0,0.0,1.21846967915e-07,0.32361945,0.91201845,13.1016844,9e-08,0.0,0.0,0.0,9e-08,0.0,0.0,0.0,9e-08
1536701678287681722,1485,1536701678285181673,base_link,0.00372838017441,0.00514591315874,-0.0228630346471,-0.999718410557,1.0,0.0,0.0,0.0,1.0,0.0,0.0,0.0,1.0,0.00136086903512,-0.033348120749,-0.0504283718765,1.21846967915e-07,0.0,0.0,0.0,1.21846967915e-07,0.0,0.0,0.0,1.21846967915e-07,0.40207265,0.77472535,12.3759923,9e-08,0.0,0.0,0.0,9e-08,0.0,0.0,0.0,9e-08
1536701678628287361,1486,1536701678627955107,base_link,4.40742482915e-05,0.00534838894206,-0.0182700439709,-0.999818782723,1.0,0.0,0.0,0.0,1.0,0.0,0.0,0.0,1.0,0.047562584281,0.016393776983,-0.0154611300677,1.21846967915e-07,0.0,0.0,0.0,1.21846967915e-07,0.0,0.0,0.0,1.21846967915e-07,0.10787315,0.53936575,10.75789505,9e-08,0.0,0.0,0.0,9e-08,0.0,0.0,0.0,9e-08
1536701679057345153,1487,1536701679054138340,base_link,-0.0400104826672,0.00765126941167,-0.0204162826386,-0.99896135799,1.0,0.0,0.0,0.0,1.0,0.0,0.0,0.0,1.0,0.0882701054215,-0.00433421786875,0.0211301855743,1.21846967915e-07,0.0,0.0,0.0,1.21846967915e-07,0.0,0.0,0.0,1.21846967915e-07,-0.08825985,0.46091255,10.58137535,9e-08,0.0,0.0,0.0,9e-08,0.0,0.0,0.0,9e-08
1536701679370459696,1488,1536701679369928551,base_link,-0.029090149797,-0.0020161781047,-0.0209086029325,-0.999356056936,1.0,0.0,0.0,0.0,1.0,0.0,0.0,0.0,1.0,-0.0592582896352,0.0365465469658,-0.0210403259844,1.21846967915e-07,0.0,0.0,0.0,1.21846967915e-07,0.0,0.0,0.0,1.21846967915e-07,-0.16671305,0.28439285,7.5707338,9e-08,0.0,0.0,0.0,9e-08,0.0,0.0,0.0,9e-08
1536701679765833812,1489,1536701679758940391,base_link,-0.0419161138005,-0.00289329239096,-0.0223995373719,-0.998865821314,1.0,0.0,0.0,0.0,1.0,0.0,0.0,0.0,1.0,-0.00041819550097,-0.0494368188083,0.0171269252896,1.21846967915e-07,0.0,0.0,0.0,1.21846967915e-07,0.0,0.0,0.0,1.21846967915e-07,-0.0784532,0.2941995,8.7867584,9e-08,0.0,0.0,0.0,9e-08,0.0,0.0,0.0,9e-08
1536701680027082351,1490,1536701680026801733,base_link,-0.0357210827302,0.00203385598669,-0.0236771044793,-0.999079207271,1.0,0.0,0.0,0.0,1.0,0.0,0.0,0.0,1.0,-0.0812747180462,0.00449065072462,-0.0026948149316,1.21846967915e-07,0.0,0.0,0.0,1.21846967915e-07,0.0,0.0,0.0,1.21846967915e-07,0.04903325,0.3334261,10.0812362,9e-08,0.0,0.0,0.0,9e-08,0.0,0.0,0.0,9e-08
1536701680378560259,1491,1536701680376203401,base_link,-0.027531346113,-0.00617484577293,-0.0285772561643,-0.999193292957,1.0,0.0,0.0,0.0,1.0,0.0,0.0,0.0,1.0,-0.0475769378245,0.0958074629307,0.00737997563556,1.21846967915e-07,0.0,0.0,0.0,1.21846967915e-07,0.0,0.0,0.0,1.21846967915e-07,-0.02941995,0.6276256,8.4729456,9e-08,0.0,0.0,0.0,9e-08,0.0,0.0,0.0,9e-08
1536701680791200166,1492,1536701680790918715,base_link,-0.00454635629933,-0.0177844215037,-0.0241966691414,-0.99953867669,1.0,0.0,0.0,0.0,1.0,0.0,0.0,0.0,1.0,-0.170318976045,0.0280217938125,-0.0270232670009,1.21846967915e-07,0.0,0.0,0.0,1.21846967915e-07,0.0,0.0,0.0,1.21846967915e-07,0.0980665,0.30400615,8.20816605,9e-08,0.0,0.0,0.0,9e-08,0.0,0.0,0.0,9e-08
1536701681125217490,1493,1536701681125007971,base_link,-0.0199878643117,-0.0268694715788,-0.0242135689786,-0.999145745052,1.0,0.0,0.0,0.0,1.0,0.0,0.0,0.0,1.0,0.257239937782,0.0568442158401,0.0284460522234,1.21846967915e-07,0.0,0.0,0.0,1.21846967915e-07,0.0,0.0,0.0,1.21846967915e-07,-0.0196133,0.2353596,8.4925589,9e-08,0.0,0.0,0.0,9e-08,0.0,0.0,0.0,9e-08
1536701681513659034,1494,1536701681513378608,base_link,-0.0674126722419,-0.0213010378128,-0.0340277194089,-0.996917204045,1.0,0.0,0.0,0.0,1.0,0.0,0.0,0.0,1.0,0.321048140526,-0.0980199277401,0.109299942851,1.21846967915e-07,0.0,0.0,0.0,1.21846967915e-07,0.0,0.0,0.0,1.21846967915e-07,0.0784532,-0.2745862,10.9246081,9e-08,0.0,0.0,0.0,9e-08,0.0,0.0,0.0,9e-08
1536701681912158971,1495,1536701681911518153,base_link,-0.0817550581788,-0.00870455901597,-0.0764400025948,-0.99367865385,1.0,0.0,0.0,0.0,1.0,0.0,0.0,0.0,1.0,-0.259763479233,-0.0279018059373,0.118111215532,1.21846967915e-07,0.0,0.0,0.0,1.21846967915e-07,0.0,0.0,0.0,1.21846967915e-07,0.1765197,1.01008495,11.1403544,9e-08,0.0,0.0,0.0,9e-08,0.0,0.0,0.0,9e-08
1536701682334758514,1496,1536701682334114303,base_link,-0.0292457409101,-0.015388438684,-0.0654179257989,-0.997310572278,1.0,0.0,0.0,0.0,1.0,0.0,0.0,0.0,1.0,-0.155621901155,0.0319926254451,-0.155324459076,1.21846967915e-07,0.0,0.0,0.0,1.21846967915e-07,0.0,0.0,0.0,1.21846967915e-07,0.08825985,0.77472535,9.36535075,9e-08,0.0,0.0,0.0,9e-08,0.0,0.0,0.0,9e-08
1536701682646745976,1497,1536701682646407352,base_link,-0.0219014327337,-0.00336132526974,-0.0455228859335,-0.998717525426,1.0,0.0,0.0,0.0,1.0,0.0,0.0,0.0,1.0,0.0178370699286,-0.113392554224,-0.0657922402024,1.21846967915e-07,0.0,0.0,0.0,1.21846967915e-07,0.0,0.0,0.0,1.21846967915e-07,0.16671305,0.2941995,10.64021525,9e-08,0.0,0.0,0.0,9e-08,0.0,0.0,0.0,9e-08
1536701683023593953,1498,1536701683023326108,base_link,-0.0186339054994,0.0148563026757,-0.0508984472852,-0.998419458895,1.0,0.0,0.0,0.0,1.0,0.0,0.0,0.0,1.0,0.0565142557025,-0.0925871729851,0.10463347286,1.21846967915e-07,0.0,0.0,0.0,1.21846967915e-07,0.0,0.0,0.0,1.21846967915e-07,0.3530394,0.2745862,11.6699135,9e-08,0.0,0.0,0.0,9e-08,0.0,0.0,0.0,9e-08
1536701683417320022,1499,1536701683416836832,base_link,0.00176430908687,0.0254964725433,-0.0744966407613,-0.996893709287,1.0,0.0,0.0,0.0,1.0,0.0,0.0,0.0,1.0,-0.177860334516,0.0275332257152,0.0887292847037,1.21846967915e-07,0.0,0.0,0.0,1.21846967915e-07,0.0,0.0,0.0,1.21846967915e-07,0.40207265,0.6472389,10.3165958,9e-08,0.0,0.0,0.0,9e-08,0.0,0.0,0.0,9e-08
1536701683865328401,1500,1536701683864992914,base_link,-0.00597307952793,0.0152885318115,-0.0735922958189,-0.997153326782,1.0,0.0,0.0,0.0,1.0,0.0,0.0,0.0,1.0,-0.010491868481,0.0552987456322,-0.0264983586967,1.21846967915e-07,0.0,0.0,0.0,1.21846967915e-07,0.0,0.0,0.0,1.21846967915e-07,0.30400615,0.6080123,9.0025047,9e-08,0.0,0.0,0.0,9e-08,0.0,0.0,0.0,9e-08
1536701684212109238,1501,1536701684210504567,base_link,-0.0238770718174,-0.00230043872976,-0.0693409276568,-0.997304581948,1.0,0.0,0.0,0.0,1.0,0.0,0.0,0.0,1.0,0.203831151128,0.095696516335,0.0127768870443,1.21846967915e-07,0.0,0.0,0.0,1.21846967915e-07,0.0,0.0,0.0,1.21846967915e-07,0.1765197,0.4118793,7.83551335,9e-08,0.0,0.0,0.0,9e-08,0.0,0.0,0.0,9e-08
1536701684639604903,1502,1536701684639300244,base_link,-0.0368127606968,-0.0191642233241,-0.0660656593322,-0.996951795149,1.0,0.0,0.0,0.0,1.0,0.0,0.0,0.0,1.0,0.0862217843533,0.0590027943254,-0.018898062408,1.21846967915e-07,0.0,0.0,0.0,1.21846967915e-07,0.0,0.0,0.0,1.21846967915e-07,0.2745862,0.61781895,10.22833595,9e-08,0.0,0.0,0.0,9e-08,0.0,0.0,0.0,9e-08
1536701684971519385,1503,1536701684971006647,base_link,-0.0493170354026,-0.00890609605552,-0.0618121313582,-0.996828857873,1.0,0.0,0.0,0.0,1.0,0.0,0.0,0.0,1.0,0.0365894660354,-0.125954031944,0.0172685459256,1.21846967915e-07,0.0,0.0,0.0,1.21846967915e-07,0.0,0.0,0.0,1.21846967915e-07,0.36284605,0.2353596,10.77750835,9e-08,0.0,0.0,0.0,9e-08,0.0,0.0,0.0,9e-08
1536701685436343240,1504,1536701685436076931,base_link,-0.0541301738851,0.0178602178649,-0.0717802330997,-0.995790407179,1.0,0.0,0.0,0.0,1.0,0.0,0.0,0.0,1.0,-0.0774788409472,-0.0155582828447,0.042203206569,1.21846967915e-07,0.0,0.0,0.0,1.21846967915e-07,0.0,0.0,0.0,1.21846967915e-07,0.44129925,0.6668522,11.97391965,9e-08,0.0,0.0,0.0,9e-08,0.0,0.0,0.0,9e-08
1536701685839619287,1505,1536701685837762073,base_link,-0.0414073015026,0.0066872215151,-0.0689404792469,-0.996738645168,1.0,0.0,0.0,0.0,1.0,0.0,0.0,0.0,1.0,-0.0335233807564,0.0155219268054,-0.0478803776205,1.21846967915e-07,0.0,0.0,0.0,1.21846967915e-07,0.0,0.0,0.0,1.21846967915e-07,0.2745862,0.6080123,9.05153795,9e-08,0.0,0.0,0.0,9e-08,0.0,0.0,0.0,9e-08
1536701686280860019,1506,1536701686280615607,base_link,-0.0373083893579,0.00879375152463,-0.05868067342,-0.997540642072,1.0,0.0,0.0,0.0,1.0,0.0,0.0,0.0,1.0,-0.0153693258762,-0.0672847852111,-0.010702800937,1.21846967915e-07,0.0,0.0,0.0,1.21846967915e-07,0.0,0.0,0.0,1.21846967915e-07,0.28439285,0.392266,9.52225715,9e-08,0.0,0.0,0.0,9e-08,0.0,0.0,0.0,9e-08
1536701686703019716,1507,1536701686694379394,base_link,-0.0343692279207,0.00661780317506,-0.0714125332177,-0.996832589231,1.0,0.0,0.0,0.0,1.0,0.0,0.0,0.0,1.0,-0.0479115173221,0.0614922642708,0.109239861369,1.21846967915e-07,0.0,0.0,0.0,1.21846967915e-07,0.0,0.0,0.0,1.21846967915e-07,0.3334261,0.79433865,10.1596894,9e-08,0.0,0.0,0.0,9e-08,0.0,0.0,0.0,9e-08
1536701687110388542,1508,1536701687109834156,base_link,-0.0260520656526,-0.00552059848963,-0.0709343045426,-0.997125437097,1.0,0.0,0.0,0.0,1.0,0.0,0.0,0.0,1.0,-0.128114834428,0.0328028015792,-0.0740867182612,1.21846967915e-07,0.0,0.0,0.0,1.21846967915e-07,0.0,0.0,0.0,1.21846967915e-07,0.34323275,0.5687857,9.7674234,9e-08,0.0,0.0,0.0,9e-08,0.0,0.0,0.0,9e-08
1536701687447953543,1509,1536701687447734100,base_link,-0.04110163959,-0.00918630755929,-0.0636933719514,-0.997080448783,1.0,0.0,0.0,0.0,1.0,0.0,0.0,0.0,1.0,0.253569126129,0.0774580910802,0.0217779669911,1.21846967915e-07,0.0,0.0,0.0,1.21846967915e-07,0.0,0.0,0.0,1.21846967915e-07,0.2353596,0.0588399,9.1986377,9e-08,0.0,0.0,0.0,9e-08,0.0,0.0,0.0,9e-08
1536701687847822286,1510,1536701687847585845,base_link,-0.0605934478056,-0.00824315512183,-0.0743094556252,-0.995358522986,1.0,0.0,0.0,0.0,1.0,0.0,0.0,0.0,1.0,0.0168942399323,-0.0656130313873,0.0347115285695,1.21846967915e-07,0.0,0.0,0.0,1.21846967915e-07,0.0,0.0,0.0,1.21846967915e-07,0.2549729,0.67665885,9.99297635,9e-08,0.0,0.0,0.0,9e-08,0.0,0.0,0.0,9e-08
1536701688330635821,1511,1536701688330228531,base_link,-0.0747039471664,-0.0157488057412,-0.0628106264944,-0.995101060493,1.0,0.0,0.0,0.0,1.0,0.0,0.0,0.0,1.0,0.116436704993,0.12850420177,-0.0881241559982,1.21846967915e-07,0.0,0.0,0.0,1.21846967915e-07,0.0,0.0,0.0,1.21846967915e-07,0.20593965,0.65704555,9.6497436,9e-08,0.0,0.0,0.0,9e-08,0.0,0.0,0.0,9e-08
1536701688839631668,1512,1536701688839233181,base_link,-0.123937697057,-0.0200383351822,-0.0320817642164,-0.991568793769,1.0,0.0,0.0,0.0,1.0,0.0,0.0,0.0,1.0,0.263238668442,-0.00346505921334,-0.101590037346,1.21846967915e-07,0.0,0.0,0.0,1.21846967915e-07,0.0,0.0,0.0,1.21846967915e-07,0.2353596,0.51975245,10.24794925,9e-08,0.0,0.0,0.0,9e-08,0.0,0.0,0.0,9e-08
1536701689231627003,1513,1536701689231233414,base_link,-0.159455542517,-0.0135134788161,-0.0140495355479,-0.987012627276,1.0,0.0,0.0,0.0,1.0,0.0,0.0,0.0,1.0,0.201655089855,-0.0492780767381,-0.109935835004,1.21846967915e-07,0.0,0.0,0.0,1.21846967915e-07,0.0,0.0,0.0,1.21846967915e-07,0.3726527,0.784532,10.99325465,9e-08,0.0,0.0,0.0,9e-08,0.0,0.0,0.0,9e-08
1536701689685367052,1514,1536701689685110699,base_link,-0.223990504109,-0.0125844487442,0.0191723671025,-0.974321459303,1.0,0.0,0.0,0.0,1.0,0.0,0.0,0.0,1.0,0.301792770624,-0.0965443104506,-0.166871279478,1.21846967915e-07,0.0,0.0,0.0,1.21846967915e-07,0.0,0.0,0.0,1.21846967915e-07,0.2157463,0.85317855,9.1790244,9e-08,0.0,0.0,0.0,9e-08,0.0,0.0,0.0,9e-08
1536701690088588614,1515,1536701690086783580,base_link,-0.264621907905,0.00964546919354,0.0679653284874,-0.961905881521,1.0,0.0,0.0,0.0,1.0,0.0,0.0,0.0,1.0,0.240048721433,-0.171461120248,-0.229986950755,1.21846967915e-07,0.0,0.0,0.0,1.21846967915e-07,0.0,0.0,0.0,1.21846967915e-07,0.4314926,0.8237586,10.83634825,9e-08,0.0,0.0,0.0,9e-08,0.0,0.0,0.0,9e-08
1536701690495745456,1516,1536701690495343352,base_link,-0.300394334701,0.0388153148346,0.122979550059,-0.945056953459,1.0,0.0,0.0,0.0,1.0,0.0,0.0,0.0,1.0,0.104572027922,-0.213924229145,-0.252507328987,1.21846967915e-07,0.0,0.0,0.0,1.21846967915e-07,0.0,0.0,0.0,1.21846967915e-07,0.69627215,1.1571847,11.52281375,9e-08,0.0,0.0,0.0,9e-08,0.0,0.0,0.0,9e-08
1536701690851276929,1517,1536701690850897041,base_link,-0.318331244944,0.0702663401689,0.187830659094,-0.926524421392,1.0,0.0,0.0,0.0,1.0,0.0,0.0,0.0,1.0,0.155081927776,-0.37956866622,-0.282846570015,1.21846967915e-07,0.0,0.0,0.0,1.21846967915e-07,0.0,0.0,0.0,1.21846967915e-07,0.8629852,0.980665,12.95458465,9e-08,0.0,0.0,0.0,9e-08,0.0,0.0,0.0,9e-08
1536701691317303766,1518,1536701691316864048,base_link,-0.326327055688,0.122663407036,0.261382537149,-0.900079724566,1.0,0.0,0.0,0.0,1.0,0.0,0.0,0.0,1.0,0.0358631536365,-0.211076036096,-0.243581533432,1.21846967915e-07,0.0,0.0,0.0,1.21846967915e-07,0.0,0.0,0.0,1.21846967915e-07,1.1964113,1.3925443,13.54298365,9e-08,0.0,0.0,0.0,9e-08,0.0,0.0,0.0,9e-08
1536701691665102812,1519,1536701691663468722,base_link,-0.326745661228,0.14416424939,0.321384678594,-0.877020997714,1.0,0.0,0.0,0.0,1.0,0.0,0.0,0.0,1.0,0.0365026034415,-0.227288365364,-0.363963127136,1.21846967915e-07,0.0,0.0,0.0,1.21846967915e-07,0.0,0.0,0.0,1.21846967915e-07,0.980665,1.2552512,12.01314625,9e-08,0.0,0.0,0.0,9e-08,0.0,0.0,0.0,9e-08
1536701692114984443,1520,1536701692114361007,base_link,-0.325087440405,0.178350829573,0.409518397642,-0.833548930582,1.0,0.0,0.0,0.0,1.0,0.0,0.0,0.0,1.0,-0.0121052917093,-0.314609080553,-0.34764662385,1.21846967915e-07,0.0,0.0,0.0,1.21846967915e-07,0.0,0.0,0.0,1.21846967915e-07,1.2160246,1.1375714,12.356379,9e-08,0.0,0.0,0.0,9e-08,0.0,0.0,0.0,9e-08
1536701692534417893,1521,1536701692532652169,base_link,-0.306909579922,0.210482376533,0.483167567582,-0.792497811075,1.0,0.0,0.0,0.0,1.0,0.0,0.0,0.0,1.0,0.00226885639131,-0.346022933722,-0.310960233212,1.21846967915e-07,0.0,0.0,0.0,1.21846967915e-07,0.0,0.0,0.0,1.21846967915e-07,1.16699135,0.8629852,13.0624578,9e-08,0.0,0.0,0.0,9e-08,0.0,0.0,0.0,9e-08
1536701692797735150,1522,1536701692797296456,base_link,-0.287886720413,0.228875241327,0.525923193724,-0.76690426679,1.0,0.0,0.0,0.0,1.0,0.0,0.0,0.0,1.0,-0.110344842076,-0.314500510693,-0.320347189903,1.21846967915e-07,0.0,0.0,0.0,1.21846967915e-07,0.0,0.0,0.0,1.21846967915e-07,1.16699135,1.32389775,12.6505785,9e-08,0.0,0.0,0.0,9e-08,0.0,0.0,0.0,9e-08
1536701693137864128,1523,1536701693137341243,base_link,-0.250618944874,0.24073687273,0.587755106296,-0.730602379959,1.0,0.0,0.0,0.0,1.0,0.0,0.0,0.0,1.0,-0.146225512028,-0.372892349958,-0.297491848469,1.21846967915e-07,0.0,0.0,0.0,1.21846967915e-07,0.0,0.0,0.0,1.21846967915e-07,1.01008495,1.12776475,12.66038515,9e-08,0.0,0.0,0.0,9e-08,0.0,0.0,0.0,9e-08
1536701693637931480,1524,1536701693637126376,base_link,0.155685474573,-0.254154926843,-0.673038318094,0.676894916915,1.0,0.0,0.0,0.0,1.0,0.0,0.0,0.0,1.0,-0.409582912922,-0.329926282167,-0.252472013235,1.21846967915e-07,0.0,0.0,0.0,1.21846967915e-07,0.0,0.0,0.0,1.21846967915e-07,1.12776475,0.9022118,15.3572139,9e-08,0.0,0.0,0.0,9e-08,0.0,0.0,0.0,9e-08
1536701694035155160,1525,1536701694034813815,base_link,0.0665844751646,-0.213589269629,-0.729408544317,0.646459052875,1.0,0.0,0.0,0.0,1.0,0.0,0.0,0.0,1.0,-0.59116089344,-0.190812349319,-0.189225777984,1.21846967915e-07,0.0,0.0,0.0,1.21846967915e-07,0.0,0.0,0.0,1.21846967915e-07,0.63743225,0.7453054,13.60182355,9e-08,0.0,0.0,0.0,9e-08,0.0,0.0,0.0,9e-08
1536701694547265272,1526,1536701694546935835,base_link,-0.0174982995429,-0.110249593948,-0.7776823239,0.618667147698,1.0,0.0,0.0,0.0,1.0,0.0,0.0,0.0,1.0,-0.512848198414,0.117731809616,-0.118632815778,1.21846967915e-07,0.0,0.0,0.0,1.21846967915e-07,0.0,0.0,0.0,1.21846967915e-07,0.14709975,0.46091255,8.7867584,9e-08,0.0,0.0,0.0,9e-08,0.0,0.0,0.0,9e-08
1536701695036256693,1527,1536701695034529032,base_link,-0.0526028116538,-0.0200624753812,-0.792636308581,0.607089880996,1.0,0.0,0.0,0.0,1.0,0.0,0.0,0.0,1.0,-0.235579267144,0.202965095639,0.000929868314415,1.21846967915e-07,0.0,0.0,0.0,1.21846967915e-07,0.0,0.0,0.0,1.21846967915e-07,-0.0588399,0.3138128,7.4334407,9e-08,0.0,0.0,0.0,9e-08,0.0,0.0,0.0,9e-08
1536701695336304538,1528,1536701695336017581,base_link,-0.0434318768984,0.0219127437701,-0.793481841824,0.606646577856,1.0,0.0,0.0,0.0,1.0,0.0,0.0,0.0,1.0,-0.113576717675,0.161203444004,0.0257126670331,1.21846967915e-07,0.0,0.0,0.0,1.21846967915e-07,0.0,0.0,0.0,1.21846967915e-07,-0.1569064,0.0980665,6.7469752,9e-08,0.0,0.0,0.0,9e-08,0.0,0.0,0.0,9e-08
1536701695734351568,1529,1536701695734030327,base_link,-0.0400118966863,0.0545265842619,-0.78013463121,0.621945220192,1.0,0.0,0.0,0.0,1.0,0.0,0.0,0.0,1.0,-0.114779546857,0.0515718758106,0.126717314124,1.21846967915e-07,0.0,0.0,0.0,1.21846967915e-07,0.0,0.0,0.0,1.21846967915e-07,-0.10787315,0.1765197,7.75706015,9e-08,0.0,0.0,0.0,9e-08,0.0,0.0,0.0,9e-08
1536701696091567229,1530,1536701696091254343,base_link,-0.0422027482584,0.0732905113095,-0.764155646366,0.63946350726,1.0,0.0,0.0,0.0,1.0,0.0,0.0,0.0,1.0,-0.045651011169,0.072567358613,0.148256242275,1.21846967915e-07,0.0,0.0,0.0,1.21846967915e-07,0.0,0.0,0.0,1.21846967915e-07,-0.0588399,0.30400615,8.69849855,9e-08,0.0,0.0,0.0,9e-08,0.0,0.0,0.0,9e-08
1536701696490555896,1531,1536701696490261192,base_link,-0.0357021554314,0.0823870812551,-0.743613924756,0.662552681565,1.0,0.0,0.0,0.0,1.0,0.0,0.0,0.0,1.0,0.0069839367643,0.020228266716,0.156597778201,1.21846967915e-07,0.0,0.0,0.0,1.21846967915e-07,0.0,0.0,0.0,1.21846967915e-07,0.0196133,0.4707192,9.7478101,9e-08,0.0,0.0,0.0,9e-08,0.0,0.0,0.0,9e-08
1536701696889726679,1532,1536701696887492330,base_link,-0.0242072541256,0.0713340516391,-0.730452494221,0.678796446374,1.0,0.0,0.0,0.0,1.0,0.0,0.0,0.0,1.0,0.138192638755,-0.0413111075759,0.0916613712907,1.21846967915e-07,0.0,0.0,0.0,1.21846967915e-07,0.0,0.0,0.0,1.21846967915e-07,0.08825985,0.2549729,10.2969825,9e-08,0.0,0.0,0.0,9e-08,0.0,0.0,0.0,9e-08
1536701697202871858,1533,1536701697201875449,base_link,-0.0051415818348,0.0592813345388,-0.717360829209,0.694156126695,1.0,0.0,0.0,0.0,1.0,0.0,0.0,0.0,1.0,0.124045096338,0.03988532722,0.146261110902,1.21846967915e-07,0.0,0.0,0.0,1.21846967915e-07,0.0,0.0,0.0,1.21846967915e-07,0.0,0.4118793,9.6497436,9e-08,0.0,0.0,0.0,9e-08,0.0,0.0,0.0,9e-08
1536701697627292121,1534,1536701697627038617,base_link,-0.0101319992824,-0.046938282153,0.70284551878,-0.709719886286,1.0,0.0,0.0,0.0,1.0,0.0,0.0,0.0,1.0,0.0861164033413,0.0419572293758,0.0209769066423,1.21846967915e-07,0.0,0.0,0.0,1.21846967915e-07,0.0,0.0,0.0,1.21846967915e-07,0.04903325,0.6276256,9.80665,9e-08,0.0,0.0,0.0,9e-08,0.0,0.0,0.0,9e-08
1536701698060855200,1535,1536701698060541609,base_link,-0.0346580367458,-0.028393132587,0.702258572252,-0.710510765724,1.0,0.0,0.0,0.0,1.0,0.0,0.0,0.0,1.0,0.191057503223,0.0437760129571,-0.00726375961676,1.21846967915e-07,0.0,0.0,0.0,1.21846967915e-07,0.0,0.0,0.0,1.21846967915e-07,0.06864655,0.6276256,10.2577559,9e-08,0.0,0.0,0.0,9e-08,0.0,0.0,0.0,9e-08
1536701698440608852,1536,1536701698440094225,base_link,-0.0567150252808,-0.00082200552178,0.702239210215,-0.709677970527,1.0,0.0,0.0,0.0,1.0,0.0,0.0,0.0,1.0,0.256226569414,-0.0793424025178,0.0118575356901,1.21846967915e-07,0.0,0.0,0.0,1.21846967915e-07,0.0,0.0,0.0,1.21846967915e-07,0.0784532,0.4314926,10.50292215,9e-08,0.0,0.0,0.0,9e-08,0.0,0.0,0.0,9e-08
1536701698804128975,1537,1536701698803757955,base_link,-0.0597657486504,0.026823319442,0.700821903693,-0.710321915843,1.0,0.0,0.0,0.0,1.0,0.0,0.0,0.0,1.0,0.0079838084057,-0.0616827011108,-0.00070073409006,1.21846967915e-07,0.0,0.0,0.0,1.21846967915e-07,0.0,0.0,0.0,1.21846967915e-07,0.24516625,0.38245935,11.1207411,9e-08,0.0,0.0,0.0,9e-08,0.0,0.0,0.0,9e-08
1536701699300799011,1538,1536701699300591957,base_link,-0.0639775138143,0.0431395091571,0.694047644759,-0.71578189924,1.0,0.0,0.0,0.0,1.0,0.0,0.0,0.0,1.0,0.00519657321274,0.0381139665842,-0.00600658077747,1.21846967915e-07,0.0,0.0,0.0,1.21846967915e-07,0.0,0.0,0.0,1.21846967915e-07,0.10787315,0.7256921,9.75761675,9e-08,0.0,0.0,0.0,9e-08,0.0,0.0,0.0,9e-08
1536701699733865743,1539,1536701699733576289,base_link,-0.0553901389213,0.0394350044968,0.703756583425,-0.707179951792,1.0,0.0,0.0,0.0,1.0,0.0,0.0,0.0,1.0,-0.0179721023887,0.0254944693297,-0.0936947017908,1.21846967915e-07,0.0,0.0,0.0,1.21846967915e-07,0.0,0.0,0.0,1.21846967915e-07,0.04903325,0.65704555,10.38524235,9e-08,0.0,0.0,0.0,9e-08,0.0,0.0,0.0,9e-08
1536701700054897295,1540,1536701700054590555,base_link,0.0564232374727,-0.0417213953132,-0.714229321074,0.696385109235,1.0,0.0,0.0,0.0,1.0,0.0,0.0,0.0,1.0,0.000289374962449,-0.0672548562288,-0.0547954924405,1.21846967915e-07,0.0,0.0,0.0,1.21846967915e-07,0.0,0.0,0.0,1.21846967915e-07,0.08825985,0.55897905,9.9635564,9e-08,0.0,0.0,0.0,9e-08,0.0,0.0,0.0,9e-08
1536701700500098949,1541,1536701700499694124,base_link,0.0482648365508,-0.0453493162245,-0.717559808929,0.693341088989,1.0,0.0,0.0,0.0,1.0,0.0,0.0,0.0,1.0,-0.0342814326286,-0.076308876276,-0.005146285519,1.21846967915e-07,0.0,0.0,0.0,1.21846967915e-07,0.0,0.0,0.0,1.21846967915e-07,0.18632635,0.588399,9.75761675,9e-08,0.0,0.0,0.0,9e-08,0.0,0.0,0.0,9e-08
1536701700821658796,1542,1536701700821352889,base_link,0.0312095325455,-0.0512412041489,-0.721314544436,0.690004081192,1.0,0.0,0.0,0.0,1.0,0.0,0.0,0.0,1.0,-0.0487018786371,-0.115437991917,-0.0543412193656,1.21846967915e-07,0.0,0.0,0.0,1.21846967915e-07,0.0,0.0,0.0,1.21846967915e-07,0.392266,0.8041453,12.18966595,9e-08,0.0,0.0,0.0,9e-08,0.0,0.0,0.0,9e-08
1536701701226050497,1543,1536701701225792095,base_link,0.037738672609,-0.0641719912268,-0.730249995113,0.679111693884,1.0,0.0,0.0,0.0,1.0,0.0,0.0,0.0,1.0,0.154752627015,0.0620203204453,-0.0926377028227,1.21846967915e-07,0.0,0.0,0.0,1.21846967915e-07,0.0,0.0,0.0,1.21846967915e-07,0.22555295,0.6080123,10.0420096,9e-08,0.0,0.0,0.0,9e-08,0.0,0.0,0.0,9e-08
1536701701647350124,1544,1536701701646947572,base_link,0.0792288593872,-0.108609746458,-0.734239449022,0.665446573599,1.0,0.0,0.0,0.0,1.0,0.0,0.0,0.0,1.0,0.410477072001,0.0154221989214,-0.0484071709216,1.21846967915e-07,0.0,0.0,0.0,1.21846967915e-07,0.0,0.0,0.0,1.21846967915e-07,0.1765197,0.42168595,10.002783,9e-08,0.0,0.0,0.0,9e-08,0.0,0.0,0.0,9e-08
1536701702007252209,1545,1536701702006808457,base_link,0.118446948661,-0.15126206374,-0.733357348236,0.652132738187,1.0,0.0,0.0,0.0,1.0,0.0,0.0,0.0,1.0,0.306955635548,-0.00622833613306,-0.0948628932238,1.21846967915e-07,0.0,0.0,0.0,1.21846967915e-07,0.0,0.0,0.0,1.21846967915e-07,0.196133,0.61781895,9.46341725,9e-08,0.0,0.0,0.0,9e-08,0.0,0.0,0.0,9e-08
1536701702399056367,1546,1536701702398572857,base_link,0.164160488131,-0.194905525919,-0.742034368172,0.620038842779,1.0,0.0,0.0,0.0,1.0,0.0,0.0,0.0,1.0,0.25009945035,-0.0389028042555,-0.200557157397,1.21846967915e-07,0.0,0.0,0.0,1.21846967915e-07,0.0,0.0,0.0,1.21846967915e-07,0.14709975,0.69627215,9.26728425,9e-08,0.0,0.0,0.0,9e-08,0.0,0.0,0.0,9e-08
1536701702819605247,1547,1536701702817483837,base_link,0.181185229063,-0.23202535625,-0.766681204147,0.570557690364,1.0,0.0,0.0,0.0,1.0,0.0,0.0,0.0,1.0,0.222278937697,-0.244024083018,-0.299591302872,1.21846967915e-07,0.0,0.0,0.0,1.21846967915e-07,0.0,0.0,0.0,1.21846967915e-07,0.3138128,1.0395049,11.26784085,9e-08,0.0,0.0,0.0,9e-08,0.0,0.0,0.0,9e-08
1536701703216744895,1548,1536701703216444269,base_link,0.180292891221,-0.280161012732,-0.797551364891,0.502907646273,1.0,0.0,0.0,0.0,1.0,0.0,0.0,0.0,1.0,0.163506388664,-0.196455493569,-0.249526590109,1.21846967915e-07,0.0,0.0,0.0,1.21846967915e-07,0.0,0.0,0.0,1.21846967915e-07,0.55897905,0.89240515,11.76798,9e-08,0.0,0.0,0.0,9e-08,0.0,0.0,0.0,9e-08
1536701703628592149,1549,1536701703628116834,base_link,0.162290003077,-0.307928456841,-0.826230624564,0.442927731579,1.0,0.0,0.0,0.0,1.0,0.0,0.0,0.0,1.0,0.0320144891739,-0.252362430096,-0.271564155817,1.21846967915e-07,0.0,0.0,0.0,1.21846967915e-07,0.0,0.0,0.0,1.21846967915e-07,0.7453054,1.12776475,12.09159945,9e-08,0.0,0.0,0.0,9e-08,0.0,0.0,0.0,9e-08
1536701704010267359,1550,1536701704009876716,base_link,0.145294580848,-0.329946558598,-0.853638515787,0.375933554781,1.0,0.0,0.0,0.0,1.0,0.0,0.0,0.0,1.0,0.0562770441175,-0.274170041084,-0.340550273657,1.21846967915e-07,0.0,0.0,0.0,1.21846967915e-07,0.0,0.0,0.0,1.21846967915e-07,0.95124505,1.1571847,11.9837263,9e-08,0.0,0.0,0.0,9e-08,0.0,0.0,0.0,9e-08
1536701704393885096,1551,1536701704393675641,base_link,0.117158306367,-0.355224995851,-0.878773963083,0.296387340114,1.0,0.0,0.0,0.0,1.0,0.0,0.0,0.0,1.0,0.0984942018986,-0.324779391289,-0.271888792515,1.21846967915e-07,0.0,0.0,0.0,1.21846967915e-07,0.0,0.0,0.0,1.21846967915e-07,1.1571847,0.9022118,12.5917386,9e-08,0.0,0.0,0.0,9e-08,0.0,0.0,0.0,9e-08
1536701704849751517,1552,1536701704849459374,base_link,0.0701375301488,-0.354973577702,-0.906874271589,0.215994309018,1.0,0.0,0.0,0.0,1.0,0.0,0.0,0.0,1.0,-0.201060965657,-0.287728846073,-0.326197445393,1.21846967915e-07,0.0,0.0,0.0,1.21846967915e-07,0.0,0.0,0.0,1.21846967915e-07,1.40235095,1.10815145,12.944778,9e-08,0.0,0.0,0.0,9e-08,0.0,0.0,0.0,9e-08
1536701705182345231,1553,1536701705176582125,base_link,0.0400274035609,-0.35002696538,-0.923128502574,0.153989279521,1.0,0.0,0.0,0.0,1.0,0.0,0.0,0.0,1.0,-0.140931800008,-0.277189314365,-0.239719346166,1.21846967915e-07,0.0,0.0,0.0,1.21846967915e-07,0.0,0.0,0.0,1.21846967915e-07,1.28467115,1.1179581,13.09187775,9e-08,0.0,0.0,0.0,9e-08,0.0,0.0,0.0,9e-08
1536701705499137805,1554,1536701705496674378,base_link,0.0126580793353,-0.33784238239,-0.936276536858,0.0953338566229,1.0,0.0,0.0,0.0,1.0,0.0,0.0,0.0,1.0,-0.0296086743474,-0.31383228302,-0.336084067822,1.21846967915e-07,0.0,0.0,0.0,1.21846967915e-07,0.0,0.0,0.0,1.21846967915e-07,1.1179581,1.1375714,11.73856005,9e-08,0.0,0.0,0.0,9e-08,0.0,0.0,0.0,9e-08
1536701705928159903,1555,1536701705927896604,base_link,-0.0428944123151,-0.323766600123,-0.945145429965,0.00594762582528,1.0,0.0,0.0,0.0,1.0,0.0,0.0,0.0,1.0,-0.269138306379,-0.418182075024,-0.287650555372,1.21846967915e-07,0.0,0.0,0.0,1.21846967915e-07,0.0,0.0,0.0,1.21846967915e-07,1.2356379,1.0787315,14.34712895,9e-08,0.0,0.0,0.0,9e-08,0.0,0.0,0.0,9e-08
1536701706281162580,1556,1536701706280922681,base_link,-0.0804145095738,-0.268827653736,-0.957890614552,-0.0609160881003,1.0,0.0,0.0,0.0,1.0,0.0,0.0,0.0,1.0,-0.39642137289,-0.198225617409,-0.260102748871,1.21846967915e-07,0.0,0.0,0.0,1.21846967915e-07,0.0,0.0,0.0,1.21846967915e-07,0.9218251,1.01008495,13.5527903,9e-08,0.0,0.0,0.0,9e-08,0.0,0.0,0.0,9e-08
1536701706719575748,1557,1536701706718842190,base_link,-0.0992891777035,-0.158789991976,-0.973803435243,-0.128973901033,1.0,0.0,0.0,0.0,1.0,0.0,0.0,0.0,1.0,-0.658550798893,-0.0779605805874,-0.204543620348,1.21846967915e-07,0.0,0.0,0.0,1.21846967915e-07,0.0,0.0,0.0,1.21846967915e-07,0.50013915,0.7453054,12.81729155,9e-08,0.0,0.0,0.0,9e-08,0.0,0.0,0.0,9e-08
1536701706963187220,1558,1536701706961289031,base_link,-0.090096935665,-0.0918359057002,-0.978489081388,-0.161269421194,1.0,0.0,0.0,0.0,1.0,0.0,0.0,0.0,1.0,-0.488462328911,-0.0477326698601,-0.153659507632,1.21846967915e-07,0.0,0.0,0.0,1.21846967915e-07,0.0,0.0,0.0,1.21846967915e-07,0.2157463,0.5099458,10.3754357,9e-08,0.0,0.0,0.0,9e-08,0.0,0.0,0.0,9e-08
1536701707237857601,1559,1536701707237247578,base_link,-0.0803223535539,-0.03206804622,-0.9800331774,-0.179038909532,1.0,0.0,0.0,0.0,1.0,0.0,0.0,0.0,1.0,-0.385798215866,-0.00495100393891,-0.0289682373405,1.21846967915e-07,0.0,0.0,0.0,1.21846967915e-07,0.0,0.0,0.0,1.21846967915e-07,0.08825985,0.50013915,9.6497436,9e-08,0.0,0.0,0.0,9e-08,0.0,0.0,0.0,9e-08
1536701707642168727,1560,1536701707641866917,base_link,-0.0571626096556,0.0312795292613,-0.979273282046,-0.191775561993,1.0,0.0,0.0,0.0,1.0,0.0,0.0,0.0,1.0,-0.15959829092,0.0739477500319,-0.0263396669179,1.21846967915e-07,0.0,0.0,0.0,1.21846967915e-07,0.0,0.0,0.0,1.21846967915e-07,-0.00980665,0.28439285,8.28661925,9e-08,0.0,0.0,0.0,9e-08,0.0,0.0,0.0,9e-08
1536701708000825989,1561,1536701708000400356,base_link,-0.0390488187082,0.0502956344122,-0.98041089193,-0.186386753558,1.0,0.0,0.0,0.0,1.0,0.0,0.0,0.0,1.0,-0.0975562855601,0.0943371802568,0.0815379023552,1.21846967915e-07,0.0,0.0,0.0,1.21846967915e-07,0.0,0.0,0.0,1.21846967915e-07,0.0196133,0.2353596,8.0806796,9e-08,0.0,0.0,0.0,9e-08,0.0,0.0,0.0,9e-08
1536701708352618832,1562,1536701708351912133,base_link,-0.0141968138491,0.0545328538182,-0.98381636241,-0.170088163568,1.0,0.0,0.0,0.0,1.0,0.0,0.0,0.0,1.0,-0.103070408106,0.106043376029,0.117721401155,1.21846967915e-07,0.0,0.0,0.0,1.21846967915e-07,0.0,0.0,0.0,1.21846967915e-07,-0.06864655,0.20593965,7.24711435,9e-08,0.0,0.0,0.0,9e-08,0.0,0.0,0.0,9e-08
1536701708709405114,1563,1536701708708967317,base_link,0.0123206059512,0.0776163325283,-0.986019974109,-0.146930317674,1.0,0.0,0.0,0.0,1.0,0.0,0.0,0.0,1.0,-6.10612332821e-05,0.112159922719,0.11968883127,1.21846967915e-07,0.0,0.0,0.0,1.21846967915e-07,0.0,0.0,0.0,1.21846967915e-07,-0.00980665,0.2941995,8.05125965,9e-08,0.0,0.0,0.0,9e-08,0.0,0.0,0.0,9e-08
1536701709065402523,1564,1536701709065095495,base_link,0.0322768355234,0.0638151303453,-0.989437378239,-0.126093257437,1.0,0.0,0.0,0.0,1.0,0.0,0.0,0.0,1.0,0.091059781611,0.0985099822283,0.131249174476,1.21846967915e-07,0.0,0.0,0.0,1.21846967915e-07,0.0,0.0,0.0,1.21846967915e-07,0.04903325,0.1765197,8.2179727,9e-08,0.0,0.0,0.0,9e-08,0.0,0.0,0.0,9e-08
1536701709383394174,1565,1536701709383180269,base_link,0.0412161477489,0.0366435782778,-0.993047430979,-0.103996524755,1.0,0.0,0.0,0.0,1.0,0.0,0.0,0.0,1.0,0.244268745184,0.11221267283,0.117166317999,1.21846967915e-07,0.0,0.0,0.0,1.21846967915e-07,0.0,0.0,0.0,1.21846967915e-07,0.0784532,0.3726527,8.5710121,9e-08,0.0,0.0,0.0,9e-08,0.0,0.0,0.0,9e-08
1536701709779496661,1566,1536701709774423864,base_link,0.0565141218887,-0.00293515511554,-0.994264346825,-0.0907521213199,1.0,0.0,0.0,0.0,1.0,0.0,0.0,0.0,1.0,0.0462449640036,0.054822165519,0.0333673879504,1.21846967915e-07,0.0,0.0,0.0,1.21846967915e-07,0.0,0.0,0.0,1.21846967915e-07,0.0,0.4903325,7.4922806,9e-08,0.0,0.0,0.0,9e-08,0.0,0.0,0.0,9e-08
1536701710102540526,1567,1536701710101986044,base_link,0.0555254136329,0.000784554057915,-0.994379755384,-0.0901399744767,1.0,0.0,0.0,0.0,1.0,0.0,0.0,0.0,1.0,0.0689977556467,-0.0717457160354,0.0105449147522,1.21846967915e-07,0.0,0.0,0.0,1.21846967915e-07,0.0,0.0,0.0,1.21846967915e-07,0.0588399,0.20593965,10.5127288,9e-08,0.0,0.0,0.0,9e-08,0.0,0.0,0.0,9e-08
1536701710519087701,1568,1536701710518819760,base_link,0.0426952619979,-0.0101956398586,-0.996849692747,-0.0660594701917,1.0,0.0,0.0,0.0,1.0,0.0,0.0,0.0,1.0,0.033448971808,-0.0267081782222,0.172585368156,1.21846967915e-07,0.0,0.0,0.0,1.21846967915e-07,0.0,0.0,0.0,1.21846967915e-07,0.2157463,0.32361945,11.0422879,9e-08,0.0,0.0,0.0,9e-08,0.0,0.0,0.0,9e-08
1536701710959578934,1569,1536701710959261663,base_link,0.0235349855624,-0.0186672266908,-0.998984831525,-0.0335700087219,1.0,0.0,0.0,0.0,1.0,0.0,0.0,0.0,1.0,-0.0734977126122,-0.0102244364098,0.101389661431,1.21846967915e-07,0.0,0.0,0.0,1.21846967915e-07,0.0,0.0,0.0,1.21846967915e-07,0.392266,0.588399,11.64049355,9e-08,0.0,0.0,0.0,9e-08,0.0,0.0,0.0,9e-08
1536701711408520050,1570,1536701711406329430,base_link,0.013578800098,-0.0219862364072,-0.999457805642,-0.0204038314468,1.0,0.0,0.0,0.0,1.0,0.0,0.0,0.0,1.0,0.0538788773119,-0.07404319942,0.0367026738822,1.21846967915e-07,0.0,0.0,0.0,1.21846967915e-07,0.0,0.0,0.0,1.21846967915e-07,0.30400615,0.51975245,11.71894675,9e-08,0.0,0.0,0.0,9e-08,0.0,0.0,0.0,9e-08
1536701711684342418,1571,1536701711683667475,base_link,0.00821754803996,-0.0432353481722,-0.998901144591,-0.0161145867815,1.0,0.0,0.0,0.0,1.0,0.0,0.0,0.0,1.0,0.192685171962,-0.0110259586945,0.0356492064893,1.21846967915e-07,0.0,0.0,0.0,1.21846967915e-07,0.0,0.0,0.0,1.21846967915e-07,0.36284605,0.588399,11.48358715,9e-08,0.0,0.0,0.0,9e-08,0.0,0.0,0.0,9e-08
1536701711967897628,1572,1536701711967454613,base_link,0.00904767831855,-0.0593618821303,-0.998121902386,-0.0121233017417,1.0,0.0,0.0,0.0,1.0,0.0,0.0,0.0,1.0,0.00609665736556,0.0298101678491,0.00313976057805,1.21846967915e-07,0.0,0.0,0.0,1.21846967915e-07,0.0,0.0,0.0,1.21846967915e-07,0.2353596,0.7256921,10.6696352,9e-08,0.0,0.0,0.0,9e-08,0.0,0.0,0.0,9e-08
1536701712355630008,1573,1536701712355374551,base_link,0.0153121761273,-0.0698862823197,-0.997242132085,-0.0197376492926,1.0,0.0,0.0,0.0,1.0,0.0,0.0,0.0,1.0,0.073209002614,0.0188473947346,-0.0601132214069,1.21846967915e-07,0.0,0.0,0.0,1.21846967915e-07,0.0,0.0,0.0,1.21846967915e-07,0.0588399,0.588399,10.20872265,9e-08,0.0,0.0,0.0,9e-08,0.0,0.0,0.0,9e-08
1536701712941899447,1574,1536701712941510564,base_link,0.011443627382,-0.0930944649269,-0.99514638191,-0.029768146784,1.0,0.0,0.0,0.0,1.0,0.0,0.0,0.0,1.0,0.0279826894403,0.0199939999729,-0.0200246460736,1.21846967915e-07,0.0,0.0,0.0,1.21846967915e-07,0.0,0.0,0.0,1.21846967915e-07,0.0588399,0.4903325,10.983448,9e-08,0.0,0.0,0.0,9e-08,0.0,0.0,0.0,9e-08
1536701713394985489,1575,1536701713394178688,base_link,0.00927252680686,-0.0864806286527,-0.995309083509,-0.0423668431479,1.0,0.0,0.0,0.0,1.0,0.0,0.0,0.0,1.0,0.168731346726,-0.0332140363753,-0.0916319265962,1.21846967915e-07,0.0,0.0,0.0,1.21846967915e-07,0.0,0.0,0.0,1.21846967915e-07,-0.04903325,0.7453054,9.40457735,9e-08,0.0,0.0,0.0,9e-08,0.0,0.0,0.0,9e-08
1536701713716327078,1576,1536701713715886880,base_link,0.0110718674838,-0.0850895040382,-0.994768821648,-0.0554272634178,1.0,0.0,0.0,0.0,1.0,0.0,0.0,0.0,1.0,-0.179043993354,0.0138655714691,-0.0622329190373,1.21846967915e-07,0.0,0.0,0.0,1.21846967915e-07,0.0,0.0,0.0,1.21846967915e-07,0.22555295,0.69627215,10.1204628,9e-08,0.0,0.0,0.0,9e-08,0.0,0.0,0.0,9e-08
1536701714041702832,1577,1536701714040740453,base_link,0.0204609194871,-0.0535540588896,-0.995971478453,-0.0689501824405,1.0,0.0,0.0,0.0,1.0,0.0,0.0,0.0,1.0,-0.0908099412918,-0.0518196858466,-0.0759777724743,1.21846967915e-07,0.0,0.0,0.0,1.21846967915e-07,0.0,0.0,0.0,1.21846967915e-07,0.22555295,0.5099458,9.8851032,9e-08,0.0,0.0,0.0,9e-08,0.0,0.0,0.0,9e-08
1536701714402347501,1578,1536701714402051293,base_link,0.0253928361822,-0.0369794937027,-0.996165996906,-0.0751067741549,1.0,0.0,0.0,0.0,1.0,0.0,0.0,0.0,1.0,0.0351040586829,0.0724142193794,-0.0193824358284,1.21846967915e-07,0.0,0.0,0.0,1.21846967915e-07,0.0,0.0,0.0,1.21846967915e-07,0.0392266,0.50013915,9.4339973,9e-08,0.0,0.0,0.0,9e-08,0.0,0.0,0.0,9e-08
1536701714907774639,1579,1536701714907503881,base_link,0.0320772102136,-0.0221559139921,-0.9954179664,-0.087311168977,1.0,0.0,0.0,0.0,1.0,0.0,0.0,0.0,1.0,0.0533543676138,0.0188768114895,0.0104045569897,1.21846967915e-07,0.0,0.0,0.0,1.21846967915e-07,0.0,0.0,0.0,1.21846967915e-07,0.02941995,0.22555295,8.83579165,9e-08,0.0,0.0,0.0,9e-08,0.0,0.0,0.0,9e-08
1536701715375978972,1580,1536701715375222046,base_link,0.014591942848,-0.0255737841183,-0.99645056331,-0.0788627392918,1.0,0.0,0.0,0.0,1.0,0.0,0.0,0.0,1.0,-0.192615091801,-0.106937743723,0.0688827782869,1.21846967915e-07,0.0,0.0,0.0,1.21846967915e-07,0.0,0.0,0.0,1.21846967915e-07,0.34323275,0.48052585,11.4541672,9e-08,0.0,0.0,0.0,9e-08,0.0,0.0,0.0,9e-08
1536701715737057117,1581,1536701715736761805,base_link,0.00234838859073,-0.0107772379176,-0.997786248164,-0.0655815461026,1.0,0.0,0.0,0.0,1.0,0.0,0.0,0.0,1.0,-0.0425984933972,0.00959505047649,0.070990242064,1.21846967915e-07,0.0,0.0,0.0,1.21846967915e-07,0.0,0.0,0.0,1.21846967915e-07,0.40207265,0.61781895,11.4345539,9e-08,0.0,0.0,0.0,9e-08,0.0,0.0,0.0,9e-08
1536701716085841047,1582,1536701716085098078,base_link,0.00482766006711,-0.0183238960212,-0.997556412461,-0.0672468028244,1.0,0.0,0.0,0.0,1.0,0.0,0.0,0.0,1.0,0.134220793843,-0.023431904614,-0.0696131065488,1.21846967915e-07,0.0,0.0,0.0,1.21846967915e-07,0.0,0.0,0.0,1.21846967915e-07,0.14709975,0.4511059,9.58109705,9e-08,0.0,0.0,0.0,9e-08,0.0,0.0,0.0,9e-08
1536701716465389533,1583,1536701716465011470,base_link,0.00181491469296,-0.0405446729283,-0.996402607967,-0.0743954193422,1.0,0.0,0.0,0.0,1.0,0.0,0.0,0.0,1.0,0.103713780642,0.0423040688038,-0.0593625791371,1.21846967915e-07,0.0,0.0,0.0,1.21846967915e-07,0.0,0.0,0.0,1.21846967915e-07,-0.06864655,0.5687857,9.1005712,9e-08,0.0,0.0,0.0,9e-08,0.0,0.0,0.0,9e-08
1536701716779447729,1584,1536701716779196114,base_link,-0.000767290623469,-0.0720201305398,-0.993624099425,-0.0867390402497,1.0,0.0,0.0,0.0,1.0,0.0,0.0,0.0,1.0,0.15053781867,-0.0263817422092,-0.0215503219515,1.21846967915e-07,0.0,0.0,0.0,1.21846967915e-07,0.0,0.0,0.0,1.21846967915e-07,-0.0392266,0.1765197,10.1400761,9e-08,0.0,0.0,0.0,9e-08,0.0,0.0,0.0,9e-08
1536701717205344038,1585,1536701717204086955,base_link,0.00506189098659,-0.0785040526757,-0.993319109125,-0.0844312644668,1.0,0.0,0.0,0.0,1.0,0.0,0.0,0.0,1.0,-0.268091976643,-0.0464830584824,-0.0146058257669,1.21846967915e-07,0.0,0.0,0.0,1.21846967915e-07,0.0,0.0,0.0,1.21846967915e-07,-0.0392266,0.8041453,10.2381426,9e-08,0.0,0.0,0.0,9e-08,0.0,0.0,0.0,9e-08
1536701717460955663,1586,1536701717460344231,base_link,0.0075697483973,-0.0445889565962,-0.994675176872,-0.0926057037862,1.0,0.0,0.0,0.0,1.0,0.0,0.0,0.0,1.0,-0.144240438938,-0.00217633601278,-0.0886421129107,1.21846967915e-07,0.0,0.0,0.0,1.21846967915e-07,0.0,0.0,0.0,1.21846967915e-07,0.00980665,0.55897905,9.40457735,9e-08,0.0,0.0,0.0,9e-08,0.0,0.0,0.0,9e-08
1536701717857553281,1587,1536701717857217826,base_link,0.0144610340314,-0.0576478574184,-0.993096364758,-0.101129685725,1.0,0.0,0.0,0.0,1.0,0.0,0.0,0.0,1.0,0.177291274071,0.00192625448108,0.0726645514369,1.21846967915e-07,0.0,0.0,0.0,1.21846967915e-07,0.0,0.0,0.0,1.21846967915e-07,-0.04903325,0.08825985,9.3359308,9e-08,0.0,0.0,0.0,9e-08,0.0,0.0,0.0,9e-08
1536701718301539948,1588,1536701718301181540,base_link,0.0168556984566,-0.0606103934892,-0.993997226324,-0.0895085453523,1.0,0.0,0.0,0.0,1.0,0.0,0.0,0.0,1.0,-0.0496137663722,-0.0241477359086,0.0426148101687,1.21846967915e-07,0.0,0.0,0.0,1.21846967915e-07,0.0,0.0,0.0,1.21846967915e-07,0.00980665,0.5099458,10.1596894,9e-08,0.0,0.0,0.0,9e-08,0.0,0.0,0.0,9e-08
1536701718739096376,1589,1536701718738764123,base_link,0.0178134905985,-0.0534457857639,-0.994988314343,-0.0826104222111,1.0,0.0,0.0,0.0,1.0,0.0,0.0,0.0,1.0,-0.0906708166003,0.0168496333063,0.0186041370034,1.21846967915e-07,0.0,0.0,0.0,1.21846967915e-07,0.0,0.0,0.0,1.21846967915e-07,0.0588399,0.53936575,10.79712165,9e-08,0.0,0.0,0.0,9e-08,0.0,0.0,0.0,9e-08
1536701719130381363,1590,1536701719130062298,base_link,0.0152684456542,-0.0279948339265,-0.996315339229,-0.0796172635648,1.0,0.0,0.0,0.0,1.0,0.0,0.0,0.0,1.0,-0.137198776007,-0.038923189044,0.0152935422957,1.21846967915e-07,0.0,0.0,0.0,1.21846967915e-07,0.0,0.0,0.0,1.21846967915e-07,-0.0196133,0.51975245,10.58137535,9e-08,0.0,0.0,0.0,9e-08,0.0,0.0,0.0,9e-08
1536701719495532215,1591,1536701719495118554,base_link,0.0145848784381,-0.0326018751132,-0.995837946716,-0.0838521492858,1.0,0.0,0.0,0.0,1.0,0.0,0.0,0.0,1.0,0.0576342903078,0.00218063127249,-0.0737301781774,1.21846967915e-07,0.0,0.0,0.0,1.21846967915e-07,0.0,0.0,0.0,1.21846967915e-07,-0.06864655,0.9414384,8.97308475,9e-08,0.0,0.0,0.0,9e-08,0.0,0.0,0.0,9e-08
1536701719845694810,1592,1536701719845259285,base_link,0.020194820105,-0.0469968473097,-0.993202026323,-0.104561945711,1.0,0.0,0.0,0.0,1.0,0.0,0.0,0.0,1.0,0.11475507915,0.0313295200467,-0.0980853885412,1.21846967915e-07,0.0,0.0,0.0,1.21846967915e-07,0.0,0.0,0.0,1.21846967915e-07,-0.1372931,0.392266,8.32584585,9e-08,0.0,0.0,0.0,9e-08,0.0,0.0,0.0,9e-08
1536701720302559784,1593,1536701720302235662,base_link,0.0153771570881,-0.0618642627128,-0.99163753027,-0.112211249874,1.0,0.0,0.0,0.0,1.0,0.0,0.0,0.0,1.0,-0.068456619978,-0.0198356024921,0.0175629481673,1.21846967915e-07,0.0,0.0,0.0,1.21846967915e-07,0.0,0.0,0.0,1.21846967915e-07,-0.04903325,0.2157463,9.5320638,9e-08,0.0,0.0,0.0,9e-08,0.0,0.0,0.0,9e-08
1536701720832194825,1594,1536701720831899897,base_link,-0.00419128632282,-0.0499697965367,-0.994460486953,-0.0923785280323,1.0,0.0,0.0,0.0,1.0,0.0,0.0,0.0,1.0,-0.114426001906,-0.0173698812723,0.0384194254875,1.21846967915e-07,0.0,0.0,0.0,1.21846967915e-07,0.0,0.0,0.0,1.21846967915e-07,0.0,0.7453054,10.91480145,9e-08,0.0,0.0,0.0,9e-08,0.0,0.0,0.0,9e-08
1536701721237585815,1595,1536701721231566420,base_link,0.00305242979076,-0.0295029325724,-0.994156259402,-0.103795912892,1.0,0.0,0.0,0.0,1.0,0.0,0.0,0.0,1.0,0.0464278236032,-0.0440551564097,-0.0715401023626,1.21846967915e-07,0.0,0.0,0.0,1.21846967915e-07,0.0,0.0,0.0,1.21846967915e-07,-0.04903325,0.2549729,9.9047165,9e-08,0.0,0.0,0.0,9e-08,0.0,0.0,0.0,9e-08
1536701721548577508,1596,1536701721548101584,base_link,-0.00633737306485,-0.0412155019104,-0.993477970008,-0.106125601125,1.0,0.0,0.0,0.0,1.0,0.0,0.0,0.0,1.0,0.109534367919,-0.0607621967793,-0.0295265559107,1.21846967915e-07,0.0,0.0,0.0,1.21846967915e-07,0.0,0.0,0.0,1.21846967915e-07,0.0,0.6864655,10.07142955,9e-08,0.0,0.0,0.0,9e-08,0.0,0.0,0.0,9e-08
1536701721844656268,1597,1536701721844330065,base_link,-0.01264824311,-0.043551002656,-0.993702078547,-0.102467122555,1.0,0.0,0.0,0.0,1.0,0.0,0.0,0.0,1.0,0.107709512115,-0.0475529916584,0.105818390846,1.21846967915e-07,0.0,0.0,0.0,1.21846967915e-07,0.0,0.0,0.0,1.21846967915e-07,0.18632635,0.12748645,10.7088618,9e-08,0.0,0.0,0.0,9e-08,0.0,0.0,0.0,9e-08
1536701722185764561,1598,1536701722184894440,base_link,-0.0102038160676,-0.0568363557683,-0.994949792481,-0.0821000684653,1.0,0.0,0.0,0.0,1.0,0.0,0.0,0.0,1.0,-0.0885680690408,0.0409766435623,0.0772012919188,1.21846967915e-07,0.0,0.0,0.0,1.21846967915e-07,0.0,0.0,0.0,1.21846967915e-07,0.1765197,0.6080123,9.34573745,9e-08,0.0,0.0,0.0,9e-08,0.0,0.0,0.0,9e-08
1536701722629538347,1599,1536701722623831966,base_link,0.00611703047999,-0.0444933648118,-0.995129450805,-0.0877513451006,1.0,0.0,0.0,0.0,1.0,0.0,0.0,0.0,1.0,-0.0442654974759,0.0628835707903,-0.0972861424088,1.21846967915e-07,0.0,0.0,0.0,1.21846967915e-07,0.0,0.0,0.0,1.21846967915e-07,0.02941995,0.5687857,7.60015375,9e-08,0.0,0.0,0.0,9e-08,0.0,0.0,0.0,9e-08
1536701723050408884,1600,1536701723050102112,base_link,-0.00413041277858,-0.0463633570596,-0.993224371864,-0.106483453866,1.0,0.0,0.0,0.0,1.0,0.0,0.0,0.0,1.0,0.135121539235,-0.146132290363,0.00986666977406,1.21846967915e-07,0.0,0.0,0.0,1.21846967915e-07,0.0,0.0,0.0,1.21846967915e-07,0.3530394,1.41594157062e-15,11.56204035,9e-08,0.0,0.0,0.0,9e-08,0.0,0.0,0.0,9e-08
1536701723417117477,1601,1536701723416695782,base_link,-0.0178369218261,-0.0374618989736,-0.996008770924,-0.0790251769254,1.0,0.0,0.0,0.0,1.0,0.0,0.0,0.0,1.0,-0.166946902871,-0.0840968936682,0.183773964643,1.21846967915e-07,0.0,0.0,0.0,1.21846967915e-07,0.0,0.0,0.0,1.21846967915e-07,0.4314926,0.18632635,11.15016105,9e-08,0.0,0.0,0.0,9e-08,0.0,0.0,0.0,9e-08
1536701723866118680,1602,1536701723865692663,base_link,-0.00100223413685,-0.0137702824394,-0.997677381946,-0.0667024467434,1.0,0.0,0.0,0.0,1.0,0.0,0.0,0.0,1.0,-0.0503271818161,0.156944513321,-0.155272141099,1.21846967915e-07,0.0,0.0,0.0,1.21846967915e-07,0.0,0.0,0.0,1.21846967915e-07,0.1765197,1.10815145,8.01203305,9e-08,0.0,0.0,0.0,9e-08,0.0,0.0,0.0,9e-08
1536701724243658663,1603,1536701724243387360,base_link,0.00328690935249,-0.0465652203676,-0.994767668876,-0.0908744267575,1.0,0.0,0.0,0.0,1.0,0.0,0.0,0.0,1.0,0.18631388247,-0.0216529238969,-0.0569678097963,1.21846967915e-07,0.0,0.0,0.0,1.21846967915e-07,0.0,0.0,0.0,1.21846967915e-07,0.32361945,0.2745862,9.6497436,9e-08,0.0,0.0,0.0,9e-08,0.0,0.0,0.0,9e-08
1536701724558214679,1604,1536701724557915942,base_link,0.00204436333799,-0.0547430151142,-0.994532858856,-0.0889011559561,1.0,0.0,0.0,0.0,1.0,0.0,0.0,0.0,1.0,0.111024670303,0.0273115560412,0.00894084013999,1.21846967915e-07,0.0,0.0,0.0,1.21846967915e-07,0.0,0.0,0.0,1.21846967915e-07,0.38245935,0.63743225,9.67916355,9e-08,0.0,0.0,0.0,9e-08,0.0,0.0,0.0,9e-08
1536701724943351006,1605,1536701724943072660,base_link,0.0114863640446,-0.0685816158191,-0.99333251473,-0.0919518384443,1.0,0.0,0.0,0.0,1.0,0.0,0.0,0.0,1.0,-0.00622200965881,0.0504155643284,-0.0373505204916,1.21846967915e-07,0.0,0.0,0.0,1.21846967915e-07,0.0,0.0,0.0,1.21846967915e-07,0.32361945,0.61781895,8.6690786,9e-08,0.0,0.0,0.0,9e-08,0.0,0.0,0.0,9e-08
1536701725250293200,1606,1536701725248964730,base_link,0.0133121877693,-0.0726443511324,-0.992137814818,-0.101035341906,1.0,0.0,0.0,0.0,1.0,0.0,0.0,0.0,1.0,0.102995917201,-0.00819549430162,-0.0785228163004,1.21846967915e-07,0.0,0.0,0.0,1.21846967915e-07,0.0,0.0,0.0,1.21846967915e-07,0.20593965,0.5491724,8.9044382,9e-08,0.0,0.0,0.0,9e-08,0.0,0.0,0.0,9e-08
1536701725568620690,1607,1536701725568213144,base_link,0.010391379036,-0.099163194982,-0.988906853781,-0.110099566517,1.0,0.0,0.0,0.0,1.0,0.0,0.0,0.0,1.0,0.191905200481,0.0374490059912,-0.0484669394791,1.21846967915e-07,0.0,0.0,0.0,1.21846967915e-07,0.0,0.0,0.0,1.21846967915e-07,0.3138128,0.59820565,9.7085835,9e-08,0.0,0.0,0.0,9e-08,0.0,0.0,0.0,9e-08
1536701725999418499,1608,1536701725999073377,base_link,-0.00975589104237,-0.148519936302,-0.982175758243,-0.11479299208,1.0,0.0,0.0,0.0,1.0,0.0,0.0,0.0,1.0,0.159078970551,-0.079098880291,-0.0253175608814,1.21846967915e-07,0.0,0.0,0.0,1.21846967915e-07,0.0,0.0,0.0,1.21846967915e-07,0.4511059,0.7453054,10.983448,9e-08,0.0,0.0,0.0,9e-08,0.0,0.0,0.0,9e-08
1536701726423056611,1609,1536701726422819145,base_link,-0.0242664163455,-0.17972748575,-0.973106280853,-0.142032876717,1.0,0.0,0.0,0.0,1.0,0.0,0.0,0.0,1.0,0.184244990349,-0.0987291112542,-0.17202937603,1.21846967915e-07,0.0,0.0,0.0,1.21846967915e-07,0.0,0.0,0.0,1.21846967915e-07,0.4314926,0.87279185,10.3362091,9e-08,0.0,0.0,0.0,9e-08,0.0,0.0,0.0,9e-08
1536701726911623392,1610,1536701726910086331,base_link,-0.0628378137982,-0.219748204793,-0.954321191063,-0.192440120387,1.0,0.0,0.0,0.0,1.0,0.0,0.0,0.0,1.0,0.184112355113,-0.249690100551,-0.184624627233,1.21846967915e-07,0.0,0.0,0.0,1.21846967915e-07,0.0,0.0,0.0,1.21846967915e-07,0.6864655,0.980665,12.0229529,9e-08,0.0,0.0,0.0,9e-08,0.0,0.0,0.0,9e-08
1536701727346002459,1611,1536701727345721873,base_link,-0.0884589651869,-0.226104030245,-0.940234312778,-0.238770634837,1.0,0.0,0.0,0.0,1.0,0.0,0.0,0.0,1.0,0.0417928025126,-0.0920666456223,-0.207685977221,1.21846967915e-07,0.0,0.0,0.0,1.21846967915e-07,0.0,0.0,0.0,1.21846967915e-07,0.75511205,0.8825985,11.30706745,9e-08,0.0,0.0,0.0,9e-08,0.0,0.0,0.0,9e-08
1536701727730392680,1612,1536701727727411553,base_link,-0.0997055925983,-0.232470718116,-0.924968207703,-0.283637047582,1.0,0.0,0.0,0.0,1.0,0.0,0.0,0.0,1.0,0.0434022396803,-0.110356085002,-0.204357683659,1.21846967915e-07,0.0,0.0,0.0,1.21846967915e-07,0.0,0.0,0.0,1.21846967915e-07,0.71588545,0.91201845,11.40513395,9e-08,0.0,0.0,0.0,9e-08,0.0,0.0,0.0,9e-08
1536701728129513908,1613,1536701728129238828,base_link,-0.099778291598,-0.225075227698,-0.908604560763,-0.337376920615,1.0,0.0,0.0,0.0,1.0,0.0,0.0,0.0,1.0,-0.103469215333,-0.069663234055,-0.267077893019,1.21846967915e-07,0.0,0.0,0.0,1.21846967915e-07,0.0,0.0,0.0,1.21846967915e-07,0.59820565,0.6864655,9.3359308,9e-08,0.0,0.0,0.0,9e-08,0.0,0.0,0.0,9e-08
1536701728540471899,1614,1536701728540105936,base_link,-0.111838946702,-0.211349228884,-0.890494430268,-0.387095883617,1.0,0.0,0.0,0.0,1.0,0.0,0.0,0.0,1.0,0.0462120994925,-0.184575140476,-0.182550862432,1.21846967915e-07,0.0,0.0,0.0,1.21846967915e-07,0.0,0.0,0.0,1.21846967915e-07,0.83356525,0.8825985,10.9246081,9e-08,0.0,0.0,0.0,9e-08,0.0,0.0,0.0,9e-08
1536701728851990959,1615,1536701728851634056,base_link,-0.132274605281,-0.201703754528,-0.876065983976,-0.417525347646,1.0,0.0,0.0,0.0,1.0,0.0,0.0,0.0,1.0,-0.0499892495573,-0.113238602877,-0.127460300922,1.21846967915e-07,0.0,0.0,0.0,1.21846967915e-07,0.0,0.0,0.0,1.21846967915e-07,0.93163175,0.8629852,12.0033396,9e-08,0.0,0.0,0.0,9e-08,0.0,0.0,0.0,9e-08
1536701729246827240,1616,1536701729246494186,base_link,-0.13935252575,-0.19729303936,-0.859797851957,-0.449893302859,1.0,0.0,0.0,0.0,1.0,0.0,0.0,0.0,1.0,-0.0876606926322,-0.138044014573,-0.232033580542,1.21846967915e-07,0.0,0.0,0.0,1.21846967915e-07,0.0,0.0,0.0,1.21846967915e-07,0.67665885,0.95124505,9.44380395,9e-08,0.0,0.0,0.0,9e-08,0.0,0.0,0.0,9e-08
1536701729696241910,1617,1536701729695838302,base_link,-0.16475551816,-0.194922623179,-0.82551622826,-0.50337237418,1.0,0.0,0.0,0.0,1.0,0.0,0.0,0.0,1.0,0.100767381489,-0.155323117971,-0.195808291435,1.21846967915e-07,0.0,0.0,0.0,1.21846967915e-07,0.0,0.0,0.0,1.21846967915e-07,0.99047165,0.6668522,11.3364874,9e-08,0.0,0.0,0.0,9e-08,0.0,0.0,0.0,9e-08
1536701730043047428,1618,1536701730042661298,base_link,-0.177638441774,-0.190055894516,-0.805601164993,-0.532287613913,1.0,0.0,0.0,0.0,1.0,0.0,0.0,0.0,1.0,-0.130013614893,-0.126916334033,-0.165127500892,1.21846967915e-07,0.0,0.0,0.0,1.21846967915e-07,0.0,0.0,0.0,1.21846967915e-07,1.06892485,1.04931155,11.05209455,9e-08,0.0,0.0,0.0,9e-08,0.0,0.0,0.0,9e-08
1536701730498570360,1619,1536701730498082751,base_link,-0.15259240645,-0.154723786288,-0.784000046036,-0.581480898453,1.0,0.0,0.0,0.0,1.0,0.0,0.0,0.0,1.0,-0.0646284520626,0.018943913281,-0.220464617014,1.21846967915e-07,0.0,0.0,0.0,1.21846967915e-07,0.0,0.0,0.0,1.21846967915e-07,0.91201845,0.9610517,10.1008495,9e-08,0.0,0.0,0.0,9e-08,0.0,0.0,0.0,9e-08
1536701731004151732,1620,1536701731003755262,base_link,-0.12231422458,-0.121536313153,-0.758948457663,-0.627905561101,1.0,0.0,0.0,0.0,1.0,0.0,0.0,0.0,1.0,-0.227222800255,-0.0467884242535,-0.179666340351,1.21846967915e-07,0.0,0.0,0.0,1.21846967915e-07,0.0,0.0,0.0,1.21846967915e-07,0.8041453,0.7256921,9.44380395,9e-08,0.0,0.0,0.0,9e-08,0.0,0.0,0.0,9e-08
1536701731261287164,1621,1536701731259811663,base_link,-0.107135136642,-0.104246554142,-0.747765199764,-0.646917247002,1.0,0.0,0.0,0.0,1.0,0.0,0.0,0.0,1.0,-0.212199151516,-0.0573717653751,-0.139683917165,1.21846967915e-07,0.0,0.0,0.0,1.21846967915e-07,0.0,0.0,0.0,1.21846967915e-07,0.8629852,0.7060788,9.46341725,9e-08,0.0,0.0,0.0,9e-08,0.0,0.0,0.0,9e-08
1536701731617472868,1622,1536701731617047363,base_link,-0.0915494337181,-0.0695567350245,-0.735168540096,-0.668062706227,1.0,0.0,0.0,0.0,1.0,0.0,0.0,0.0,1.0,-0.156863436103,-0.0717468336225,-0.121984481812,1.21846967915e-07,0.0,0.0,0.0,1.21846967915e-07,0.0,0.0,0.0,1.21846967915e-07,1.10815145,0.99047165,10.85596155,9e-08,0.0,0.0,0.0,9e-08,0.0,0.0,0.0,9e-08
1536701731901356203,1623,1536701731899731941,base_link,-0.0851182191487,-0.0517657223281,-0.72315075205,-0.683467767031,1.0,0.0,0.0,0.0,1.0,0.0,0.0,0.0,1.0,-0.111667595804,-0.0112626645714,-0.102873295546,1.21846967915e-07,0.0,0.0,0.0,1.21846967915e-07,0.0,0.0,0.0,1.21846967915e-07,1.0983448,0.79433865,10.46369555,9e-08,0.0,0.0,0.0,9e-08,0.0,0.0,0.0,9e-08
1536701732291248887,1624,1536701732290984307,base_link,-0.0609777948153,-0.0376333026618,-0.714285941452,-0.696176010011,1.0,0.0,0.0,0.0,1.0,0.0,0.0,0.0,1.0,-0.217028722167,0.0218934752047,-0.0498118810356,1.21846967915e-07,0.0,0.0,0.0,1.21846967915e-07,0.0,0.0,0.0,1.21846967915e-07,1.02969825,0.784532,9.8851032,9e-08,0.0,0.0,0.0,9e-08,0.0,0.0,0.0,9e-08
1536701732706546918,1625,1536701732706043175,base_link,-0.0457102977919,-0.0257067257285,-0.709223210475,-0.703030703918,1.0,0.0,0.0,0.0,1.0,0.0,0.0,0.0,1.0,-0.0027730204165,-0.030934067443,-0.0242871008813,1.21846967915e-07,0.0,0.0,0.0,1.21846967915e-07,0.0,0.0,0.0,1.21846967915e-07,1.08853815,0.6080123,10.46369555,9e-08,0.0,0.0,0.0,9e-08,0.0,0.0,0.0,9e-08
1536701733066245853,1626,1536701733064174478,base_link,-0.0429282542648,-0.0111890673465,-0.709957252115,-0.702846121087,1.0,0.0,0.0,0.0,1.0,0.0,0.0,0.0,1.0,-0.121047995985,-0.0513712987304,0.00741973565891,1.21846967915e-07,0.0,0.0,0.0,1.21846967915e-07,0.0,0.0,0.0,1.21846967915e-07,1.1179581,0.6864655,10.5519554,9e-08,0.0,0.0,0.0,9e-08,0.0,0.0,0.0,9e-08
1536701733420854225,1627,1536701733420383935,base_link,-0.0376435340395,0.00339681924954,-0.710050860145,-0.703135265771,1.0,0.0,0.0,0.0,1.0,0.0,0.0,0.0,1.0,0.0118683492765,-0.0541336275637,-0.00715003907681,1.21846967915e-07,0.0,0.0,0.0,1.21846967915e-07,0.0,0.0,0.0,1.21846967915e-07,1.0002783,0.69627215,10.1008495,9e-08,0.0,0.0,0.0,9e-08,0.0,0.0,0.0,9e-08
1536701733755175408,1628,1536701733754516151,base_link,-0.0436182741672,0.0105628446058,-0.711776625273,-0.700970689963,1.0,0.0,0.0,0.0,1.0,0.0,0.0,0.0,1.0,0.0290130600333,-0.0216786190867,0.00870162341744,1.21846967915e-07,0.0,0.0,0.0,1.21846967915e-07,0.0,0.0,0.0,1.21846967915e-07,1.04931155,0.8237586,10.8265416,9e-08,0.0,0.0,0.0,9e-08,0.0,0.0,0.0,9e-08
1536701734211121827,1629,1536701734210771231,base_link,-0.0660037131558,-0.00535895974797,-0.716284611724,-0.694659014486,1.0,0.0,0.0,0.0,1.0,0.0,0.0,0.0,1.0,0.0101433731616,-0.00303420983255,0.0291912816465,1.21846967915e-07,0.0,0.0,0.0,1.21846967915e-07,0.0,0.0,0.0,1.21846967915e-07,0.9414384,0.67665885,10.2185293,9e-08,0.0,0.0,0.0,9e-08,0.0,0.0,0.0,9e-08
1536701734639544627,1630,1536701734639163907,base_link,-0.0556468672898,-0.0104569725509,-0.721970719308,-0.689603044039,1.0,0.0,0.0,0.0,1.0,0.0,0.0,0.0,1.0,-0.0286786463112,0.040591403842,0.00489947712049,1.21846967915e-07,0.0,0.0,0.0,1.21846967915e-07,0.0,0.0,0.0,1.21846967915e-07,0.81395195,0.50013915,8.52197885,9e-08,0.0,0.0,0.0,9e-08,0.0,0.0,0.0,9e-08
1536701734963559899,1631,1536701734963286868,base_link,-0.0716236110569,-0.0305996433338,-0.723796366289,-0.685603777931,1.0,0.0,0.0,0.0,1.0,0.0,0.0,0.0,1.0,0.249741077423,0.00511579029262,0.00583859439939,1.21846967915e-07,0.0,0.0,0.0,1.21846967915e-07,0.0,0.0,0.0,1.21846967915e-07,0.89240515,0.61781895,9.5909037,9e-08,0.0,0.0,0.0,9e-08,0.0,0.0,0.0,9e-08
1536701735325008776,1632,1536701735324767853,base_link,-0.0717575595983,-0.0470407200471,-0.719293869766,-0.6893869394,1.0,0.0,0.0,0.0,1.0,0.0,0.0,0.0,1.0,-0.106604158878,0.113179653883,-0.110958635807,1.21846967915e-07,0.0,0.0,0.0,1.21846967915e-07,0.0,0.0,0.0,1.21846967915e-07,0.9610517,0.83356525,10.1204628,9e-08,0.0,0.0,0.0,9e-08,0.0,0.0,0.0,9e-08
1536701735628591429,1633,1536701735628281872,base_link,-0.0521514424758,-0.051986031295,-0.712055103827,-0.698251536849,1.0,0.0,0.0,0.0,1.0,0.0,0.0,0.0,1.0,-0.229169711471,0.0742108672857,-0.0361743979156,1.21846967915e-07,0.0,0.0,0.0,1.21846967915e-07,0.0,0.0,0.0,1.21846967915e-07,0.8629852,0.7649187,9.1594111,9e-08,0.0,0.0,0.0,9e-08,0.0,0.0,0.0,9e-08
1536701736126950391,1634,1536701736126724866,base_link,-0.0350292506077,-0.0534646689654,-0.71566418457,-0.6955136632,1.0,0.0,0.0,0.0,1.0,0.0,0.0,0.0,1.0,-0.028396949172,-0.00854998081923,0.0524105466902,1.21846967915e-07,0.0,0.0,0.0,1.21846967915e-07,0.0,0.0,0.0,1.21846967915e-07,0.67665885,0.7060788,8.95347145,9e-08,0.0,0.0,0.0,9e-08,0.0,0.0,0.0,9e-08
1536701736536539960,1635,1536701736536216222,base_link,-0.0273137613077,-0.0436334977343,-0.719999769426,-0.692062430959,1.0,0.0,0.0,0.0,1.0,0.0,0.0,0.0,1.0,-0.104640513659,0.00220643170178,-0.0230866428465,1.21846967915e-07,0.0,0.0,0.0,1.21846967915e-07,0.0,0.0,0.0,1.21846967915e-07,0.75511205,1.10815145,10.1400761,9e-08,0.0,0.0,0.0,9e-08,0.0,0.0,0.0,9e-08
1536701736887946386,1636,1536701736887614804,base_link,-0.0302498833851,-0.0284912659509,-0.710111938311,-0.702861456752,1.0,0.0,0.0,0.0,1.0,0.0,0.0,0.0,1.0,-0.00404410809278,-0.0665201917291,-0.081866197288,1.21846967915e-07,0.0,0.0,0.0,1.21846967915e-07,0.0,0.0,0.0,1.21846967915e-07,1.06892485,0.8237586,12.09159945,9e-08,0.0,0.0,0.0,9e-08,0.0,0.0,0.0,9e-08
1536701737250464339,1637,1536701737249842888,base_link,-0.0412333777187,-0.0255418155225,-0.71049035162,-0.702033392707,1.0,0.0,0.0,0.0,1.0,0.0,0.0,0.0,1.0,0.112683951855,-0.0699244514108,0.0683638453484,1.21846967915e-07,0.0,0.0,0.0,1.21846967915e-07,0.0,0.0,0.0,1.21846967915e-07,0.79433865,0.42168595,10.3558224,9e-08,0.0,0.0,0.0,9e-08,0.0,0.0,0.0,9e-08
1536701737635207332,1638,1536701737634411992,base_link,-0.0514234534404,-0.0306850488332,-0.720100089063,-0.691281359466,1.0,0.0,0.0,0.0,1.0,0.0,0.0,0.0,1.0,0.030107581988,-0.015657465905,0.0581274144351,1.21846967915e-07,0.0,0.0,0.0,1.21846967915e-07,0.0,0.0,0.0,1.21846967915e-07,0.69627215,0.588399,10.395049,9e-08,0.0,0.0,0.0,9e-08,0.0,0.0,0.0,9e-08
1536701738084387834,1639,1536701738076652751,base_link,-0.0533738990574,-0.0343806622325,-0.725695049843,-0.68508093799,1.0,0.0,0.0,0.0,1.0,0.0,0.0,0.0,1.0,0.123140439391,0.0999098718166,0.0246309991926,1.21846967915e-07,0.0,0.0,0.0,1.21846967915e-07,0.0,0.0,0.0,1.21846967915e-07,0.48052585,0.5295591,9.36535075,9e-08,0.0,0.0,0.0,9e-08,0.0,0.0,0.0,9e-08
1536701738530134942,1640,1536701738529666669,base_link,-0.0358085097597,-0.0382461333866,-0.723826604322,-0.687989847879,1.0,0.0,0.0,0.0,1.0,0.0,0.0,0.0,1.0,-0.100436739624,0.00169116351753,-0.0699236094952,1.21846967915e-07,0.0,0.0,0.0,1.21846967915e-07,0.0,0.0,0.0,1.21846967915e-07,0.588399,0.4314926,8.69849855,9e-08,0.0,0.0,0.0,9e-08,0.0,0.0,0.0,9e-08
1536701738803693799,1641,1536701738803231384,base_link,-0.0306204459726,-0.024868053859,-0.724768624558,-0.687862202074,1.0,0.0,0.0,0.0,1.0,0.0,0.0,0.0,1.0,-0.109962299466,0.0088401120156,0.086853325367,1.21846967915e-07,0.0,0.0,0.0,1.21846967915e-07,0.0,0.0,0.0,1.21846967915e-07,0.7256921,0.3334261,10.81673495,9e-08,0.0,0.0,0.0,9e-08,0.0,0.0,0.0,9e-08
1536701739202506975,1642,1536701739202222227,base_link,0.0138881411525,0.0155852312913,-0.737008504874,-0.675561014154,1.0,0.0,0.0,0.0,1.0,0.0,0.0,0.0,1.0,-0.397360563278,0.0781559124589,-0.00764536717907,1.21846967915e-07,0.0,0.0,0.0,1.21846967915e-07,0.0,0.0,0.0,1.21846967915e-07,0.81395195,0.3334261,10.2969825,9e-08,0.0,0.0,0.0,9e-08,0.0,0.0,0.0,9e-08
1536701739519710904,1643,1536701739514169673,base_link,-0.00123498122738,-0.00214868335329,-0.741529673913,-0.670915494446,1.0,0.0,0.0,0.0,1.0,0.0,0.0,0.0,1.0,0.406120538712,0.0596455335617,0.0626783147454,1.21846967915e-07,0.0,0.0,0.0,1.21846967915e-07,0.0,0.0,0.0,1.21846967915e-07,0.75511205,0.69627215,10.85596155,9e-08,0.0,0.0,0.0,9e-08,0.0,0.0,0.0,9e-08
1536701739970624637,1644,1536701739970183478,base_link,-0.0484844771061,-0.0541784197202,-0.743145494992,-0.665168194963,1.0,0.0,0.0,0.0,1.0,0.0,0.0,0.0,1.0,0.154270082712,0.0347993895411,-0.00322744715959,1.21846967915e-07,0.0,0.0,0.0,1.21846967915e-07,0.0,0.0,0.0,1.21846967915e-07,0.51975245,0.784532,9.8262633,9e-08,0.0,0.0,0.0,9e-08,0.0,0.0,0.0,9e-08
1536701740282501464,1645,1536701740282329592,base_link,-0.0572140578258,-0.0796400410467,-0.734925806851,-0.671020173969,1.0,0.0,0.0,0.0,1.0,0.0,0.0,0.0,1.0,0.21769079566,0.0212211851031,-0.133766144514,1.21846967915e-07,0.0,0.0,0.0,1.21846967915e-07,0.0,0.0,0.0,1.21846967915e-07,0.26477955,0.9218251,7.4922806,9e-08,0.0,0.0,0.0,9e-08,0.0,0.0,0.0,9e-08
1536701740640403465,1646,1536701740638961064,base_link,-0.0914542890519,-0.0975091935726,-0.714787487152,-0.686445131379,1.0,0.0,0.0,0.0,1.0,0.0,0.0,0.0,1.0,0.131473451853,-0.130013853312,-0.101180627942,1.21846967915e-07,0.0,0.0,0.0,1.21846967915e-07,0.0,0.0,0.0,1.21846967915e-07,0.46091255,0.7256921,10.38524235,9e-08,0.0,0.0,0.0,9e-08,0.0,0.0,0.0,9e-08
1536701740940685062,1647,1536701740940460177,base_link,-0.0989813051183,-0.0824294026026,-0.705419970811,-0.696986914945,1.0,0.0,0.0,0.0,1.0,0.0,0.0,0.0,1.0,-0.179151698947,-0.0950932428241,-0.0700966343284,1.21846967915e-07,0.0,0.0,0.0,1.21846967915e-07,0.0,0.0,0.0,1.21846967915e-07,0.71588545,0.65704555,10.5323421,9e-08,0.0,0.0,0.0,9e-08,0.0,0.0,0.0,9e-08
1536701741326938610,1648,1536701741322262859,base_link,-0.0570779803399,-0.0472546791399,-0.703141230379,-0.70717855567,1.0,0.0,0.0,0.0,1.0,0.0,0.0,0.0,1.0,-0.327580153942,0.0905503928661,-0.0463652461767,1.21846967915e-07,0.0,0.0,0.0,1.21846967915e-07,0.0,0.0,0.0,1.21846967915e-07,0.9218251,0.8433719,10.8461549,9e-08,0.0,0.0,0.0,9e-08,0.0,0.0,0.0,9e-08
1536701741677261618,1649,1536701741676594710,base_link,-0.0334042012589,-0.045677416966,-0.693258160237,-0.718464234449,1.0,0.0,0.0,0.0,1.0,0.0,0.0,0.0,1.0,-0.0626933798194,-0.0202165469527,-0.0778451561928,1.21846967915e-07,0.0,0.0,0.0,1.21846967915e-07,0.0,0.0,0.0,1.21846967915e-07,0.6276256,0.59820565,9.73800345,9e-08,0.0,0.0,0.0,9e-08,0.0,0.0,0.0,9e-08
1536701741996652902,1650,1536701741996344850,base_link,-0.0392129439585,-0.0384583741705,-0.690393621636,-0.721345926506,1.0,0.0,0.0,0.0,1.0,0.0,0.0,0.0,1.0,-0.0391948968172,-0.0868017971516,-0.00123539101332,1.21846967915e-07,0.0,0.0,0.0,1.21846967915e-07,0.0,0.0,0.0,1.21846967915e-07,0.59820565,0.6668522,10.42446895,9e-08,0.0,0.0,0.0,9e-08,0.0,0.0,0.0,9e-08
1536701742460526990,1651,1536701742460222619,base_link,-0.0178791077728,-0.0169659599198,-0.696550828963,-0.717083981399,1.0,0.0,0.0,0.0,1.0,0.0,0.0,0.0,1.0,-0.0443159639835,0.0986305326223,0.0616997815669,1.21846967915e-07,0.0,0.0,0.0,1.21846967915e-07,0.0,0.0,0.0,1.21846967915e-07,0.5687857,0.5491724,10.44408225,9e-08,0.0,0.0,0.0,9e-08,0.0,0.0,0.0,9e-08
1536701742885723834,1652,1536701742885485856,base_link,-0.0186969665089,-0.0148578935302,-0.699455678701,-0.714276851071,1.0,0.0,0.0,0.0,1.0,0.0,0.0,0.0,1.0,0.201383903623,-0.0755168423057,0.00120338983834,1.21846967915e-07,0.0,0.0,0.0,1.21846967915e-07,0.0,0.0,0.0,1.21846967915e-07,0.6080123,0.53936575,10.20872265,9e-08,0.0,0.0,0.0,9e-08,0.0,0.0,0.0,9e-08
1536701743347492390,1653,1536701743346200318,base_link,-0.0632071940971,-0.0581376071973,-0.706198282849,-0.702786492859,1.0,0.0,0.0,0.0,1.0,0.0,0.0,0.0,1.0,0.267534375191,0.0648947507143,0.0244838669896,1.21846967915e-07,0.0,0.0,0.0,1.21846967915e-07,0.0,0.0,0.0,1.21846967915e-07,0.3726527,0.7060788,9.4536106,9e-08,0.0,0.0,0.0,9e-08,0.0,0.0,0.0,9e-08
1536701743764687618,1654,1536701743764468784,base_link,-0.100978839535,-0.118330608356,-0.692205261357,-0.704736133061,1.0,0.0,0.0,0.0,1.0,0.0,0.0,0.0,1.0,0.331436932087,-0.0293569751084,-0.145046919584,1.21846967915e-07,0.0,0.0,0.0,1.21846967915e-07,0.0,0.0,0.0,1.21846967915e-07,0.14709975,0.784532,8.30623255,9e-08,0.0,0.0,0.0,9e-08,0.0,0.0,0.0,9e-08
1536701744266999851,1655,1536701744265687835,base_link,-0.146017258438,-0.161910857815,-0.65222115043,-0.725996835594,1.0,0.0,0.0,0.0,1.0,0.0,0.0,0.0,1.0,0.170372068882,-0.0151302786544,-0.147862717509,1.21846967915e-07,0.0,0.0,0.0,1.21846967915e-07,0.0,0.0,0.0,1.21846967915e-07,0.16671305,0.59820565,9.89490985,9e-08,0.0,0.0,0.0,9e-08,0.0,0.0,0.0,9e-08
1536701744562791079,1656,1536701744561652568,base_link,-0.151187898606,-0.158462930608,-0.633070179194,-0.742464724517,1.0,0.0,0.0,0.0,1.0,0.0,0.0,0.0,1.0,-0.0103487893939,-0.112648338079,-0.188065782189,1.21846967915e-07,0.0,0.0,0.0,1.21846967915e-07,0.0,0.0,0.0,1.21846967915e-07,0.196133,0.91201845,10.002783,9e-08,0.0,0.0,0.0,9e-08,0.0,0.0,0.0,9e-08
1536701744934520546,1657,1536701744933728758,base_link,-0.180244182205,-0.16614804109,-0.594054354119,-0.766163355673,1.0,0.0,0.0,0.0,1.0,0.0,0.0,0.0,1.0,0.238849520683,-0.115352466702,-0.202666431665,1.21846967915e-07,0.0,0.0,0.0,1.21846967915e-07,0.0,0.0,0.0,1.21846967915e-07,0.24516625,0.6864655,10.3362091,9e-08,0.0,0.0,0.0,9e-08,0.0,0.0,0.0,9e-08
1536701745327677344,1658,1536701745325230467,base_link,-0.226226300737,-0.158064194031,-0.55285844805,-0.786247357923,1.0,0.0,0.0,0.0,1.0,0.0,0.0,0.0,1.0,0.0419129356742,-0.225764498115,-0.174704387784,1.21846967915e-07,0.0,0.0,0.0,1.21846967915e-07,0.0,0.0,0.0,1.21846967915e-07,0.6668522,0.89240515,13.18994425,9e-08,0.0,0.0,0.0,9e-08,0.0,0.0,0.0,9e-08
1536701745888817508,1659,1536701745888327371,base_link,-0.256449596974,-0.119912923887,-0.495054310792,-0.821447335051,1.0,0.0,0.0,0.0,1.0,0.0,0.0,0.0,1.0,-0.030119176954,-0.127401530743,-0.242149785161,1.21846967915e-07,0.0,0.0,0.0,1.21846967915e-07,0.0,0.0,0.0,1.21846967915e-07,0.85317855,1.4121576,12.69961175,9e-08,0.0,0.0,0.0,9e-08,0.0,0.0,0.0,9e-08
1536701746186850575,1660,1536701746186450456,base_link,-0.252628207911,-0.120335064323,-0.444612704042,-0.85089247515,1.0,0.0,0.0,0.0,1.0,0.0,0.0,0.0,1.0,0.0545365475118,-0.0683229640126,-0.453266233206,1.21846967915e-07,0.0,0.0,0.0,1.21846967915e-07,0.0,0.0,0.0,1.21846967915e-07,0.1569064,1.2944778,8.93385815,9e-08,0.0,0.0,0.0,9e-08,0.0,0.0,0.0,9e-08
1536701746477850616,1661,1536701746477622818,base_link,-0.261694658145,-0.129305262951,-0.388482228981,-0.874000922561,1.0,0.0,0.0,0.0,1.0,0.0,0.0,0.0,1.0,0.048635981977,-0.098459020257,-0.322436451912,1.21846967915e-07,0.0,0.0,0.0,1.21846967915e-07,0.0,0.0,0.0,1.21846967915e-07,0.14709975,0.6080123,9.30651085,9e-08,0.0,0.0,0.0,9e-08,0.0,0.0,0.0,9e-08
1536701746950864734,1662,1536701746950394125,base_link,-0.276135416507,-0.115716195327,-0.311898394554,-0.901708592265,1.0,0.0,0.0,0.0,1.0,0.0,0.0,0.0,1.0,-0.0121981166303,-0.289377689362,-0.302834779024,1.21846967915e-07,0.0,0.0,0.0,1.21846967915e-07,0.0,0.0,0.0,1.21846967915e-07,0.7256921,1.1179581,13.3174307,9e-08,0.0,0.0,0.0,9e-08,0.0,0.0,0.0,9e-08
1536701747254739722,1663,1536701747253047370,base_link,-0.294919317721,-0.0909041819601,-0.262178201576,-0.914342176844,1.0,0.0,0.0,0.0,1.0,0.0,0.0,0.0,1.0,0.0662962794304,-0.317448824644,-0.218637302518,1.21846967915e-07,0.0,0.0,0.0,1.21846967915e-07,0.0,0.0,0.0,1.21846967915e-07,1.02969825,1.0198916,13.72931,9e-08,0.0,0.0,0.0,9e-08,0.0,0.0,0.0,9e-08
1536701747705629702,1664,1536701747705335542,base_link,-0.283633271173,-0.051653610547,-0.197768422981,-0.936894723474,1.0,0.0,0.0,0.0,1.0,0.0,0.0,0.0,1.0,-0.258991241455,-0.244965314865,-0.243924245238,1.21846967915e-07,0.0,0.0,0.0,1.21846967915e-07,0.0,0.0,0.0,1.21846967915e-07,0.7453054,1.26505785,11.91507975,9e-08,0.0,0.0,0.0,9e-08,0.0,0.0,0.0,9e-08
1536701748193229365,1665,1536701748192321086,base_link,-0.256903828265,-0.0169002987812,-0.114609705782,-0.95946829977,1.0,0.0,0.0,0.0,1.0,0.0,0.0,0.0,1.0,-0.174133688211,-0.151469022036,-0.259175926447,1.21846967915e-07,0.0,0.0,0.0,1.21846967915e-07,0.0,0.0,0.0,1.21846967915e-07,0.8629852,1.0198916,11.30706745,9e-08,0.0,0.0,0.0,9e-08,0.0,0.0,0.0,9e-08
1536701748593614239,1666,1536701748593366818,base_link,-0.156502277571,0.00565396281886,-0.0603267478268,-0.9858173022,1.0,0.0,0.0,0.0,1.0,0.0,0.0,0.0,1.0,-0.62544041872,-0.0913407281041,-0.253594338894,1.21846967915e-07,0.0,0.0,0.0,1.21846967915e-07,0.0,0.0,0.0,1.21846967915e-07,0.95124505,1.3337044,13.42530385,9e-08,0.0,0.0,0.0,9e-08,0.0,0.0,0.0,9e-08
1536701748945206207,1667,1536701748944672757,base_link,-0.0989627290959,0.00883109540014,-0.0110825031031,-0.994990235193,1.0,0.0,0.0,0.0,1.0,0.0,0.0,0.0,1.0,-0.0785990655422,-0.00911979191005,-0.219857290387,1.21846967915e-07,0.0,0.0,0.0,1.21846967915e-07,0.0,0.0,0.0,1.21846967915e-07,0.5099458,0.32361945,10.26756255,9e-08,0.0,0.0,0.0,9e-08,0.0,0.0,0.0,9e-08
1536701749410313849,1668,1536701749409239395,base_link,-0.0873356248259,0.0293101703578,-0.00238728883953,-0.99574479833,1.0,0.0,0.0,0.0,1.0,0.0,0.0,0.0,1.0,-0.174139976501,-0.0812700688839,0.0532366447151,1.21846967915e-07,0.0,0.0,0.0,1.21846967915e-07,0.0,0.0,0.0,1.21846967915e-07,0.24516625,0.67665885,11.1403544,9e-08,0.0,0.0,0.0,9e-08,0.0,0.0,0.0,9e-08
1536701749858685757,1669,1536701749858396272,base_link,-0.0291873446885,0.0299474654502,0.000106254137476,-0.99912523586,1.0,0.0,0.0,0.0,1.0,0.0,0.0,0.0,1.0,-0.242576420307,0.0387104041874,-0.084135055542,1.21846967915e-07,0.0,0.0,0.0,1.21846967915e-07,0.0,0.0,0.0,1.21846967915e-07,0.1372931,0.83356525,11.1207411,9e-08,0.0,0.0,0.0,9e-08,0.0,0.0,0.0,9e-08
1536701750171674333,1670,1536701750171416924,base_link,-0.0188369390222,0.0117474952529,0.015568812174,-0.999632321492,1.0,0.0,0.0,0.0,1.0,0.0,0.0,0.0,1.0,-0.0760781913996,0.140069261193,-0.0828784257174,1.21846967915e-07,0.0,0.0,0.0,1.21846967915e-07,0.0,0.0,0.0,1.21846967915e-07,-0.14709975,0.3530394,7.58054045,9e-08,0.0,0.0,0.0,9e-08,0.0,0.0,0.0,9e-08
1536701750511854531,1671,1536701750509480929,base_link,0.00749145985104,-0.00967629719939,0.0207301978574,-0.999710211111,1.0,0.0,0.0,0.0,1.0,0.0,0.0,0.0,1.0,-0.355241984129,0.156259864569,0.0500047616661,1.21846967915e-07,0.0,0.0,0.0,1.21846967915e-07,0.0,0.0,0.0,1.21846967915e-07,-0.2549729,-0.0588399,6.48219565,9e-08,0.0,0.0,0.0,9e-08,0.0,0.0,0.0,9e-08
1536701750890062414,1672,1536701750889637774,base_link,0.0711106873,-0.0276951463731,-0.0028366833047,-0.997079837449,1.0,0.0,0.0,0.0,1.0,0.0,0.0,0.0,1.0,-0.482026010752,0.0912942588329,0.132856279612,1.21846967915e-07,0.0,0.0,0.0,1.21846967915e-07,0.0,0.0,0.0,1.21846967915e-07,-0.36284605,0.2549729,6.87446165,9e-08,0.0,0.0,0.0,9e-08,0.0,0.0,0.0,9e-08
1536701751208651667,1673,1536701751208348480,base_link,0.127399038244,-0.0377769512222,-0.0230741302176,-0.990863245623,1.0,0.0,0.0,0.0,1.0,0.0,0.0,0.0,1.0,-0.0977991223335,0.0521815307438,0.092971868813,1.21846967915e-07,0.0,0.0,0.0,1.21846967915e-07,0.0,0.0,0.0,1.21846967915e-07,-0.26477955,0.0980665,6.56064885,9e-08,0.0,0.0,0.0,9e-08,0.0,0.0,0.0,9e-08
1536701751619347350,1674,1536701751618425882,base_link,0.0837976518433,-0.0421086060199,-0.0479946235892,-0.994435183886,1.0,0.0,0.0,0.0,1.0,0.0,0.0,0.0,1.0,0.483948230743,0.0758461952209,0.148081883788,1.21846967915e-07,0.0,0.0,0.0,1.21846967915e-07,0.0,0.0,0.0,1.21846967915e-07,-0.14709975,0.4314926,8.2964259,9e-08,0.0,0.0,0.0,9e-08,0.0,0.0,0.0,9e-08
1536701751984152440,1675,1536701751983667553,base_link,-0.0117435222321,-0.0528394248932,-0.0668905524874,-0.996290991052,1.0,0.0,0.0,0.0,1.0,0.0,0.0,0.0,1.0,0.345721006393,0.00757278734818,0.119115039706,1.21846967915e-07,0.0,0.0,0.0,1.21846967915e-07,0.0,0.0,0.0,1.21846967915e-07,-0.00980665,0.4314926,9.1201845,9e-08,0.0,0.0,0.0,9e-08,0.0,0.0,0.0,9e-08
1536701752322185746,1676,1536701752320303211,base_link,-0.0545132723066,-0.0586555666997,-0.0794664756386,-0.993616076202,1.0,0.0,0.0,0.0,1.0,0.0,0.0,0.0,1.0,0.145618528128,-0.0377940796316,0.049673628062,1.21846967915e-07,0.0,0.0,0.0,1.21846967915e-07,0.0,0.0,0.0,1.21846967915e-07,0.0196133,0.51975245,9.93413645,9e-08,0.0,0.0,0.0,9e-08,0.0,0.0,0.0,9e-08
1536701752738407775,1677,1536701752729382603,base_link,-0.0755654875874,-0.0506147336665,-0.0787511554124,-0.992736753295,1.0,0.0,0.0,0.0,1.0,0.0,0.0,0.0,1.0,0.0414126142859,-0.0286969337612,-0.0650747194886,1.21846967915e-07,0.0,0.0,0.0,1.21846967915e-07,0.0,0.0,0.0,1.21846967915e-07,0.3334261,0.69627215,11.4737805,9e-08,0.0,0.0,0.0,9e-08,0.0,0.0,0.0,9e-08
1536701753048130668,1678,1536701753047698313,base_link,-0.0733602663285,-0.0467489906755,-0.0688536204605,-0.993826937723,1.0,0.0,0.0,0.0,1.0,0.0,0.0,0.0,1.0,-0.113611996174,-0.0849585086107,-0.0529573000968,1.21846967915e-07,0.0,0.0,0.0,1.21846967915e-07,0.0,0.0,0.0,1.21846967915e-07,0.22555295,0.3334261,11.76798,9e-08,0.0,0.0,0.0,9e-08,0.0,0.0,0.0,9e-08
1536701753375935756,1679,1536701753375655106,base_link,-0.0882229620952,-0.0324468556271,-0.0581219998053,-0.993874108556,1.0,0.0,0.0,0.0,1.0,0.0,0.0,0.0,1.0,0.126499861479,-0.045086402446,-0.0824451744556,1.21846967915e-07,0.0,0.0,0.0,1.21846967915e-07,0.0,0.0,0.0,1.21846967915e-07,0.20593965,0.50013915,11.0815145,9e-08,0.0,0.0,0.0,9e-08,0.0,0.0,0.0,9e-08
1536701753777943836,1680,1536701753773857651,base_link,-0.106322400131,-0.0113187534585,-0.0598170911911,-0.992466295978,1.0,0.0,0.0,0.0,1.0,0.0,0.0,0.0,1.0,-0.0754569098353,-0.0572706982493,0.0655139386654,1.21846967915e-07,0.0,0.0,0.0,1.21846967915e-07,0.0,0.0,0.0,1.21846967915e-07,0.2353596,0.51975245,10.4538889,9e-08,0.0,0.0,0.0,9e-08,0.0,0.0,0.0,9e-08
1536701754104043127,1681,1536701754103796634,base_link,-0.078926550878,0.00182447557923,-0.0586780816145,-0.995150317085,1.0,0.0,0.0,0.0,1.0,0.0,0.0,0.0,1.0,-0.202962785959,-0.0649954751134,-0.055752672255,1.21846967915e-07,0.0,0.0,0.0,1.21846967915e-07,0.0,0.0,0.0,1.21846967915e-07,0.3138128,0.980665,11.8072066,9e-08,0.0,0.0,0.0,9e-08,0.0,0.0,0.0,9e-08
1536701754568699687,1682,1536701754568413211,base_link,-0.0478318713879,0.00860789602776,-0.0395815009919,-0.998033727378,1.0,0.0,0.0,0.0,1.0,0.0,0.0,0.0,1.0,-0.0454767048359,-0.10008379817,-0.0380533747375,1.21846967915e-07,0.0,0.0,0.0,1.21846967915e-07,0.0,0.0,0.0,1.21846967915e-07,0.3138128,0.40207265,11.46397385,9e-08,0.0,0.0,0.0,9e-08,0.0,0.0,0.0,9e-08
1536701754908525895,1683,1536701754908281227,base_link,-0.0405975146827,0.0172134506623,-0.0377372594856,-0.998314298287,1.0,0.0,0.0,0.0,1.0,0.0,0.0,0.0,1.0,-0.0796394944191,0.0491163991392,0.0120103135705,1.21846967915e-07,0.0,0.0,0.0,1.21846967915e-07,0.0,0.0,0.0,1.21846967915e-07,0.1372931,0.28439285,10.3165958,9e-08,0.0,0.0,0.0,9e-08,0.0,0.0,0.0,9e-08
1536701755374710296,1684,1536701755373953114,base_link,-0.0306405193876,0.0154686166176,-0.0441033206869,-0.998437167565,1.0,0.0,0.0,0.0,1.0,0.0,0.0,0.0,1.0,0.0439491309226,-0.0387556441128,0.0148363262415,1.21846967915e-07,0.0,0.0,0.0,1.21846967915e-07,0.0,0.0,0.0,1.21846967915e-07,0.1569064,0.55897905,9.9047165,9e-08,0.0,0.0,0.0,9e-08,0.0,0.0,0.0,9e-08
1536701755761588273,1685,1536701755759889039,base_link,-0.0169504791945,0.0155921611116,-0.0447981534055,-0.998730539845,1.0,0.0,0.0,0.0,1.0,0.0,0.0,0.0,1.0,-0.0732781216502,0.0412929169834,-0.00567511888221,1.21846967915e-07,0.0,0.0,0.0,1.21846967915e-07,0.0,0.0,0.0,1.21846967915e-07,0.14709975,0.4903325,9.6693569,9e-08,0.0,0.0,0.0,9e-08,0.0,0.0,0.0,9e-08
1536701756076010895,1686,1536701756075489770,base_link,0.00193193380274,0.00747197844469,-0.0469948913245,-0.998865314925,1.0,0.0,0.0,0.0,1.0,0.0,0.0,0.0,1.0,-0.119672983885,0.0307766329497,0.0306738484651,1.21846967915e-07,0.0,0.0,0.0,1.21846967915e-07,0.0,0.0,0.0,1.21846967915e-07,0.16671305,0.4903325,8.9632781,9e-08,0.0,0.0,0.0,9e-08,0.0,0.0,0.0,9e-08
1536701756480181968,1687,1536701756479875068,base_link,0.00125774053047,-0.00511788928853,-0.052356030992,-0.998614575958,1.0,0.0,0.0,0.0,1.0,0.0,0.0,0.0,1.0,0.016254812479,0.0477825216949,0.0277236420661,1.21846967915e-07,0.0,0.0,0.0,1.21846967915e-07,0.0,0.0,0.0,1.21846967915e-07,0.12748645,0.4118793,8.97308475,9e-08,0.0,0.0,0.0,9e-08,0.0,0.0,0.0,9e-08
1536701756868250347,1688,1536701756867869435,base_link,-0.0355639693278,-0.00709210173432,-0.0597973985676,-0.997551591299,1.0,0.0,0.0,0.0,1.0,0.0,0.0,0.0,1.0,0.132408097386,0.0423794090748,0.0515369921923,1.21846967915e-07,0.0,0.0,0.0,1.21846967915e-07,0.0,0.0,0.0,1.21846967915e-07,0.2353596,0.59820565,9.99297635,9e-08,0.0,0.0,0.0,9e-08,0.0,0.0,0.0,9e-08
1536701757301775235,1689,1536701757301351619,base_link,-0.0521630140235,-0.00733544356901,-0.0699118150209,-0.996161407281,1.0,0.0,0.0,0.0,1.0,0.0,0.0,0.0,1.0,-0.0708354562521,-0.0702107325196,0.0367230065167,1.21846967915e-07,0.0,0.0,0.0,1.21846967915e-07,0.0,0.0,0.0,1.21846967915e-07,0.2353596,0.6472389,10.0223963,9e-08,0.0,0.0,0.0,9e-08,0.0,0.0,0.0,9e-08
1536701757778150432,1690,1536701757777510382,base_link,-0.0158899252961,-0.0137692115677,-0.0569982720065,-0.99815285206,1.0,0.0,0.0,0.0,1.0,0.0,0.0,0.0,1.0,-0.115294091403,0.0986650437117,-0.127533808351,1.21846967915e-07,0.0,0.0,0.0,1.21846967915e-07,0.0,0.0,0.0,1.21846967915e-07,0.38245935,1.0002783,9.85568325,9e-08,0.0,0.0,0.0,9e-08,0.0,0.0,0.0,9e-08
1536701758170712029,1691,1536701758170215617,base_link,-0.0185188315865,-0.0201826633505,-0.0321188781022,-0.999108648069,1.0,0.0,0.0,0.0,1.0,0.0,0.0,0.0,1.0,0.167644038796,-0.0807759389281,-0.0855080336332,1.21846967915e-07,0.0,0.0,0.0,1.21846967915e-07,0.0,0.0,0.0,1.21846967915e-07,0.36284605,0.59820565,10.50292215,9e-08,0.0,0.0,0.0,9e-08,0.0,0.0,0.0,9e-08
1536701758535892941,1692,1536701758534573658,base_link,-0.0594028646906,-0.00737563262463,-0.0311667063369,-0.997720169249,1.0,0.0,0.0,0.0,1.0,0.0,0.0,0.0,1.0,0.198256924748,-0.0236635617912,0.0561331734061,1.21846967915e-07,0.0,0.0,0.0,1.21846967915e-07,0.0,0.0,0.0,1.21846967915e-07,0.44129925,0.34323275,10.26756255,9e-08,0.0,0.0,0.0,9e-08,0.0,0.0,0.0,9e-08
1536701758920531991,1693,1536701758920316678,base_link,-0.0932160927857,0.00187677972697,-0.0408448143537,-0.994805980523,1.0,0.0,0.0,0.0,1.0,0.0,0.0,0.0,1.0,0.0681145042181,-0.0871396288276,0.0398676283658,1.21846967915e-07,0.0,0.0,0.0,1.21846967915e-07,0.0,0.0,0.0,1.21846967915e-07,0.38245935,0.57859235,10.0223963,9e-08,0.0,0.0,0.0,9e-08,0.0,0.0,0.0,9e-08
1536701759339010776,1694,1536701759338412854,base_link,-0.0681450588175,0.0189753998628,-0.0494337154649,-0.996269287359,1.0,0.0,0.0,0.0,1.0,0.0,0.0,0.0,1.0,-0.212415829301,-0.0785631090403,0.0577780865133,1.21846967915e-07,0.0,0.0,0.0,1.21846967915e-07,0.0,0.0,0.0,1.21846967915e-07,0.3334261,0.32361945,10.46369555,9e-08,0.0,0.0,0.0,9e-08,0.0,0.0,0.0,9e-08
1536701759630645585,1695,1536701759630325464,base_link,-0.0396018011801,0.029119936837,-0.0554338260345,-0.997251632013,1.0,0.0,0.0,0.0,1.0,0.0,0.0,0.0,1.0,-0.178930565715,0.00147671112791,0.0105574103072,1.21846967915e-07,0.0,0.0,0.0,1.21846967915e-07,0.0,0.0,0.0,1.21846967915e-07,0.36284605,0.57859235,10.46369555,9e-08,0.0,0.0,0.0,9e-08,0.0,0.0,0.0,9e-08
1536701760125163063,1696,1536701760124821782,base_link,-0.0258154711978,0.0176070209219,-0.0649402121404,-0.997399780985,1.0,0.0,0.0,0.0,1.0,0.0,0.0,0.0,1.0,-0.0721729546785,0.0765550583601,0.061542224139,1.21846967915e-07,0.0,0.0,0.0,1.21846967915e-07,0.0,0.0,0.0,1.21846967915e-07,0.32361945,0.57859235,9.12999115,9e-08,0.0,0.0,0.0,9e-08,0.0,0.0,0.0,9e-08
1536701760422732851,1697,1536701760422348642,base_link,-0.00939727171757,0.00545591521214,-0.0667344131681,-0.997711602805,1.0,0.0,0.0,0.0,1.0,0.0,0.0,0.0,1.0,-0.0644619017839,0.0638253837824,-0.0215325690806,1.21846967915e-07,0.0,0.0,0.0,1.21846967915e-07,0.0,0.0,0.0,1.21846967915e-07,0.26477955,0.4903325,8.8652116,9e-08,0.0,0.0,0.0,9e-08,0.0,0.0,0.0,9e-08
1536701760873599558,1698,1536701760870720742,base_link,-0.00507908382073,-0.00333606411443,-0.0682208473617,-0.997651737616,1.0,0.0,0.0,0.0,1.0,0.0,0.0,0.0,1.0,-0.00750767439604,0.0860311761498,0.0248267278075,1.21846967915e-07,0.0,0.0,0.0,1.21846967915e-07,0.0,0.0,0.0,1.21846967915e-07,0.30400615,0.6864655,9.7478101,9e-08,0.0,0.0,0.0,9e-08,0.0,0.0,0.0,9e-08
1536701761194864863,1699,1536701761194435485,base_link,-0.0108645125899,-0.0103432955357,-0.0668029470076,-0.997653419217,1.0,0.0,0.0,0.0,1.0,0.0,0.0,0.0,1.0,0.0478570349514,0.0346393287182,-0.00451495777816,1.21846967915e-07,0.0,0.0,0.0,1.21846967915e-07,0.0,0.0,0.0,1.21846967915e-07,0.3138128,0.36284605,9.4339973,9e-08,0.0,0.0,0.0,9e-08,0.0,0.0,0.0,9e-08
1536701761657413041,1700,1536701761656299052,base_link,-0.0299949769293,-0.015600643573,-0.0752615266126,-0.996590499599,1.0,0.0,0.0,0.0,1.0,0.0,0.0,0.0,1.0,0.0811574161053,-0.00892614759505,0.0359771288931,1.21846967915e-07,0.0,0.0,0.0,1.21846967915e-07,0.0,0.0,0.0,1.21846967915e-07,0.2353596,0.6276256,8.91424485,9e-08,0.0,0.0,0.0,9e-08,0.0,0.0,0.0,9e-08
1536701762057412874,1701,1536701762057161259,base_link,-0.0368062241457,-0.012428685622,-0.0758498771218,-0.996362196081,1.0,0.0,0.0,0.0,1.0,0.0,0.0,0.0,1.0,0.0619877949357,-0.0690193399787,0.00657165190205,1.21846967915e-07,0.0,0.0,0.0,1.21846967915e-07,0.0,0.0,0.0,1.21846967915e-07,0.3726527,0.4118793,9.8262633,9e-08,0.0,0.0,0.0,9e-08,0.0,0.0,0.0,9e-08
1536701762523153843,1702,1536701762522624459,base_link,-0.025910018623,0.00145780491804,-0.0859613493676,-0.995960437043,1.0,0.0,0.0,0.0,1.0,0.0,0.0,0.0,1.0,0.0380835607648,0.050184968859,0.0579267852008,1.21846967915e-07,0.0,0.0,0.0,1.21846967915e-07,0.0,0.0,0.0,1.21846967915e-07,0.6080123,0.7649187,11.97391965,9e-08,0.0,0.0,0.0,9e-08,0.0,0.0,0.0,9e-08
1536701762924034777,1703,1536701762921910870,base_link,-0.0338080487517,0.00928456681365,-0.0868143779493,-0.995607390712,1.0,0.0,0.0,0.0,1.0,0.0,0.0,0.0,1.0,0.084578871727,-0.0125429071486,-0.0660763010383,1.21846967915e-07,0.0,0.0,0.0,1.21846967915e-07,0.0,0.0,0.0,1.21846967915e-07,0.44129925,0.85317855,10.52253545,9e-08,0.0,0.0,0.0,9e-08,0.0,0.0,0.0,9e-08
1536701763318020752,1704,1536701763317719038,base_link,-0.0630245551217,0.0103630228441,-0.0737436031243,-0.995229819794,1.0,0.0,0.0,0.0,1.0,0.0,0.0,0.0,1.0,0.108963280916,0.00495827710256,-0.00280925771222,1.21846967915e-07,0.0,0.0,0.0,1.21846967915e-07,0.0,0.0,0.0,1.21846967915e-07,0.392266,0.36284605,10.18910935,9e-08,0.0,0.0,0.0,9e-08,0.0,0.0,0.0,9e-08
1536701763731505298,1705,1536701763730885320,base_link,-0.0743476700571,0.0128900168856,-0.0793340013086,-0.993988122493,1.0,0.0,0.0,0.0,1.0,0.0,0.0,0.0,1.0,0.0608427040279,-0.0285558942705,0.0323815494776,1.21846967915e-07,0.0,0.0,0.0,1.21846967915e-07,0.0,0.0,0.0,1.21846967915e-07,0.32361945,0.7453054,9.85568325,9e-08,0.0,0.0,0.0,9e-08,0.0,0.0,0.0,9e-08
1536701764072326730,1706,1536701764071976678,base_link,-0.0756913660929,0.0201018599091,-0.075355142925,-0.99407662419,1.0,0.0,0.0,0.0,1.0,0.0,0.0,0.0,1.0,-0.0247023850679,-0.035141825676,-0.0567307285964,1.21846967915e-07,0.0,0.0,0.0,1.21846967915e-07,0.0,0.0,0.0,1.21846967915e-07,0.3726527,0.7256921,10.3362091,9e-08,0.0,0.0,0.0,9e-08,0.0,0.0,0.0,9e-08
1536701764420714062,1707,1536701764420288813,base_link,-0.0720719333663,0.0225365057155,-0.0604666585421,-0.995309763609,1.0,0.0,0.0,0.0,1.0,0.0,0.0,0.0,1.0,-0.034440908581,0.0657361671329,-0.0523793585598,1.21846967915e-07,0.0,0.0,0.0,1.21846967915e-07,0.0,0.0,0.0,1.21846967915e-07,0.36284605,0.6080123,10.20872265,9e-08,0.0,0.0,0.0,9e-08,0.0,0.0,0.0,9e-08
1536701764874180792,1708,1536701764873793126,base_link,-0.0548857800524,0.0207009266521,-0.0472703124407,-0.997158232351,1.0,0.0,0.0,0.0,1.0,0.0,0.0,0.0,1.0,-0.0543104559183,-0.0315862037241,-0.0340734235942,1.21846967915e-07,0.0,0.0,0.0,1.21846967915e-07,0.0,0.0,0.0,1.21846967915e-07,0.392266,0.48052585,10.3165958,9e-08,0.0,0.0,0.0,9e-08,0.0,0.0,0.0,9e-08
1536701765305617307,1709,1536701765305183223,base_link,-0.0472668022812,0.0134569507646,-0.0459755944432,-0.997732932499,1.0,0.0,0.0,0.0,1.0,0.0,0.0,0.0,1.0,-0.0593808628619,0.0956561714411,0.0302469786257,1.21846967915e-07,0.0,0.0,0.0,1.21846967915e-07,0.0,0.0,0.0,1.21846967915e-07,0.32361945,0.53936575,8.8652116,9e-08,0.0,0.0,0.0,9e-08,0.0,0.0,0.0,9e-08
1536701765622971085,1710,1536701765622615847,base_link,-0.0345513460825,-0.00431179649091,-0.0499745386024,-0.998143355629,1.0,0.0,0.0,0.0,1.0,0.0,0.0,0.0,1.0,-0.0553011260927,0.112938195467,-0.00851911492646,1.21846967915e-07,0.0,0.0,0.0,1.21846967915e-07,0.0,0.0,0.0,1.21846967915e-07,0.26477955,0.48052585,8.14932615,9e-08,0.0,0.0,0.0,9e-08,0.0,0.0,0.0,9e-08
1536701765969506261,1711,1536701765969216615,base_link,-0.0311255124085,-0.0147482844946,-0.0446508854731,-0.998408728432,1.0,0.0,0.0,0.0,1.0,0.0,0.0,0.0,1.0,0.044684689492,0.0426268950105,-0.0246667042375,1.21846967915e-07,0.0,0.0,0.0,1.21846967915e-07,0.0,0.0,0.0,1.21846967915e-07,0.30400615,0.4314926,8.87501825,9e-08,0.0,0.0,0.0,9e-08,0.0,0.0,0.0,9e-08
1536701766335231666,1712,1536701766334552338,base_link,-0.0526441389071,-0.0178959330876,-0.0455945748576,-0.997411382009,1.0,0.0,0.0,0.0,1.0,0.0,0.0,0.0,1.0,0.106871530414,-0.0394397750497,0.0187641121447,1.21846967915e-07,0.0,0.0,0.0,1.21846967915e-07,0.0,0.0,0.0,1.21846967915e-07,0.34323275,0.6472389,9.4339973,9e-08,0.0,0.0,0.0,9e-08,0.0,0.0,0.0,9e-08
1536701766789639776,1713,1536701766785622162,base_link,-0.0856596291329,-0.0118719541749,-0.0484780620346,-0.995073546097,1.0,0.0,0.0,0.0,1.0,0.0,0.0,0.0,1.0,0.26242262125,0.00644152611494,0.0130211757496,1.21846967915e-07,0.0,0.0,0.0,1.21846967915e-07,0.0,0.0,0.0,1.21846967915e-07,0.38245935,0.59820565,10.07142955,9e-08,0.0,0.0,0.0,9e-08,0.0,0.0,0.0,9e-08
1536701767064134474,1714,1536701767063827094,base_link,-0.121155152955,-0.00932740770609,-0.0466230651395,-0.99149418464,1.0,0.0,0.0,0.0,1.0,0.0,0.0,0.0,1.0,0.248228788376,-0.103973060846,-0.0338201485574,1.21846967915e-07,0.0,0.0,0.0,1.21846967915e-07,0.0,0.0,0.0,1.21846967915e-07,0.3726527,0.7649187,10.11065615,9e-08,0.0,0.0,0.0,9e-08,0.0,0.0,0.0,9e-08
1536701767524781006,1715,1536701767524164133,base_link,-0.18349886079,-0.000248085966889,-0.0257062029457,-0.982683722096,1.0,0.0,0.0,0.0,1.0,0.0,0.0,0.0,1.0,0.301567852497,-0.0285446625203,-0.0798842161894,1.21846967915e-07,0.0,0.0,0.0,1.21846967915e-07,0.0,0.0,0.0,1.21846967915e-07,0.5099458,0.8237586,11.1991943,9e-08,0.0,0.0,0.0,9e-08,0.0,0.0,0.0,9e-08
1536701767962349311,1716,1536701767961925278,base_link,-0.230778295,-0.000316752636376,0.0112985616449,-0.972940707715,1.0,0.0,0.0,0.0,1.0,0.0,0.0,0.0,1.0,0.282591551542,-0.0658482685685,-0.26331153512,1.21846967915e-07,0.0,0.0,0.0,1.21846967915e-07,0.0,0.0,0.0,1.21846967915e-07,0.34323275,1.04931155,9.24767095,9e-08,0.0,0.0,0.0,9e-08,0.0,0.0,0.0,9e-08
1536701768410918381,1717,1536701768410385508,base_link,-0.281245437119,0.0242874191651,0.0750918953216,-0.956385033669,1.0,0.0,0.0,0.0,1.0,0.0,0.0,0.0,1.0,0.133999243379,-0.248260006309,-0.237031802535,1.21846967915e-07,0.0,0.0,0.0,1.21846967915e-07,0.0,0.0,0.0,1.21846967915e-07,0.85317855,0.81395195,12.0229529,9e-08,0.0,0.0,0.0,9e-08,0.0,0.0,0.0,9e-08
1536701768758396666,1718,1536701768756264788,base_link,-0.305151338714,0.0482454213823,0.122342964357,-0.943179324874,1.0,0.0,0.0,0.0,1.0,0.0,0.0,0.0,1.0,0.160876810551,-0.237725242972,-0.245508223772,1.21846967915e-07,0.0,0.0,0.0,1.21846967915e-07,0.0,0.0,0.0,1.21846967915e-07,0.85317855,1.1179581,11.2776475,9e-08,0.0,0.0,0.0,9e-08,0.0,0.0,0.0,9e-08
1536701769081341453,1719,1536701769080504817,base_link,-0.327861927153,0.0754860911561,0.174713248006,-0.925355978927,1.0,0.0,0.0,0.0,1.0,0.0,0.0,0.0,1.0,0.138346493244,-0.187388673425,-0.272890269756,1.21846967915e-07,0.0,0.0,0.0,1.21846967915e-07,0.0,0.0,0.0,1.21846967915e-07,0.93163175,1.18660465,11.73856005,9e-08,0.0,0.0,0.0,9e-08,0.0,0.0,0.0,9e-08
1536701769487233913,1720,1536701769486896665,base_link,-0.341503068826,0.100652144166,0.243586571669,-0.902169818803,1.0,0.0,0.0,0.0,1.0,0.0,0.0,0.0,1.0,0.103463441133,-0.228498518467,-0.328151226044,1.21846967915e-07,0.0,0.0,0.0,1.21846967915e-07,0.0,0.0,0.0,1.21846967915e-07,1.1179581,1.26505785,11.4149406,9e-08,0.0,0.0,0.0,9e-08,0.0,0.0,0.0,9e-08
1536701769756468158,1721,1536701769755898951,base_link,-0.349851085212,0.133279698992,0.294616048532,-0.879228141019,1.0,0.0,0.0,0.0,1.0,0.0,0.0,0.0,1.0,0.120636560023,-0.432191848755,-0.311283528805,1.21846967915e-07,0.0,0.0,0.0,1.21846967915e-07,0.0,0.0,0.0,1.21846967915e-07,1.3533177,1.18660465,13.0624578,9e-08,0.0,0.0,0.0,9e-08,0.0,0.0,0.0,9e-08
1536701770118992354,1722,1536701770118681965,base_link,-0.339671186939,0.181574133823,0.366633130827,-0.846896963077,1.0,0.0,0.0,0.0,1.0,0.0,0.0,0.0,1.0,-0.00161518529058,-0.374369084835,-0.317762762308,1.21846967915e-07,0.0,0.0,0.0,1.21846967915e-07,0.0,0.0,0.0,1.21846967915e-07,1.7259704,1.372931,14.2392558,9e-08,0.0,0.0,0.0,9e-08,0.0,0.0,0.0,9e-08
1536701770595574765,1723,1536701770593892241,base_link,-0.308660618211,0.232758561528,0.467075458819,-0.795231155432,1.0,0.0,0.0,0.0,1.0,0.0,0.0,0.0,1.0,-0.092472910881,-0.358055651188,-0.367979586124,1.21846967915e-07,0.0,0.0,0.0,1.21846967915e-07,0.0,0.0,0.0,1.21846967915e-07,1.5494507,1.2552512,14.7688149,9e-08,0.0,0.0,0.0,9e-08,0.0,0.0,0.0,9e-08
1536701770984710203,1724,1536701770983010873,base_link,-0.275496220403,0.253474686858,0.536884853553,-0.756047002303,1.0,0.0,0.0,0.0,1.0,0.0,0.0,0.0,1.0,-0.136952757835,-0.307615309954,-0.276798576117,1.21846967915e-07,0.0,0.0,0.0,1.21846967915e-07,0.0,0.0,0.0,1.21846967915e-07,1.53964405,0.980665,13.89602305,9e-08,0.0,0.0,0.0,9e-08,0.0,0.0,0.0,9e-08
1536701771282353235,1725,1536701771278918881,base_link,-0.241287680913,0.256449608953,0.586750596342,-0.729203394671,1.0,0.0,0.0,0.0,1.0,0.0,0.0,0.0,1.0,-0.240498647094,-0.244421795011,-0.246954113245,1.21846967915e-07,0.0,0.0,0.0,1.21846967915e-07,0.0,0.0,0.0,1.21846967915e-07,1.1964113,1.0787315,12.2583125,9e-08,0.0,0.0,0.0,9e-08,0.0,0.0,0.0,9e-08
1536701771655020240,1726,1536701771654645506,base_link,-0.184375172427,0.241024386241,0.646463087685,-0.699998940921,1.0,0.0,0.0,0.0,1.0,0.0,0.0,0.0,1.0,-0.368374019861,-0.117012307048,-0.328093856573,1.21846967915e-07,0.0,0.0,0.0,1.21846967915e-07,0.0,0.0,0.0,1.21846967915e-07,0.9022118,1.1375714,11.9444997,9e-08,0.0,0.0,0.0,9e-08,0.0,0.0,0.0,9e-08
1536701772034179491,1727,1536701772032178223,base_link,0.135955777632,-0.213062801607,-0.703179174788,0.664574538516,1.0,0.0,0.0,0.0,1.0,0.0,0.0,0.0,1.0,-0.355738610029,-0.240404292941,-0.258944392204,1.21846967915e-07,0.0,0.0,0.0,1.21846967915e-07,0.0,0.0,0.0,1.21846967915e-07,0.5491724,0.63743225,11.4541672,9e-08,0.0,0.0,0.0,9e-08,0.0,0.0,0.0,9e-08
1536701772455193923,1728,1536701772454764544,base_link,0.0581236400061,-0.161881294015,-0.752045675464,0.636273047626,1.0,0.0,0.0,0.0,1.0,0.0,0.0,0.0,1.0,-0.413602828979,-0.129787102342,-0.128130406141,1.21846967915e-07,0.0,0.0,0.0,1.21846967915e-07,0.0,0.0,0.0,1.21846967915e-07,0.392266,0.63743225,11.48358715,9e-08,0.0,0.0,0.0,9e-08,0.0,0.0,0.0,9e-08
1536701772794690662,1729,1536701772788258471,base_link,0.00298029087405,-0.116035123555,-0.773210121048,0.62343650573,1.0,0.0,0.0,0.0,1.0,0.0,0.0,0.0,1.0,-0.464081794024,-0.0218758657575,-0.104585148394,1.21846967915e-07,0.0,0.0,0.0,1.21846967915e-07,0.0,0.0,0.0,1.21846967915e-07,0.3334261,0.6472389,11.11093445,9e-08,0.0,0.0,0.0,9e-08,0.0,0.0,0.0,9e-08
1536701773244085357,1730,1536701773243810853,base_link,-0.0443398517363,-0.0550997961352,-0.788066152273,0.611514292274,1.0,0.0,0.0,0.0,1.0,0.0,0.0,0.0,1.0,-0.181879192591,0.037532042712,-0.0217905379832,1.21846967915e-07,0.0,0.0,0.0,1.21846967915e-07,0.0,0.0,0.0,1.21846967915e-07,0.20593965,0.3726527,9.9831697,9e-08,0.0,0.0,0.0,9e-08,0.0,0.0,0.0,9e-08
1536701773560654038,1731,1536701773560342464,base_link,-0.0646229506699,-0.0137458755825,-0.785202120106,0.615704925863,1.0,0.0,0.0,0.0,1.0,0.0,0.0,0.0,1.0,-0.204187899828,0.0922208055854,0.0817864090204,1.21846967915e-07,0.0,0.0,0.0,1.21846967915e-07,0.0,0.0,0.0,1.21846967915e-07,0.1372931,0.34323275,8.7083052,9e-08,0.0,0.0,0.0,9e-08,0.0,0.0,0.0,9e-08
1536701774036787448,1732,1536701774036398725,base_link,-0.0643289792829,0.0247159365716,-0.775719771899,0.627303547247,1.0,0.0,0.0,0.0,1.0,0.0,0.0,0.0,1.0,-0.0790349319577,0.123843990266,0.0677768141031,1.21846967915e-07,0.0,0.0,0.0,1.21846967915e-07,0.0,0.0,0.0,1.21846967915e-07,0.0392266,0.3530394,7.649187,9e-08,0.0,0.0,0.0,9e-08,0.0,0.0,0.0,9e-08
1536701774469736182,1733,1536701774469222580,base_link,-0.0460837146919,0.0434015190425,-0.764053435855,0.642039676767,1.0,0.0,0.0,0.0,1.0,0.0,0.0,0.0,1.0,0.107695922256,0.158936679363,0.116818070412,1.21846967915e-07,0.0,0.0,0.0,1.21846967915e-07,0.0,0.0,0.0,1.21846967915e-07,-0.02941995,0.2745862,8.433719,9e-08,0.0,0.0,0.0,9e-08,0.0,0.0,0.0,9e-08
1536701774770584490,1734,1536701774770293980,base_link,-0.025731552821,0.0496577352166,-0.752599792248,0.656098734361,1.0,0.0,0.0,0.0,1.0,0.0,0.0,0.0,1.0,-0.0065091997385,0.0951142013073,0.120413281024,1.21846967915e-07,0.0,0.0,0.0,1.21846967915e-07,0.0,0.0,0.0,1.21846967915e-07,-0.0196133,0.46091255,8.0806796,9e-08,0.0,0.0,0.0,9e-08,0.0,0.0,0.0,9e-08
1536701775117298293,1735,1536701775117057594,base_link,-0.00974381230969,0.0591022654231,-0.743429587492,0.666126436036,1.0,0.0,0.0,0.0,1.0,0.0,0.0,0.0,1.0,0.078864812851,0.126761749387,0.0474863313138,1.21846967915e-07,0.0,0.0,0.0,1.21846967915e-07,0.0,0.0,0.0,1.21846967915e-07,0.0196133,0.42168595,8.3944924,9e-08,0.0,0.0,0.0,9e-08,0.0,0.0,0.0,9e-08
1536701775614481099,1736,1536701775613789477,base_link,0.0220922355708,0.0522086719261,-0.731746136469,0.679215561855,1.0,0.0,0.0,0.0,1.0,0.0,0.0,0.0,1.0,0.0766773372889,-0.0104167545214,0.0986323803663,1.21846967915e-07,0.0,0.0,0.0,1.21846967915e-07,0.0,0.0,0.0,1.21846967915e-07,0.0,0.4118793,9.22805765,9e-08,0.0,0.0,0.0,9e-08,0.0,0.0,0.0,9e-08
1536701776034302696,1737,1536701776033927066,base_link,0.0317859874453,0.0484960588055,-0.721754405575,0.689716145465,1.0,0.0,0.0,0.0,1.0,0.0,0.0,0.0,1.0,0.0965503826737,0.0547371059656,0.0479542277753,1.21846967915e-07,0.0,0.0,0.0,1.21846967915e-07,0.0,0.0,0.0,1.21846967915e-07,0.0,0.3334261,9.3751574,9e-08,0.0,0.0,0.0,9e-08,0.0,0.0,0.0,9e-08
1536701776345858794,1738,1536701776345583426,base_link,0.0397307607268,0.0260317216521,-0.714361418236,0.698163004073,1.0,0.0,0.0,0.0,1.0,0.0,0.0,0.0,1.0,0.124079979956,-0.116952434182,0.0912759751081,1.21846967915e-07,0.0,0.0,0.0,1.21846967915e-07,0.0,0.0,0.0,1.21846967915e-07,0.16671305,0.4511059,11.07170785,9e-08,0.0,0.0,0.0,9e-08,0.0,0.0,0.0,9e-08
1536701776747846930,1739,1536701776747533436,base_link,-0.0423216044763,-0.00127454526693,0.703080116683,-0.709849002855,1.0,0.0,0.0,0.0,1.0,0.0,0.0,0.0,1.0,0.0181486736983,0.021215936169,0.0482950024307,1.21846967915e-07,0.0,0.0,0.0,1.21846967915e-07,0.0,0.0,0.0,1.21846967915e-07,0.20593965,0.63743225,11.15016105,9e-08,0.0,0.0,0.0,9e-08,0.0,0.0,0.0,9e-08
1536701777215066090,1740,1536701777214819597,base_link,-0.0394421207744,0.0165172468616,0.705003953905,-0.707913077039,1.0,0.0,0.0,0.0,1.0,0.0,0.0,0.0,1.0,0.0809694826603,-0.134648427367,-0.0397239848971,1.21846967915e-07,0.0,0.0,0.0,1.21846967915e-07,0.0,0.0,0.0,1.21846967915e-07,0.1569064,0.588399,10.8853815,9e-08,0.0,0.0,0.0,9e-08,0.0,0.0,0.0,9e-08
1536701777624530364,1741,1536701777624250034,base_link,-0.0365785653034,0.0380050458922,0.705429625363,-0.7068144514,1.0,0.0,0.0,0.0,1.0,0.0,0.0,0.0,1.0,0.0334330312908,0.0457152575254,0.00354925007559,1.21846967915e-07,0.0,0.0,0.0,1.21846967915e-07,0.0,0.0,0.0,1.21846967915e-07,0.2157463,0.5491724,11.0815145,9e-08,0.0,0.0,0.0,9e-08,0.0,0.0,0.0,9e-08
1536701777958391181,1742,1536701777958074678,base_link,-0.0341682445192,0.0347667193537,0.704278972433,-0.708247792287,1.0,0.0,0.0,0.0,1.0,0.0,0.0,0.0,1.0,-0.0298933330923,-0.00209017982706,0.00620086956769,1.21846967915e-07,0.0,0.0,0.0,1.21846967915e-07,0.0,0.0,0.0,1.21846967915e-07,0.14709975,0.588399,9.9439431,9e-08,0.0,0.0,0.0,9e-08,0.0,0.0,0.0,9e-08
1536701778429631414,1743,1536701778424551958,base_link,-0.0435925088508,0.0251619722608,0.704737280082,-0.707680672611,1.0,0.0,0.0,0.0,1.0,0.0,0.0,0.0,1.0,-0.0155064146966,0.0115591399372,-0.00491454591975,1.21846967915e-07,0.0,0.0,0.0,1.21846967915e-07,0.0,0.0,0.0,1.21846967915e-07,0.08825985,0.6864655,9.26728425,9e-08,0.0,0.0,0.0,9e-08,0.0,0.0,0.0,9e-08
1536701778798239477,1744,1536701778797987029,base_link,0.0432375587825,-0.021379769755,-0.70836518377,0.704196127068,1.0,0.0,0.0,0.0,1.0,0.0,0.0,0.0,1.0,0.0122642815113,0.0532170496881,-0.0705636516213,1.21846967915e-07,0.0,0.0,0.0,1.21846967915e-07,0.0,0.0,0.0,1.21846967915e-07,0.1176798,0.5491724,9.69877685,9e-08,0.0,0.0,0.0,9e-08,0.0,0.0,0.0,9e-08
1536701779108121790,1745,1536701779107614463,base_link,0.0454246394035,-0.0337090659889,-0.715510005127,0.696308648207,1.0,0.0,0.0,0.0,1.0,0.0,0.0,0.0,1.0,0.115441069007,-0.123737648129,-0.0341950915754,1.21846967915e-07,0.0,0.0,0.0,1.21846967915e-07,0.0,0.0,0.0,1.21846967915e-07,0.2549729,0.46091255,10.83634825,9e-08,0.0,0.0,0.0,9e-08,0.0,0.0,0.0,9e-08
1536701779494755387,1746,1536701779494470063,base_link,0.0482385934309,-0.0593380471822,-0.711817752039,0.698188743924,1.0,0.0,0.0,0.0,1.0,0.0,0.0,0.0,1.0,0.0837017670274,-0.0946267843246,0.0375596247613,1.21846967915e-07,0.0,0.0,0.0,1.21846967915e-07,0.0,0.0,0.0,1.21846967915e-07,0.3530394,0.73549875,11.26784085,9e-08,0.0,0.0,0.0,9e-08,0.0,0.0,0.0,9e-08
1536701779916503856,1747,1536701779916092820,base_link,0.0581065801604,-0.0743503974389,-0.710839181676,0.696995912138,1.0,0.0,0.0,0.0,1.0,0.0,0.0,0.0,1.0,0.0909428521991,0.0294411703944,-0.043718226254,1.21846967915e-07,0.0,0.0,0.0,1.21846967915e-07,0.0,0.0,0.0,1.21846967915e-07,0.3138128,0.8433719,10.4342756,9e-08,0.0,0.0,0.0,9e-08,0.0,0.0,0.0,9e-08
1536701780387242074,1748,1536701780387011299,base_link,0.0822448696323,-0.120446131977,-0.719543809978,0.678958920873,1.0,0.0,0.0,0.0,1.0,0.0,0.0,0.0,1.0,0.26004165411,-0.0506326109171,-0.0718951225281,1.21846967915e-07,0.0,0.0,0.0,1.21846967915e-07,0.0,0.0,0.0,1.21846967915e-07,0.392266,0.7256921,11.1011278,9e-08,0.0,0.0,0.0,9e-08,0.0,0.0,0.0,9e-08
1536701780694598281,1749,1536701780694340072,base_link,0.104117913184,-0.151166165426,-0.721613441143,0.667519506941,1.0,0.0,0.0,0.0,1.0,0.0,0.0,0.0,1.0,0.234002292156,-0.0407420359552,-0.0717349350452,1.21846967915e-07,0.0,0.0,0.0,1.21846967915e-07,0.0,0.0,0.0,1.21846967915e-07,0.4314926,0.9022118,10.395049,9e-08,0.0,0.0,0.0,9e-08,0.0,0.0,0.0,9e-08
1536701781110101670,1750,1536701781109756867,base_link,0.136706312709,-0.181109544337,-0.732048027057,0.642352242229,1.0,0.0,0.0,0.0,1.0,0.0,0.0,0.0,1.0,0.205085009336,-0.0261324774474,-0.208143547177,1.21846967915e-07,0.0,0.0,0.0,1.21846967915e-07,0.0,0.0,0.0,1.21846967915e-07,0.48052585,1.20621795,9.3751574,9e-08,0.0,0.0,0.0,9e-08,0.0,0.0,0.0,9e-08
1536701781539553339,1751,1536701781539056447,base_link,0.167044100101,-0.214481163686,-0.756995532968,0.594181674332,1.0,0.0,0.0,0.0,1.0,0.0,0.0,0.0,1.0,0.201974660158,-0.0954542607069,-0.264304667711,1.21846967915e-07,0.0,0.0,0.0,1.21846967915e-07,0.0,0.0,0.0,1.21846967915e-07,0.50013915,1.0787315,9.8654899,9e-08,0.0,0.0,0.0,9e-08,0.0,0.0,0.0,9e-08
1536701781885068737,1752,1536701781884468414,base_link,0.173951862734,-0.252115149205,-0.782098174958,0.542679597663,1.0,0.0,0.0,0.0,1.0,0.0,0.0,0.0,1.0,0.1533600986,-0.186032533646,-0.264360100031,1.21846967915e-07,0.0,0.0,0.0,1.21846967915e-07,0.0,0.0,0.0,1.21846967915e-07,0.71588545,1.1179581,11.0815145,9e-08,0.0,0.0,0.0,9e-08,0.0,0.0,0.0,9e-08
1536701782389760621,1753,1536701782389468831,base_link,0.165998327663,-0.284125693048,-0.820499642934,0.467437141986,1.0,0.0,0.0,0.0,1.0,0.0,0.0,0.0,1.0,0.148634895682,-0.268020659685,-0.2790402174,1.21846967915e-07,0.0,0.0,0.0,1.21846967915e-07,0.0,0.0,0.0,1.21846967915e-07,0.8825985,1.176798,12.2386992,9e-08,0.0,0.0,0.0,9e-08,0.0,0.0,0.0,9e-08
1536701782744249876,1754,1536701782743625351,base_link,0.15399718767,-0.299172488992,-0.847187881238,0.411161017004,1.0,0.0,0.0,0.0,1.0,0.0,0.0,0.0,1.0,-0.0437526255846,-0.235830023885,-0.293365955353,1.21846967915e-07,0.0,0.0,0.0,1.21846967915e-07,0.0,0.0,0.0,1.21846967915e-07,1.08853815,1.2356379,11.07170785,9e-08,0.0,0.0,0.0,9e-08,0.0,0.0,0.0,9e-08
1536701783068250102,1755,1536701783067814801,base_link,0.126460958308,-0.316145831999,-0.872212039426,0.351148967268,1.0,0.0,0.0,0.0,1.0,0.0,0.0,0.0,1.0,0.00033182837069,-0.310098737478,-0.289977490902,1.21846967915e-07,0.0,0.0,0.0,1.21846967915e-07,0.0,0.0,0.0,1.21846967915e-07,1.1964113,1.04931155,13.18994425,9e-08,0.0,0.0,0.0,9e-08,0.0,0.0,0.0,9e-08
1536701783377609434,1756,1536701783375033868,base_link,0.0979983291901,-0.337279957513,-0.887614740006,0.297957431623,1.0,0.0,0.0,0.0,1.0,0.0,0.0,0.0,1.0,0.11248293519,-0.400507956743,-0.265188664198,1.21846967915e-07,0.0,0.0,0.0,1.21846967915e-07,0.0,0.0,0.0,1.21846967915e-07,1.372931,1.18660465,13.48414375,9e-08,0.0,0.0,0.0,9e-08,0.0,0.0,0.0,9e-08
1536701783801378379,1757,1536701783801040043,base_link,0.0443616827989,-0.378745616604,-0.899647103351,0.212647333478,1.0,0.0,0.0,0.0,1.0,0.0,0.0,0.0,1.0,0.0111503805965,-0.426828145981,-0.23250938952,1.21846967915e-07,0.0,0.0,0.0,1.21846967915e-07,0.0,0.0,0.0,1.21846967915e-07,1.69655045,1.30428445,15.0826277,9e-08,0.0,0.0,0.0,9e-08,0.0,0.0,0.0,9e-08
1536701784177727512,1758,1536701784176780498,base_link,0.0156440290076,-0.398157623618,-0.90655650203,0.139215946424,1.0,0.0,0.0,0.0,1.0,0.0,0.0,0.0,1.0,-0.018992850557,-0.293718397617,-0.375783532858,1.21846967915e-07,0.0,0.0,0.0,1.21846967915e-07,0.0,0.0,0.0,1.21846967915e-07,1.53964405,1.32389775,12.1994726,9e-08,0.0,0.0,0.0,9e-08,0.0,0.0,0.0,9e-08
1536701784489960986,1759,1536701784489710971,base_link,-0.0118874230668,-0.403366466114,-0.913015562019,0.0596386342835,1.0,0.0,0.0,0.0,1.0,0.0,0.0,0.0,1.0,0.0208467766643,-0.452534288168,-0.388172715902,1.21846967915e-07,0.0,0.0,0.0,1.21846967915e-07,0.0,0.0,0.0,1.21846967915e-07,1.4513842,1.12776475,12.3956056,9e-08,0.0,0.0,0.0,9e-08,0.0,0.0,0.0,9e-08
1536701784918805001,1760,1536701784918541702,base_link,-0.0842175175282,-0.405866209605,-0.909078468141,-0.0419090492043,1.0,0.0,0.0,0.0,1.0,0.0,0.0,0.0,1.0,-0.140133500099,-0.418523967266,-0.241891562939,1.21846967915e-07,0.0,0.0,0.0,1.21846967915e-07,0.0,0.0,0.0,1.21846967915e-07,1.97113665,1.22583125,17.24989735,9e-08,0.0,0.0,0.0,9e-08,0.0,0.0,0.0,9e-08
1536701785156526503,1761,1536701785156208719,base_link,-0.115539005449,-0.378623111422,-0.912818791408,-0.100285252007,1.0,0.0,0.0,0.0,1.0,0.0,0.0,0.0,1.0,-0.291618585587,-0.330101162195,-0.321542084217,1.21846967915e-07,0.0,0.0,0.0,1.21846967915e-07,0.0,0.0,0.0,1.21846967915e-07,1.9417167,1.2356379,15.0826277,9e-08,0.0,0.0,0.0,9e-08,0.0,0.0,0.0,9e-08
1536701785669856373,1762,1536701785669406347,base_link,-0.135992793543,-0.291447960971,-0.919893319979,-0.224411064807,1.0,0.0,0.0,0.0,1.0,0.0,0.0,0.0,1.0,-0.494178026915,-0.243398889899,-0.374706894159,1.21846967915e-07,0.0,0.0,0.0,1.21846967915e-07,0.0,0.0,0.0,1.21846967915e-07,0.95124505,0.7649187,13.05265115,9e-08,0.0,0.0,0.0,9e-08,0.0,0.0,0.0,9e-08
1536701785974761573,1763,1536701785974487710,base_link,-0.125909009042,-0.216776443698,-0.923892175817,-0.289098845317,1.0,0.0,0.0,0.0,1.0,0.0,0.0,0.0,1.0,-0.517392277718,-0.156305849552,-0.316775083542,1.21846967915e-07,0.0,0.0,0.0,1.21846967915e-07,0.0,0.0,0.0,1.21846967915e-07,0.4314926,0.6276256,11.07170785,9e-08,0.0,0.0,0.0,9e-08,0.0,0.0,0.0,9e-08
1536701786378646970,1764,1536701786378264426,base_link,-0.106252492679,-0.130175474049,-0.919092059306,-0.356419051506,1.0,0.0,0.0,0.0,1.0,0.0,0.0,0.0,1.0,-0.415641635656,-0.0365809351206,-0.192388609052,1.21846967915e-07,0.0,0.0,0.0,1.21846967915e-07,0.0,0.0,0.0,1.21846967915e-07,0.2157463,0.0980665,11.1011278,9e-08,0.0,0.0,0.0,9e-08,0.0,0.0,0.0,9e-08
1536701786771075333,1765,1536701786770666026,base_link,-0.0706485514044,-0.0399066016735,-0.914448144332,-0.396485607122,1.0,0.0,0.0,0.0,1.0,0.0,0.0,0.0,1.0,-0.550791919231,0.088391661644,-0.177679479122,1.21846967915e-07,0.0,0.0,0.0,1.21846967915e-07,0.0,0.0,0.0,1.21846967915e-07,0.00980665,0.36284605,9.4928372,9e-08,0.0,0.0,0.0,9e-08,0.0,0.0,0.0,9e-08
1536701787111307006,1766,1536701787111089036,base_link,-0.0344065309975,0.0276629357192,-0.907874807485,-0.416910405899,1.0,0.0,0.0,0.0,1.0,0.0,0.0,0.0,1.0,-0.398052096367,-0.0354433134198,0.0112906899303,1.21846967915e-07,0.0,0.0,0.0,1.21846967915e-07,0.0,0.0,0.0,1.21846967915e-07,0.02941995,-0.30400615,9.4732239,9e-08,0.0,0.0,0.0,9e-08,0.0,0.0,0.0,9e-08
1536701787504627994,1767,1536701787502304492,base_link,0.00956744257569,0.101641107655,-0.911477065641,-0.398481000911,1.0,0.0,0.0,0.0,1.0,0.0,0.0,0.0,1.0,-0.493202149868,0.10111194104,0.147036612034,1.21846967915e-07,0.0,0.0,0.0,1.21846967915e-07,0.0,0.0,0.0,1.21846967915e-07,0.0784532,1.10489079302e-15,9.022118,9e-08,0.0,0.0,0.0,9e-08,0.0,0.0,0.0,9e-08
1536701787914077863,1768,1536701787911699076,base_link,0.0588200445437,0.175266514114,-0.911046182891,-0.368533179008,1.0,0.0,0.0,0.0,1.0,0.0,0.0,0.0,1.0,-0.436784058809,0.0168914869428,0.177471861243,1.21846967915e-07,0.0,0.0,0.0,1.21846967915e-07,0.0,0.0,0.0,1.21846967915e-07,-0.00980665,-0.04903325,7.9041599,9e-08,0.0,0.0,0.0,9e-08,0.0,0.0,0.0,9e-08
