%time,field.header.seq,field.header.stamp,field.header.frame_id,field.orientation.x,field.orientation.y,field.orientation.z,field.orientation.w,field.orientation_covariance0,field.orientation_covariance1,field.orientation_covariance2,field.orientation_covariance3,field.orientation_covariance4,field.orientation_covariance5,field.orientation_covariance6,field.orientation_covariance7,field.orientation_covariance8,field.angular_velocity.x,field.angular_velocity.y,field.angular_velocity.z,field.angular_velocity_covariance0,field.angular_velocity_covariance1,field.angular_velocity_covariance2,field.angular_velocity_covariance3,field.angular_velocity_covariance4,field.angular_velocity_covariance5,field.angular_velocity_covariance6,field.angular_velocity_covariance7,field.angular_velocity_covariance8,field.linear_acceleration.x,field.linear_acceleration.y,field.linear_acceleration.z,field.linear_acceleration_covariance0,field.linear_acceleration_covariance1,field.linear_acceleration_covariance2,field.linear_acceleration_covariance3,field.linear_acceleration_covariance4,field.linear_acceleration_covariance5,field.linear_acceleration_covariance6,field.linear_acceleration_covariance7,field.linear_acceleration_covariance8
1539875435281120360,981,1539875435280778984,base_link,0.025519621133,0.0105503109183,-0.982209385725,-0.185747577295,1.0,0.0,0.0,0.0,1.0,0.0,0.0,0.0,1.0,0.3073310256,0.0468706227839,-0.0808300971985,1.21846967915e-07,0.0,0.0,0.0,1.21846967915e-07,0.0,0.0,0.0,1.21846967915e-07,-0.46091255,0.5295591,9.3163175,9e-08,0.0,0.0,0.0,9e-08,0.0,0.0,0.0,9e-08
1539875435829279080,982,1539875435828982088,base_link,0.00860087444414,-0.0855782173863,-0.977949129582,-0.190309993476,1.0,0.0,0.0,0.0,1.0,0.0,0.0,0.0,1.0,0.502769529819,0.0329644158483,0.013052306138,1.21846967915e-07,0.0,0.0,0.0,1.21846967915e-07,0.0,0.0,0.0,1.21846967915e-07,-0.48052585,0.2353596,9.6497436,9e-08,0.0,0.0,0.0,9e-08,0.0,0.0,0.0,9e-08
1539875436207316424,983,1539875436199451400,base_link,0.00311021072277,-0.171504595229,-0.965815632837,-0.194362197385,1.0,0.0,0.0,0.0,1.0,0.0,0.0,0.0,1.0,0.510875344276,0.0925930216908,-0.0485896766186,1.21846967915e-07,0.0,0.0,0.0,1.21846967915e-07,0.0,0.0,0.0,1.21846967915e-07,-1.08853815,0.04903325,8.46313895,9e-08,0.0,0.0,0.0,9e-08,0.0,0.0,0.0,9e-08
1539875436526776840,984,1539875436524980488,base_link,0.00490588974392,-0.247427199888,-0.947378305634,-0.203051862872,1.0,0.0,0.0,0.0,1.0,0.0,0.0,0.0,1.0,0.424266815186,0.0900990143418,-0.100551128387,1.21846967915e-07,0.0,0.0,0.0,1.21846967915e-07,0.0,0.0,0.0,1.21846967915e-07,-1.34351105,0.14709975,7.58054045,9e-08,0.0,0.0,0.0,9e-08,0.0,0.0,0.0,9e-08
1539875436900396424,985,1539875436900094792,base_link,0.0189120865544,-0.281596769478,-0.933756005302,-0.220102964462,1.0,0.0,0.0,0.0,1.0,0.0,0.0,0.0,1.0,-0.0232604462653,0.0710259899497,-0.113277181983,1.21846967915e-07,0.0,0.0,0.0,1.21846967915e-07,0.0,0.0,0.0,1.21846967915e-07,-1.79461695,0.7649187,7.12943455,9e-08,0.0,0.0,0.0,9e-08,0.0,0.0,0.0,9e-08
1539875437300467016,986,1539875437300220104,base_link,0.0562241329792,-0.269374998545,-0.927575278016,-0.252745050678,1.0,0.0,0.0,0.0,1.0,0.0,0.0,0.0,1.0,-0.306617230177,0.0615905448794,-0.349024176598,1.21846967915e-07,0.0,0.0,0.0,1.21846967915e-07,0.0,0.0,0.0,1.21846967915e-07,-1.95152335,0.9414384,4.1972462,9e-08,0.0,0.0,0.0,9e-08,0.0,0.0,0.0,9e-08
1539875437687303624,987,1539875437686915656,base_link,0.10369280837,-0.227069615292,-0.915991166682,-0.314081794863,1.0,0.0,0.0,0.0,1.0,0.0,0.0,0.0,1.0,-0.157461777329,0.0693284645677,-0.330116778612,1.21846967915e-07,0.0,0.0,0.0,1.21846967915e-07,0.0,0.0,0.0,1.21846967915e-07,-1.95152335,0.81395195,7.85512665,9e-08,0.0,0.0,0.0,9e-08,0.0,0.0,0.0,9e-08
1539875438110212712,988,1539875438109904712,base_link,0.13246947596,-0.209125195664,-0.895952911813,-0.368763976402,1.0,0.0,0.0,0.0,1.0,0.0,0.0,0.0,1.0,0.0558556690812,0.0366315059364,-0.274277567863,1.21846967915e-07,0.0,0.0,0.0,1.21846967915e-07,0.0,0.0,0.0,1.21846967915e-07,-2.22610955,0.67665885,7.9433865,9e-08,0.0,0.0,0.0,9e-08,0.0,0.0,0.0,9e-08
1539875438468367624,989,1539875438467879336,base_link,0.132375670501,-0.219036560535,-0.88382896514,-0.391594212658,1.0,0.0,0.0,0.0,1.0,0.0,0.0,0.0,1.0,0.26679110527,-0.016834937036,-0.0139964185655,1.21846967915e-07,0.0,0.0,0.0,1.21846967915e-07,0.0,0.0,0.0,1.21846967915e-07,-2.2947561,0.30400615,9.2574776,9e-08,0.0,0.0,0.0,9e-08,0.0,0.0,0.0,9e-08
1539875438981591752,990,1539875438981237704,base_link,0.127837169827,-0.186502538804,-0.897847680775,-0.37781477361,1.0,0.0,0.0,0.0,1.0,0.0,0.0,0.0,1.0,-0.236402019858,-0.05181806162,-0.0364525765181,1.21846967915e-07,0.0,0.0,0.0,1.21846967915e-07,0.0,0.0,0.0,1.21846967915e-07,-2.46146915,0.40207265,11.05209455,9e-08,0.0,0.0,0.0,9e-08,0.0,0.0,0.0,9e-08
1539875439368101256,991,1539875439367401352,base_link,0.147541984874,-0.121191730384,-0.898468362413,-0.395346087534,1.0,0.0,0.0,0.0,1.0,0.0,0.0,0.0,1.0,-0.178519010544,-0.093123562634,-0.122935727239,1.21846967915e-07,0.0,0.0,0.0,1.21846967915e-07,0.0,0.0,0.0,1.21846967915e-07,-2.44185585,0.6472389,10.48330885,9e-08,0.0,0.0,0.0,9e-08,0.0,0.0,0.0,9e-08
1539875439767741096,992,1539875439767479784,base_link,0.140478660122,-0.0950120921498,-0.898793895244,-0.404237531989,1.0,0.0,0.0,0.0,1.0,0.0,0.0,0.0,1.0,-0.037581179291,-0.0875251591206,-0.0254362989217,1.21846967915e-07,0.0,0.0,0.0,1.21846967915e-07,0.0,0.0,0.0,1.21846967915e-07,-2.59876225,0.2745862,11.8268199,9e-08,0.0,0.0,0.0,9e-08,0.0,0.0,0.0,9e-08
1539875440059739976,993,1539875440059449640,base_link,0.124594022708,-0.101376367832,-0.897525568057,-0.410666551152,1.0,0.0,0.0,0.0,1.0,0.0,0.0,0.0,1.0,-0.0352310985327,-0.078835837543,0.00261099659838,1.21846967915e-07,0.0,0.0,0.0,1.21846967915e-07,0.0,0.0,0.0,1.21846967915e-07,-2.61837555,0.2745862,12.9643913,9e-08,0.0,0.0,0.0,9e-08,0.0,0.0,0.0,9e-08
1539875440473602760,994,1539875440473251336,base_link,0.1193000135,-0.0935178388617,-0.910205288945,-0.3854195799,1.0,0.0,0.0,0.0,1.0,0.0,0.0,0.0,1.0,0.0249745007604,-0.0638509169221,0.129991963506,1.21846967915e-07,0.0,0.0,0.0,1.21846967915e-07,0.0,0.0,0.0,1.21846967915e-07,-2.48108245,0.4903325,7.4726673,9e-08,0.0,0.0,0.0,9e-08,0.0,0.0,0.0,9e-08
1539875440811191976,995,1539875440810796808,base_link,0.127019441875,-0.0586904087729,-0.914945778273,-0.378544211585,1.0,0.0,0.0,0.0,1.0,0.0,0.0,0.0,1.0,-0.379509925842,-0.0442721582949,-0.0729698464274,1.21846967915e-07,0.0,0.0,0.0,1.21846967915e-07,0.0,0.0,0.0,1.21846967915e-07,-2.63798885,0.9610517,10.3558224,9e-08,0.0,0.0,0.0,9e-08,0.0,0.0,0.0,9e-08
1539875441267800072,996,1539875441266395656,base_link,0.11022020432,-0.0286276674623,-0.9135652482,-0.390423488658,1.0,0.0,0.0,0.0,1.0,0.0,0.0,0.0,1.0,0.193950265646,-0.158755943179,-0.067083440721,1.21846967915e-07,0.0,0.0,0.0,1.21846967915e-07,0.0,0.0,0.0,1.21846967915e-07,-2.12804305,0.26477955,11.95430635,9e-08,0.0,0.0,0.0,9e-08,0.0,0.0,0.0,9e-08
1539875441601584744,997,1539875441601208648,base_link,0.0545863498512,-0.0465026768941,-0.916229176302,-0.394185144247,1.0,0.0,0.0,0.0,1.0,0.0,0.0,0.0,1.0,-0.0521438345313,-0.28197607398,0.111240789294,1.21846967915e-07,0.0,0.0,0.0,1.21846967915e-07,0.0,0.0,0.0,1.21846967915e-07,-0.99047165,0.1176798,20.54493175,9e-08,0.0,0.0,0.0,9e-08,0.0,0.0,0.0,9e-08
1539875441907734376,998,1539875441907465736,base_link,0.01182801223,-0.0295635542352,-0.925180860909,-0.3781884041,1.0,0.0,0.0,0.0,1.0,0.0,0.0,0.0,1.0,-0.289162397385,-0.245408639312,0.0923351496458,1.21846967915e-07,0.0,0.0,0.0,1.21846967915e-07,0.0,0.0,0.0,1.21846967915e-07,-0.67665885,0.7256921,17.8088764,9e-08,0.0,0.0,0.0,9e-08,0.0,0.0,0.0,9e-08
1539875442374942024,999,1539875442374690152,base_link,-0.034927260437,-0.0404017868742,-0.926851710823,-0.371609591158,1.0,0.0,0.0,0.0,1.0,0.0,0.0,0.0,1.0,-0.0194710977376,-0.147939443588,0.0547261126339,1.21846967915e-07,0.0,0.0,0.0,1.21846967915e-07,0.0,0.0,0.0,1.21846967915e-07,-0.44129925,0.87279185,9.83606995,9e-08,0.0,0.0,0.0,9e-08,0.0,0.0,0.0,9e-08
1539875442814997192,1000,1539875442811389480,base_link,-0.0529929717565,-0.00590563714145,-0.921872256675,-0.383807778408,1.0,0.0,0.0,0.0,1.0,0.0,0.0,0.0,1.0,0.0129445912316,-0.0979617908597,-0.0872116610408,1.21846967915e-07,0.0,0.0,0.0,1.21846967915e-07,0.0,0.0,0.0,1.21846967915e-07,-0.08825985,-0.3334261,12.40541225,9e-08,0.0,0.0,0.0,9e-08,0.0,0.0,0.0,9e-08
1539875443127217864,1001,1539875443126800808,base_link,-0.072489770008,-0.00380025583673,-0.924575006535,-0.374021187355,1.0,0.0,0.0,0.0,1.0,0.0,0.0,0.0,1.0,0.127693548799,-0.14331535995,0.121937483549,1.21846967915e-07,0.0,0.0,0.0,1.21846967915e-07,0.0,0.0,0.0,1.21846967915e-07,0.2353596,-0.0784532,12.48386545,9e-08,0.0,0.0,0.0,9e-08,0.0,0.0,0.0,9e-08
1539875443416974024,1002,1539875443416503816,base_link,-0.0767407753088,0.0193700295437,-0.929877868807,-0.359253120326,1.0,0.0,0.0,0.0,1.0,0.0,0.0,0.0,1.0,0.0897933468223,-0.0455181375146,0.0247459411621,1.21846967915e-07,0.0,0.0,0.0,1.21846967915e-07,0.0,0.0,0.0,1.21846967915e-07,0.2941995,0.4314926,10.62060195,9e-08,0.0,0.0,0.0,9e-08,0.0,0.0,0.0,9e-08
1539875443793201064,1003,1539875443792861352,base_link,-0.0859254162244,-0.00814658797666,-0.932166865045,-0.351589805971,1.0,0.0,0.0,0.0,1.0,0.0,0.0,0.0,1.0,-0.000737109454349,-0.0123918959871,0.141528442502,1.21846967915e-07,0.0,0.0,0.0,1.21846967915e-07,0.0,0.0,0.0,1.21846967915e-07,0.1569064,-0.0392266,8.7083052,9e-08,0.0,0.0,0.0,9e-08,0.0,0.0,0.0,9e-08
1539875444098091272,1004,1539875444096639240,base_link,-0.084998103922,-0.00804606748419,-0.940955580592,-0.32758690218,1.0,0.0,0.0,0.0,1.0,0.0,0.0,0.0,1.0,-0.302239120007,0.0410931147635,0.115609668195,1.21846967915e-07,0.0,0.0,0.0,1.21846967915e-07,0.0,0.0,0.0,1.21846967915e-07,0.588399,1.26505785,7.77667345,9e-08,0.0,0.0,0.0,9e-08,0.0,0.0,0.0,9e-08
1539875444406965608,1005,1539875444406176072,base_link,-0.0607207625132,0.00932715172251,-0.934436753246,-0.350790460851,1.0,0.0,0.0,0.0,1.0,0.0,0.0,0.0,1.0,0.082507006824,0.100216306746,-0.21918591857,1.21846967915e-07,0.0,0.0,0.0,1.21846967915e-07,0.0,0.0,0.0,1.21846967915e-07,0.46091255,0.57859235,8.3748791,9e-08,0.0,0.0,0.0,9e-08,0.0,0.0,0.0,9e-08
1539875444920172552,1006,1539875444919724008,base_link,-0.0597774605112,-0.0116972706454,-0.927992604893,-0.367586118261,1.0,0.0,0.0,0.0,1.0,0.0,0.0,0.0,1.0,0.0646777376533,0.024371823296,0.0338338129222,1.21846967915e-07,0.0,0.0,0.0,1.21846967915e-07,0.0,0.0,0.0,1.21846967915e-07,0.91201845,0.0196133,10.591182,9e-08,0.0,0.0,0.0,9e-08,0.0,0.0,0.0,9e-08
1539875445268441832,1007,1539875445268159464,base_link,-0.056138816815,-0.0145458634594,-0.930773011425,-0.360968769156,1.0,0.0,0.0,0.0,1.0,0.0,0.0,0.0,1.0,-0.112922772765,0.0163973625749,0.0272463969886,1.21846967915e-07,0.0,0.0,0.0,1.21846967915e-07,0.0,0.0,0.0,1.21846967915e-07,1.0198916,0.32361945,9.9047165,9e-08,0.0,0.0,0.0,9e-08,0.0,0.0,0.0,9e-08
1539875445521942536,1008,1539875445521597448,base_link,-0.048528068046,-0.00513458946694,-0.930932850475,-0.361915308477,1.0,0.0,0.0,0.0,1.0,0.0,0.0,0.0,1.0,-0.00550268497318,0.0211473666131,-0.029782326892,1.21846967915e-07,0.0,0.0,0.0,1.21846967915e-07,0.0,0.0,0.0,1.21846967915e-07,0.784532,0.6472389,9.6889702,9e-08,0.0,0.0,0.0,9e-08,0.0,0.0,0.0,9e-08
1539875445966577672,1009,1539875445966199432,base_link,-0.0453444847683,-0.00579314723939,-0.931006426574,-0.362128914649,1.0,0.0,0.0,0.0,1.0,0.0,0.0,0.0,1.0,-0.0104688024148,-0.000787545926869,0.0635259747505,1.21846967915e-07,0.0,0.0,0.0,1.21846967915e-07,0.0,0.0,0.0,1.21846967915e-07,0.7060788,0.16671305,10.3362091,9e-08,0.0,0.0,0.0,9e-08,0.0,0.0,0.0,9e-08
1539875446390655752,1010,1539875446386446984,base_link,-0.0421331455173,0.0022482178188,-0.936185385492,-0.348965138024,1.0,0.0,0.0,0.0,1.0,0.0,0.0,0.0,1.0,-0.0279537290335,0.0242493413389,-0.00577803282067,1.21846967915e-07,0.0,0.0,0.0,1.21846967915e-07,0.0,0.0,0.0,1.21846967915e-07,0.75511205,0.59820565,11.1599677,9e-08,0.0,0.0,0.0,9e-08,0.0,0.0,0.0,9e-08
1539875446809683048,1011,1539875446809184168,base_link,-0.0493283110814,-0.00863184495368,-0.941176835015,-0.334183144711,1.0,0.0,0.0,0.0,1.0,0.0,0.0,0.0,1.0,-0.117252424359,-0.0546133108437,0.146994143724,1.21846967915e-07,0.0,0.0,0.0,1.21846967915e-07,0.0,0.0,0.0,1.21846967915e-07,0.57859235,0.69627215,10.7088618,9e-08,0.0,0.0,0.0,9e-08,0.0,0.0,0.0,9e-08
1539875447214162088,1012,1539875447213896840,base_link,-0.0464111513815,-0.0361311389649,-0.940066933238,-0.335879006277,1.0,0.0,0.0,0.0,1.0,0.0,0.0,0.0,1.0,0.433216243982,0.0832695439458,-0.21122828126,1.21846967915e-07,0.0,0.0,0.0,1.21846967915e-07,0.0,0.0,0.0,1.21846967915e-07,0.61781895,0.5491724,8.34545915,9e-08,0.0,0.0,0.0,9e-08,0.0,0.0,0.0,9e-08
1539875447726828616,1013,1539875447726047784,base_link,-0.0465736551062,-0.0925562359321,-0.920578073402,-0.37656373778,1.0,0.0,0.0,0.0,1.0,0.0,0.0,0.0,1.0,0.175819337368,0.0430827587843,-0.0820612832904,1.21846967915e-07,0.0,0.0,0.0,1.21846967915e-07,0.0,0.0,0.0,1.21846967915e-07,0.2157463,-0.0392266,9.1397978,9e-08,0.0,0.0,0.0,9e-08,0.0,0.0,0.0,9e-08
1539875448161110152,1014,1539875448160762152,base_link,-0.0604864447592,-0.142078987093,-0.91478028127,-0.373272003272,1.0,0.0,0.0,0.0,1.0,0.0,0.0,0.0,1.0,0.339276731014,-0.0239777844399,0.000920094898902,1.21846967915e-07,0.0,0.0,0.0,1.21846967915e-07,0.0,0.0,0.0,1.21846967915e-07,0.0392266,0.59820565,10.395049,9e-08,0.0,0.0,0.0,9e-08,0.0,0.0,0.0,9e-08
1539875448524894728,1015,1539875448524614696,base_link,-0.0946509943701,-0.22914217544,-0.885394837466,-0.393206096707,1.0,0.0,0.0,0.0,1.0,0.0,0.0,0.0,1.0,0.914982557297,-0.0516996122897,-0.325572609901,1.21846967915e-07,0.0,0.0,0.0,1.21846967915e-07,0.0,0.0,0.0,1.21846967915e-07,0.3138128,1.08853815,10.9442214,9e-08,0.0,0.0,0.0,9e-08,0.0,0.0,0.0,9e-08
1539875448840923208,1016,1539875448840653480,base_link,-0.143359324979,-0.315088978319,-0.828778887457,-0.439650537801,1.0,0.0,0.0,0.0,1.0,0.0,0.0,0.0,1.0,0.161172702909,-0.333964049816,-0.331356704235,1.21846967915e-07,0.0,0.0,0.0,1.21846967915e-07,0.0,0.0,0.0,1.21846967915e-07,1.1375714,0.6864655,11.7287534,9e-08,0.0,0.0,0.0,9e-08,0.0,0.0,0.0,9e-08
1539875449325918024,1017,1539875449325559944,base_link,-0.20949418107,-0.306693244984,-0.774410027923,-0.512191907619,1.0,0.0,0.0,0.0,1.0,0.0,0.0,0.0,1.0,-0.0291907601058,-0.291525512934,-0.244078934193,1.21846967915e-07,0.0,0.0,0.0,1.21846967915e-07,0.0,0.0,0.0,1.21846967915e-07,1.48080415,1.2552512,12.89574475,9e-08,0.0,0.0,0.0,9e-08,0.0,0.0,0.0,9e-08
1539875449818204040,1018,1539875449817913224,base_link,-0.218352518407,-0.287864652647,-0.707277155648,-0.607630763343,1.0,0.0,0.0,0.0,1.0,0.0,0.0,0.0,1.0,0.137094959617,-0.20581433177,-0.461641490459,1.21846967915e-07,0.0,0.0,0.0,1.21846967915e-07,0.0,0.0,0.0,1.21846967915e-07,1.04931155,1.0591182,12.50347875,9e-08,0.0,0.0,0.0,9e-08,0.0,0.0,0.0,9e-08
1539875450307739880,1019,1539875450307356072,base_link,-0.245743538293,-0.26490783595,-0.630294021145,-0.687141469239,1.0,0.0,0.0,0.0,1.0,0.0,0.0,0.0,1.0,0.0377727560699,-0.347521007061,-0.262363255024,1.21846967915e-07,0.0,0.0,0.0,1.21846967915e-07,0.0,0.0,0.0,1.21846967915e-07,0.7256921,0.77472535,14.8080415,9e-08,0.0,0.0,0.0,9e-08,0.0,0.0,0.0,9e-08
1539875450661582664,1020,1539875450661291176,base_link,-0.263107471848,-0.225690907207,-0.590300308101,-0.728960642914,1.0,0.0,0.0,0.0,1.0,0.0,0.0,0.0,1.0,0.0942602828145,-0.190753817558,-0.25567099452,1.21846967915e-07,0.0,0.0,0.0,1.21846967915e-07,0.0,0.0,0.0,1.21846967915e-07,0.00980665,1.0198916,7.5903471,9e-08,0.0,0.0,0.0,9e-08,0.0,0.0,0.0,9e-08
1539875451124116616,1021,1539875451123823784,base_link,-0.289235785982,-0.225415460783,-0.514566799293,-0.775081633902,1.0,0.0,0.0,0.0,1.0,0.0,0.0,0.0,1.0,0.0708862617612,-0.260743528605,-0.346231281757,1.21846967915e-07,0.0,0.0,0.0,1.21846967915e-07,0.0,0.0,0.0,1.21846967915e-07,0.4118793,0.8825985,12.56231865,9e-08,0.0,0.0,0.0,9e-08,0.0,0.0,0.0,9e-08
1539875451411455144,1022,1539875451411015624,base_link,-0.319829364964,-0.225270628182,-0.457117520054,-0.798752711573,1.0,0.0,0.0,0.0,1.0,0.0,0.0,0.0,1.0,0.163430526853,-0.280276745558,-0.279131829739,1.21846967915e-07,0.0,0.0,0.0,1.21846967915e-07,0.0,0.0,0.0,1.21846967915e-07,0.4707192,0.04903325,11.0815145,9e-08,0.0,0.0,0.0,9e-08,0.0,0.0,0.0,9e-08
1539875451807431656,1023,1539875451806761800,base_link,-0.345019601629,-0.183948981522,-0.402169568518,-0.827879148696,1.0,0.0,0.0,0.0,1.0,0.0,0.0,0.0,1.0,-0.145836770535,-0.330063462257,-0.222088649869,1.21846967915e-07,0.0,0.0,0.0,1.21846967915e-07,0.0,0.0,0.0,1.21846967915e-07,0.3530394,1.2160246,11.4345539,9e-08,0.0,0.0,0.0,9e-08,0.0,0.0,0.0,9e-08
1539875452252132808,1024,1539875452250138184,base_link,-0.343350728779,-0.147337174701,-0.319444592592,-0.870837060684,1.0,0.0,0.0,0.0,1.0,0.0,0.0,0.0,1.0,0.0873811990023,-0.250162243843,-0.397135794163,1.21846967915e-07,0.0,0.0,0.0,1.21846967915e-07,0.0,0.0,0.0,1.21846967915e-07,0.5099458,1.24544455,13.01342455,9e-08,0.0,0.0,0.0,9e-08,0.0,0.0,0.0,9e-08
1539875452619304392,1025,1539875452618937672,base_link,-0.356484576511,-0.117305289404,-0.236141245482,-0.896323338963,1.0,0.0,0.0,0.0,1.0,0.0,0.0,0.0,1.0,0.0709255263209,-0.338406503201,-0.26374194026,1.21846967915e-07,0.0,0.0,0.0,1.21846967915e-07,0.0,0.0,0.0,1.21846967915e-07,0.32361945,0.89240515,14.24906245,9e-08,0.0,0.0,0.0,9e-08,0.0,0.0,0.0,9e-08
1539875453020297544,1026,1539875453019758472,base_link,-0.37697054651,-0.0807440010489,-0.164855226331,-0.907852613429,1.0,0.0,0.0,0.0,1.0,0.0,0.0,0.0,1.0,-0.125612437725,-0.30328643322,-0.292531132698,1.21846967915e-07,0.0,0.0,0.0,1.21846967915e-07,0.0,0.0,0.0,1.21846967915e-07,0.48052585,1.1571847,14.2588691,9e-08,0.0,0.0,0.0,9e-08,0.0,0.0,0.0,9e-08
1539875453265081672,1027,1539875453260196456,base_link,-0.359343193387,-0.0596962585331,-0.121389268249,-0.923349051896,1.0,0.0,0.0,0.0,1.0,0.0,0.0,0.0,1.0,-0.101346775889,-0.263001441956,-0.26619130373,1.21846967915e-07,0.0,0.0,0.0,1.21846967915e-07,0.0,0.0,0.0,1.21846967915e-07,0.44129925,0.8825985,13.20955755,9e-08,0.0,0.0,0.0,9e-08,0.0,0.0,0.0,9e-08
1539875453781521992,1028,1539875453781189672,base_link,-0.362777679154,-0.0313848363775,-0.017870757275,-0.931175592242,1.0,0.0,0.0,0.0,1.0,0.0,0.0,0.0,1.0,0.289346694946,-0.24752214551,-0.318862438202,1.21846967915e-07,0.0,0.0,0.0,1.21846967915e-07,0.0,0.0,0.0,1.21846967915e-07,0.0784532,0.63743225,11.8464332,9e-08,0.0,0.0,0.0,9e-08,0.0,0.0,0.0,9e-08
1539875454203320552,1029,1539875454202842856,base_link,-0.38902737975,0.00296274725902,0.0494113661904,-0.919895340147,1.0,0.0,0.0,0.0,1.0,0.0,0.0,0.0,1.0,-0.0534006245434,-0.250668346882,-0.255195140839,1.21846967915e-07,0.0,0.0,0.0,1.21846967915e-07,0.0,0.0,0.0,1.21846967915e-07,0.44129925,1.2356379,12.01314625,9e-08,0.0,0.0,0.0,9e-08,0.0,0.0,0.0,9e-08
1539875454580718504,1030,1539875454580406856,base_link,-0.35640817636,0.0137198840852,0.134539043558,-0.924491331686,1.0,0.0,0.0,0.0,1.0,0.0,0.0,0.0,1.0,0.168904170394,-0.233658641577,-0.390454828739,1.21846967915e-07,0.0,0.0,0.0,1.21846967915e-07,0.0,0.0,0.0,1.21846967915e-07,0.44129925,0.22555295,12.01314625,9e-08,0.0,0.0,0.0,9e-08,0.0,0.0,0.0,9e-08
1539875454932652648,1031,1539875454932466312,base_link,-0.372775850377,0.0481793487968,0.193681963841,-0.906203185057,1.0,0.0,0.0,0.0,1.0,0.0,0.0,0.0,1.0,0.0468076840043,-0.338323265314,-0.234285786748,1.21846967915e-07,0.0,0.0,0.0,1.21846967915e-07,0.0,0.0,0.0,1.21846967915e-07,0.4903325,0.57859235,13.83718315,9e-08,0.0,0.0,0.0,9e-08,0.0,0.0,0.0,9e-08
1539875455292850152,1032,1539875455292560264,base_link,-0.360780775648,0.0951685533843,0.258195266864,-0.891131518093,1.0,0.0,0.0,0.0,1.0,0.0,0.0,0.0,1.0,-0.033526211977,-0.351860046387,-0.198125422001,1.21846967915e-07,0.0,0.0,0.0,1.21846967915e-07,0.0,0.0,0.0,1.21846967915e-07,0.7649187,1.01008495,15.70044665,9e-08,0.0,0.0,0.0,9e-08,0.0,0.0,0.0,9e-08
1539875455663298856,1033,1539875455663026024,base_link,-0.359369149242,0.133897583126,0.329939636441,-0.86259207515,1.0,0.0,0.0,0.0,1.0,0.0,0.0,0.0,1.0,0.0895849689841,-0.330558538437,-0.354307979345,1.21846967915e-07,0.0,0.0,0.0,1.21846967915e-07,0.0,0.0,0.0,1.21846967915e-07,0.73549875,0.8825985,15.36702055,9e-08,0.0,0.0,0.0,9e-08,0.0,0.0,0.0,9e-08
1539875456040592776,1034,1539875456040376744,base_link,-0.357605790412,0.164211601864,0.407025374572,-0.824307583934,1.0,0.0,0.0,0.0,1.0,0.0,0.0,0.0,1.0,-0.130658313632,-0.33374786377,-0.354063272476,1.21846967915e-07,0.0,0.0,0.0,1.21846967915e-07,0.0,0.0,0.0,1.21846967915e-07,1.12776475,1.02969825,14.4157755,9e-08,0.0,0.0,0.0,9e-08,0.0,0.0,0.0,9e-08
1539875456498916360,1035,1539875456498373672,base_link,-0.307025631677,0.196309802635,0.489295715411,-0.79233037665,1.0,0.0,0.0,0.0,1.0,0.0,0.0,0.0,1.0,-0.0564523003995,-0.378987461329,-0.226550742984,1.21846967915e-07,0.0,0.0,0.0,1.21846967915e-07,0.0,0.0,0.0,1.21846967915e-07,0.77472535,1.2160246,16.40652545,9e-08,0.0,0.0,0.0,9e-08,0.0,0.0,0.0,9e-08
1539875456959888392,1036,1539875456959637640,base_link,-0.281379996048,0.24350438434,0.56135671302,-0.739195206545,1.0,0.0,0.0,0.0,1.0,0.0,0.0,0.0,1.0,-0.0286605153233,-0.282448798418,-0.283771634102,1.21846967915e-07,0.0,0.0,0.0,1.21846967915e-07,0.0,0.0,0.0,1.21846967915e-07,0.6276256,0.6668522,12.8074849,9e-08,0.0,0.0,0.0,9e-08,0.0,0.0,0.0,9e-08
1539875457217443016,1037,1539875457217205800,base_link,-0.266613263723,0.2592030941,0.597842137837,-0.710152027275,1.0,0.0,0.0,0.0,1.0,0.0,0.0,0.0,1.0,0.0316185168922,-0.299064993858,-0.280427277088,1.21846967915e-07,0.0,0.0,0.0,1.21846967915e-07,0.0,0.0,0.0,1.21846967915e-07,0.30400615,0.93163175,14.6511351,9e-08,0.0,0.0,0.0,9e-08,0.0,0.0,0.0,9e-08
1539875457660435208,1038,1539875457660198088,base_link,0.239668541542,-0.291185284454,-0.659840289699,0.6499083877,1.0,0.0,0.0,0.0,1.0,0.0,0.0,0.0,1.0,-0.0229282770306,-0.302046835423,-0.259157598019,1.21846967915e-07,0.0,0.0,0.0,1.21846967915e-07,0.0,0.0,0.0,1.21846967915e-07,0.4118793,0.57859235,12.87613145,9e-08,0.0,0.0,0.0,9e-08,0.0,0.0,0.0,9e-08
1539875458099186920,1039,1539875458098893288,base_link,0.182123078503,-0.269260798631,-0.725753583097,0.606309774966,1.0,0.0,0.0,0.0,1.0,0.0,0.0,0.0,1.0,-0.228696510196,-0.189283832908,-0.321382462978,1.21846967915e-07,0.0,0.0,0.0,1.21846967915e-07,0.0,0.0,0.0,1.21846967915e-07,0.00980665,1.1179581,12.7290317,9e-08,0.0,0.0,0.0,9e-08,0.0,0.0,0.0,9e-08
1539875458585277800,1040,1539875458584966600,base_link,0.0924701960836,-0.206395155003,-0.789907423775,0.569996986565,1.0,0.0,0.0,0.0,1.0,0.0,0.0,0.0,1.0,-0.472753584385,-0.155728057027,-0.0894747078419,1.21846967915e-07,0.0,0.0,0.0,1.21846967915e-07,0.0,0.0,0.0,1.21846967915e-07,-0.0980665,0.5295591,12.34657235,9e-08,0.0,0.0,0.0,9e-08,0.0,0.0,0.0,9e-08
1539875458886076232,1041,1539875458885786120,base_link,0.039029700384,-0.142340199579,-0.813275375843,0.56284910333,1.0,0.0,0.0,0.0,1.0,0.0,0.0,0.0,1.0,-0.703668355942,0.0139272613451,-0.122739993036,1.21846967915e-07,0.0,0.0,0.0,1.21846967915e-07,0.0,0.0,0.0,1.21846967915e-07,-0.5687857,1.12776475,11.50320045,9e-08,0.0,0.0,0.0,9e-08,0.0,0.0,0.0,9e-08
1539875459336549160,1042,1539875459336332520,base_link,-0.0108689876571,-0.0339568844217,-0.845283035454,0.533127925625,1.0,0.0,0.0,0.0,1.0,0.0,0.0,0.0,1.0,-0.328325927258,0.0526910349727,-0.12992605567,1.21846967915e-07,0.0,0.0,0.0,1.21846967915e-07,0.0,0.0,0.0,1.21846967915e-07,-0.7256921,0.3334261,7.28634095,9e-08,0.0,0.0,0.0,9e-08,0.0,0.0,0.0,9e-08
1539875459687641864,1043,1539875459687253224,base_link,-0.025769406204,0.0041606784729,-0.849437536292,0.527043165591,1.0,0.0,0.0,0.0,1.0,0.0,0.0,0.0,1.0,-0.308147668839,0.0171440951526,0.031806807965,1.21846967915e-07,0.0,0.0,0.0,1.21846967915e-07,0.0,0.0,0.0,1.21846967915e-07,-0.9610517,0.392266,9.3751574,9e-08,0.0,0.0,0.0,9e-08,0.0,0.0,0.0,9e-08
1539875460086420648,1044,1539875460086215112,base_link,-0.0470889280274,0.0572329245728,-0.843794644678,0.531523868527,1.0,0.0,0.0,0.0,1.0,0.0,0.0,0.0,1.0,-0.171691298485,0.05647136271,0.0284816492349,1.21846967915e-07,0.0,0.0,0.0,1.21846967915e-07,0.0,0.0,0.0,1.21846967915e-07,-0.8825985,0.42168595,8.1983594,9e-08,0.0,0.0,0.0,9e-08,0.0,0.0,0.0,9e-08
1539875460581109768,1045,1539875460580687240,base_link,-0.0443464633349,0.0766791524226,-0.83459651905,0.543693249143,1.0,0.0,0.0,0.0,1.0,0.0,0.0,0.0,1.0,-0.0741534978151,0.0562667325139,0.12841655314,1.21846967915e-07,0.0,0.0,0.0,1.21846967915e-07,0.0,0.0,0.0,1.21846967915e-07,-0.57859235,0.1569064,8.6102387,9e-08,0.0,0.0,0.0,9e-08,0.0,0.0,0.0,9e-08
1539875460870887688,1046,1539875460870602536,base_link,-0.0390460423695,0.0915526147363,-0.824904250956,0.556440924147,1.0,0.0,0.0,0.0,1.0,0.0,0.0,0.0,1.0,0.0229695420712,0.0843597277999,0.0757451057434,1.21846967915e-07,0.0,0.0,0.0,1.21846967915e-07,0.0,0.0,0.0,1.21846967915e-07,-0.6080123,0.1765197,7.3353742,9e-08,0.0,0.0,0.0,9e-08,0.0,0.0,0.0,9e-08
1539875461273501384,1047,1539875461272680456,base_link,-0.0245636408141,0.0921718062799,-0.817377577559,0.568150403837,1.0,0.0,0.0,0.0,1.0,0.0,0.0,0.0,1.0,0.117433875799,0.0253889076412,0.0778183788061,1.21846967915e-07,0.0,0.0,0.0,1.21846967915e-07,0.0,0.0,0.0,1.21846967915e-07,-0.44129925,0.08825985,8.825985,9e-08,0.0,0.0,0.0,9e-08,0.0,0.0,0.0,9e-08
1539875461709736232,1048,1539875461704990216,base_link,-0.0127348187661,0.0886137015796,-0.80401151454,0.587835794053,1.0,0.0,0.0,0.0,1.0,0.0,0.0,0.0,1.0,0.107692785561,0.00740854535252,0.114886656404,1.21846967915e-07,0.0,0.0,0.0,1.21846967915e-07,0.0,0.0,0.0,1.21846967915e-07,-0.46091255,0.2549729,9.46341725,9e-08,0.0,0.0,0.0,9e-08,0.0,0.0,0.0,9e-08
1539875462075773288,1049,1539875462069693832,base_link,0.00183022378591,0.0617921190763,-0.794233639476,0.604459519096,1.0,0.0,0.0,0.0,1.0,0.0,0.0,0.0,1.0,-0.0270867906511,-0.0504252016544,0.126580089331,1.21846967915e-07,0.0,0.0,0.0,1.21846967915e-07,0.0,0.0,0.0,1.21846967915e-07,-0.10787315,0.3138128,11.3953273,9e-08,0.0,0.0,0.0,9e-08,0.0,0.0,0.0,9e-08
1539875462470908328,1050,1539875462469961128,base_link,-0.00366890300654,0.0596721932112,-0.781570482406,0.620945528642,1.0,0.0,0.0,0.0,1.0,0.0,0.0,0.0,1.0,0.023226596415,-0.0150875169784,0.0593776777387,1.21846967915e-07,0.0,0.0,0.0,1.21846967915e-07,0.0,0.0,0.0,1.21846967915e-07,0.0,0.18632635,9.6497436,9e-08,0.0,0.0,0.0,9e-08,0.0,0.0,0.0,9e-08
1539875462939599208,1051,1539875462939362152,base_link,-0.0154434221912,0.058529444533,-0.773563031997,0.630821718365,1.0,0.0,0.0,0.0,1.0,0.0,0.0,0.0,1.0,-0.152921691537,-0.0596794746816,0.0617929697037,1.21846967915e-07,0.0,0.0,0.0,1.21846967915e-07,0.0,0.0,0.0,1.21846967915e-07,0.1765197,0.3138128,10.81673495,9e-08,0.0,0.0,0.0,9e-08,0.0,0.0,0.0,9e-08
1539875463201725672,1052,1539875463201283944,base_link,-0.0196985276766,0.0486993171673,-0.767978470078,0.638317643507,1.0,0.0,0.0,0.0,1.0,0.0,0.0,0.0,1.0,0.214439168572,-0.115028314292,0.0564264915884,1.21846967915e-07,0.0,0.0,0.0,1.21846967915e-07,0.0,0.0,0.0,1.21846967915e-07,0.44129925,0.10787315,10.9246081,9e-08,0.0,0.0,0.0,9e-08,0.0,0.0,0.0,9e-08
1539875463655440040,1053,1539875463655020488,base_link,0.000194299452817,0.00523628318617,-0.757747550598,0.65252677581,1.0,0.0,0.0,0.0,1.0,0.0,0.0,0.0,1.0,0.0898901000619,-0.0733730867505,0.0496281906962,1.21846967915e-07,0.0,0.0,0.0,1.21846967915e-07,0.0,0.0,0.0,1.21846967915e-07,0.32361945,0.44129925,10.6107953,9e-08,0.0,0.0,0.0,9e-08,0.0,0.0,0.0,9e-08
1539875464014699816,1054,1539875464014263112,base_link,-0.00183847639653,-0.00970238007196,-0.756062582361,0.654424827906,1.0,0.0,0.0,0.0,1.0,0.0,0.0,0.0,1.0,0.169843569398,-0.042411532253,0.00249890540726,1.21846967915e-07,0.0,0.0,0.0,1.21846967915e-07,0.0,0.0,0.0,1.21846967915e-07,0.5099458,0.51975245,10.6304086,9e-08,0.0,0.0,0.0,9e-08,0.0,0.0,0.0,9e-08
1539875464321528072,1055,1539875464321139368,base_link,0.0156445896719,-0.0493338147283,-0.749686132162,0.659766719972,1.0,0.0,0.0,0.0,1.0,0.0,0.0,0.0,1.0,0.248248666525,-0.0554449446499,0.0315418802202,1.21846967915e-07,0.0,0.0,0.0,1.21846967915e-07,0.0,0.0,0.0,1.21846967915e-07,0.784532,0.7453054,11.9052731,9e-08,0.0,0.0,0.0,9e-08,0.0,0.0,0.0,9e-08
1539875464799509224,1056,1539875464799243496,base_link,0.0415409255474,-0.0981369067809,-0.75366331111,0.648563884686,1.0,0.0,0.0,0.0,1.0,0.0,0.0,0.0,1.0,0.431623637676,0.00423309858888,-0.12288723886,1.21846967915e-07,0.0,0.0,0.0,1.21846967915e-07,0.0,0.0,0.0,1.21846967915e-07,0.97085835,0.8237586,10.8265416,9e-08,0.0,0.0,0.0,9e-08,0.0,0.0,0.0,9e-08
1539875465324026248,1057,1539875465322669992,base_link,0.136541615311,-0.21071633286,-0.759633278593,0.599926909222,1.0,0.0,0.0,0.0,1.0,0.0,0.0,0.0,1.0,0.367315888405,-0.0903037786484,-0.150750771165,1.21846967915e-07,0.0,0.0,0.0,1.21846967915e-07,0.0,0.0,0.0,1.21846967915e-07,0.97085835,0.8825985,12.2386992,9e-08,0.0,0.0,0.0,9e-08,0.0,0.0,0.0,9e-08
1539875465804809352,1058,1539875465804114792,base_link,0.157550289603,-0.289742568574,-0.760865016259,0.558848438519,1.0,0.0,0.0,0.0,1.0,0.0,0.0,0.0,1.0,-0.138027265668,-0.217878997326,-0.105029642582,1.21846967915e-07,0.0,0.0,0.0,1.21846967915e-07,0.0,0.0,0.0,1.21846967915e-07,1.2356379,0.65704555,14.3569356,9e-08,0.0,0.0,0.0,9e-08,0.0,0.0,0.0,9e-08
1539875466112075368,1059,1539875466111676808,base_link,0.127667447468,-0.280653450749,-0.791743211508,0.527330399723,1.0,0.0,0.0,0.0,1.0,0.0,0.0,0.0,1.0,0.465345233679,-0.155182853341,-0.271394789219,1.21846967915e-07,0.0,0.0,0.0,1.21846967915e-07,0.0,0.0,0.0,1.21846967915e-07,2.0790098,0.5687857,16.9262779,9e-08,0.0,0.0,0.0,9e-08,0.0,0.0,0.0,9e-08
1539875466453945736,1060,1539875466453681384,base_link,0.14085096966,-0.327141732064,-0.797921446694,0.48627220401,1.0,0.0,0.0,0.0,1.0,0.0,0.0,0.0,1.0,0.0195604711771,-0.176139965653,-0.119987338781,1.21846967915e-07,0.0,0.0,0.0,1.21846967915e-07,0.0,0.0,0.0,1.21846967915e-07,1.6082906,0.36284605,12.2779258,9e-08,0.0,0.0,0.0,9e-08,0.0,0.0,0.0,9e-08
1539875466770113832,1061,1539875466769454376,base_link,0.121231603882,-0.321175667614,-0.817847462726,0.461816648104,1.0,0.0,0.0,0.0,1.0,0.0,0.0,0.0,1.0,0.0591437704861,-0.034818418324,-0.341983526945,1.21846967915e-07,0.0,0.0,0.0,1.21846967915e-07,0.0,0.0,0.0,1.21846967915e-07,1.1964113,2.75566865,15.09243435,9e-08,0.0,0.0,0.0,9e-08,0.0,0.0,0.0,9e-08
1539875467176312104,1062,1539875467175938152,base_link,0.142608362015,-0.296747178189,-0.868921038426,0.369567580155,1.0,0.0,0.0,0.0,1.0,0.0,0.0,0.0,1.0,-0.0422000512481,-0.0749700814486,-0.521612346172,1.21846967915e-07,0.0,0.0,0.0,1.21846967915e-07,0.0,0.0,0.0,1.21846967915e-07,0.71588545,1.0591182,9.26728425,9e-08,0.0,0.0,0.0,9e-08,0.0,0.0,0.0,9e-08
1539875467433370792,1063,1539875467433044968,base_link,0.13616315013,-0.261829677825,-0.901413504362,0.316794113755,1.0,0.0,0.0,0.0,1.0,0.0,0.0,0.0,1.0,-0.317544609308,-0.154576778412,-0.452289909124,1.21846967915e-07,0.0,0.0,0.0,1.21846967915e-07,0.0,0.0,0.0,1.21846967915e-07,0.4707192,1.0198916,7.42363405,9e-08,0.0,0.0,0.0,9e-08,0.0,0.0,0.0,9e-08
1539875467881982152,1064,1539875467881647336,base_link,0.138865863235,-0.275299652347,-0.918756254734,0.246603564112,1.0,0.0,0.0,0.0,1.0,0.0,0.0,0.0,1.0,0.718095481396,-0.168884441257,-0.222378119826,1.21846967915e-07,0.0,0.0,0.0,1.21846967915e-07,0.0,0.0,0.0,1.21846967915e-07,0.08825985,0.55897905,8.9632781,9e-08,0.0,0.0,0.0,9e-08,0.0,0.0,0.0,9e-08
1539875468216479016,1065,1539875468216171496,base_link,0.125809313892,-0.350392929205,-0.908799215993,0.188363469684,1.0,0.0,0.0,0.0,1.0,0.0,0.0,0.0,1.0,0.303832113743,-0.367970883846,-0.169154107571,1.21846967915e-07,0.0,0.0,0.0,1.21846967915e-07,0.0,0.0,0.0,1.21846967915e-07,0.2353596,0.8433719,11.9444997,9e-08,0.0,0.0,0.0,9e-08,0.0,0.0,0.0,9e-08
1539875468600925800,1066,1539875468600290824,base_link,0.0766931067873,-0.378118022408,-0.914163382882,0.124298985917,1.0,0.0,0.0,0.0,1.0,0.0,0.0,0.0,1.0,-0.0940518677235,-0.359800696373,-0.269332289696,1.21846967915e-07,0.0,0.0,0.0,1.21846967915e-07,0.0,0.0,0.0,1.21846967915e-07,1.40235095,1.4317709,15.3768272,9e-08,0.0,0.0,0.0,9e-08,0.0,0.0,0.0,9e-08
1539875469118997224,1067,1539875469117988328,base_link,0.0258494227433,-0.380058652714,-0.924591918123,0.00412465547478,1.0,0.0,0.0,0.0,1.0,0.0,0.0,0.0,1.0,-0.087922796607,-0.379898875952,-0.41147851944,1.21846967915e-07,0.0,0.0,0.0,1.21846967915e-07,0.0,0.0,0.0,1.21846967915e-07,1.28467115,0.95124505,16.46536535,9e-08,0.0,0.0,0.0,9e-08,0.0,0.0,0.0,9e-08
1539875469497575432,1068,1539875469497310056,base_link,-0.0283202535775,-0.378425384625,-0.921497330293,-0.0826732228235,1.0,0.0,0.0,0.0,1.0,0.0,0.0,0.0,1.0,0.143836200237,-0.454346358776,-0.206695705652,1.21846967915e-07,0.0,0.0,0.0,1.21846967915e-07,0.0,0.0,0.0,1.21846967915e-07,1.28467115,0.9022118,18.240369,9e-08,0.0,0.0,0.0,9e-08,0.0,0.0,0.0,9e-08
1539875469874903016,1069,1539875469874363496,base_link,-0.0874565856102,-0.355019857383,-0.9182582699,-0.152032878867,1.0,0.0,0.0,0.0,1.0,0.0,0.0,0.0,1.0,-0.529456377029,-0.374952733517,-0.254145175219,1.21846967915e-07,0.0,0.0,0.0,1.21846967915e-07,0.0,0.0,0.0,1.21846967915e-07,1.18660465,1.372931,17.23028405,9e-08,0.0,0.0,0.0,9e-08,0.0,0.0,0.0,9e-08
1539875470321776168,1070,1539875470321517928,base_link,-0.087298594175,-0.209141081952,-0.945312596417,-0.234569943409,1.0,0.0,0.0,0.0,1.0,0.0,0.0,0.0,1.0,-0.796580612659,-0.145066961646,-0.296158075333,1.21846967915e-07,0.0,0.0,0.0,1.21846967915e-07,0.0,0.0,0.0,1.21846967915e-07,0.5491724,1.0591182,15.36702055,9e-08,0.0,0.0,0.0,9e-08,0.0,0.0,0.0,9e-08
1539875470629143912,1071,1539875470628845736,base_link,-0.0487973612337,-0.0852765250496,-0.954345461379,-0.282084157936,1.0,0.0,0.0,0.0,1.0,0.0,0.0,0.0,1.0,-0.765944361687,0.0577369295061,-0.1945425421,1.21846967915e-07,0.0,0.0,0.0,1.21846967915e-07,0.0,0.0,0.0,1.21846967915e-07,-0.44129925,0.9414384,8.34545915,9e-08,0.0,0.0,0.0,9e-08,0.0,0.0,0.0,9e-08
1539875471064285608,1072,1539875471064001032,base_link,-0.0353599076895,-0.0572135567792,-0.953060614046,-0.295214755396,1.0,0.0,0.0,0.0,1.0,0.0,0.0,0.0,1.0,0.342757731676,0.0278170015663,0.0425773747265,1.21846967915e-07,0.0,0.0,0.0,1.21846967915e-07,0.0,0.0,0.0,1.21846967915e-07,-0.4903325,0.4511059,7.07059465,9e-08,0.0,0.0,0.0,9e-08,0.0,0.0,0.0,9e-08
1539875471528311752,1073,1539875471527841960,base_link,0.0207149490661,0.0508501974231,-0.956193997827,-0.287538148474,1.0,0.0,0.0,0.0,1.0,0.0,0.0,0.0,1.0,-0.452591538429,0.257403761148,-0.0503138266504,1.21846967915e-07,0.0,0.0,0.0,1.21846967915e-07,0.0,0.0,0.0,1.21846967915e-07,-0.59820565,1.3140911,4.69738535,9e-08,0.0,0.0,0.0,9e-08,0.0,0.0,0.0,9e-08
1539875471790418664,1074,1539875471790173352,base_link,0.0553279771524,0.101605555364,-0.947197688222,-0.299051275688,1.0,0.0,0.0,0.0,1.0,0.0,0.0,0.0,1.0,-0.279207199812,0.169321551919,-0.0767790451646,1.21846967915e-07,0.0,0.0,0.0,1.21846967915e-07,0.0,0.0,0.0,1.21846967915e-07,-0.85317855,0.2157463,7.8060934,9e-08,0.0,0.0,0.0,9e-08,0.0,0.0,0.0,9e-08
1539875472190706760,1075,1539875472190367656,base_link,0.0899305306912,0.137282362652,-0.947102975821,-0.275793411354,1.0,0.0,0.0,0.0,1.0,0.0,0.0,0.0,1.0,-0.117660060525,0.075778529048,0.188913404942,1.21846967915e-07,0.0,0.0,0.0,1.21846967915e-07,0.0,0.0,0.0,1.21846967915e-07,-1.14737805,0.48052585,4.71699865,9e-08,0.0,0.0,0.0,9e-08,0.0,0.0,0.0,9e-08
1539875472486955816,1076,1539875472486688264,base_link,0.102459956864,0.148026220827,-0.950119336844,-0.254683020523,1.0,0.0,0.0,0.0,1.0,0.0,0.0,0.0,1.0,0.104973569512,0.043334916234,0.131459102035,1.21846967915e-07,0.0,0.0,0.0,1.21846967915e-07,0.0,0.0,0.0,1.21846967915e-07,-0.93163175,0.46091255,8.12971285,9e-08,0.0,0.0,0.0,9e-08,0.0,0.0,0.0,9e-08
1539875472832769800,1077,1539875472831850376,base_link,0.0928810422257,0.106154941669,-0.959921021387,-0.242189745972,1.0,0.0,0.0,0.0,1.0,0.0,0.0,0.0,1.0,0.417127400637,0.00535695301369,0.100915841758,1.21846967915e-07,0.0,0.0,0.0,1.21846967915e-07,0.0,0.0,0.0,1.21846967915e-07,-0.392266,-0.02941995,12.26811915,9e-08,0.0,0.0,0.0,9e-08,0.0,0.0,0.0,9e-08
1539875473134171752,1078,1539875473133124328,base_link,0.0970449909853,0.0967095350593,-0.96659098647,-0.216636563,1.0,0.0,0.0,0.0,1.0,0.0,0.0,0.0,1.0,-0.189008355141,0.0176618564874,0.20607252419,1.21846967915e-07,0.0,0.0,0.0,1.21846967915e-07,0.0,0.0,0.0,1.21846967915e-07,-0.75511205,0.12748645,11.93469305,9e-08,0.0,0.0,0.0,9e-08,0.0,0.0,0.0,9e-08
1539875473565814760,1079,1539875473565483144,base_link,0.11652228028,0.119208742457,-0.964362968543,-0.205465079326,1.0,0.0,0.0,0.0,1.0,0.0,0.0,0.0,1.0,0.204537138343,0.0544520318508,-0.0939345657825,1.21846967915e-07,0.0,0.0,0.0,1.21846967915e-07,0.0,0.0,0.0,1.21846967915e-07,-0.95124505,0.392266,1.0787315,9e-08,0.0,0.0,0.0,9e-08,0.0,0.0,0.0,9e-08
1539875474018232808,1080,1539875474017785672,base_link,0.0890624294518,0.0538094073064,-0.972511561607,-0.208311530851,1.0,0.0,0.0,0.0,1.0,0.0,0.0,0.0,1.0,0.212977960706,-0.0950471460819,0.177583411336,1.21846967915e-07,0.0,0.0,0.0,1.21846967915e-07,0.0,0.0,0.0,1.21846967915e-07,-1.0787315,-0.3530394,10.0616229,9e-08,0.0,0.0,0.0,9e-08,0.0,0.0,0.0,9e-08
1539875474462981512,1081,1539875474462242056,base_link,0.0627658370073,0.0548924232126,-0.984811453383,-0.152294690861,1.0,0.0,0.0,0.0,1.0,0.0,0.0,0.0,1.0,-0.166093200445,-0.133680775762,0.187255695462,1.21846967915e-07,0.0,0.0,0.0,1.21846967915e-07,0.0,0.0,0.0,1.21846967915e-07,-0.65704555,0.34323275,11.8856598,9e-08,0.0,0.0,0.0,9e-08,0.0,0.0,0.0,9e-08
1539875474780376168,1082,1539875474780061736,base_link,0.0465827449663,0.0690143815672,-0.987421349552,-0.134410347282,1.0,0.0,0.0,0.0,1.0,0.0,0.0,0.0,1.0,0.0137906819582,-0.143519461155,0.0433016568422,1.21846967915e-07,0.0,0.0,0.0,1.21846967915e-07,0.0,0.0,0.0,1.21846967915e-07,-0.392266,0.3530394,12.32695905,9e-08,0.0,0.0,0.0,9e-08,0.0,0.0,0.0,9e-08
1539875475177665128,1083,1539875475177458120,base_link,0.0185815127412,0.0469497856771,-0.992670700232,-0.109796748175,1.0,0.0,0.0,0.0,1.0,0.0,0.0,0.0,1.0,0.125683695078,-0.0983139500022,0.14687897265,1.21846967915e-07,0.0,0.0,0.0,1.21846967915e-07,0.0,0.0,0.0,1.21846967915e-07,-0.20593965,0.2941995,12.0817928,9e-08,0.0,0.0,0.0,9e-08,0.0,0.0,0.0,9e-08
1539875475508979176,1084,1539875475508681608,base_link,-6.14135442612e-05,0.0450315480919,-0.994937105683,-0.0898460440948,1.0,0.0,0.0,0.0,1.0,0.0,0.0,0.0,1.0,0.0351142212749,-0.0781591460109,0.0479360446334,1.21846967915e-07,0.0,0.0,0.0,1.21846967915e-07,0.0,0.0,0.0,1.21846967915e-07,0.10787315,0.59820565,11.964113,9e-08,0.0,0.0,0.0,9e-08,0.0,0.0,0.0,9e-08
1539875475797934920,1085,1539875475797631176,base_link,-0.0109574950068,0.0218913616619,-0.995984506736,-0.0861136686531,1.0,0.0,0.0,0.0,1.0,0.0,0.0,0.0,1.0,0.248724266887,-0.0588441193104,0.00707529718056,1.21846967915e-07,0.0,0.0,0.0,1.21846967915e-07,0.0,0.0,0.0,1.21846967915e-07,0.0,0.59820565,12.32695905,9e-08,0.0,0.0,0.0,9e-08,0.0,0.0,0.0,9e-08
1539875476101547912,1086,1539875476101272296,base_link,-0.018612721873,0.00684078976101,-0.996006763242,-0.0870476751948,1.0,0.0,0.0,0.0,1.0,0.0,0.0,0.0,1.0,0.142142951488,-0.0192772522569,-0.0139102209359,1.21846967915e-07,0.0,0.0,0.0,1.21846967915e-07,0.0,0.0,0.0,1.21846967915e-07,-0.04903325,0.1372931,12.79767825,9e-08,0.0,0.0,0.0,9e-08,0.0,0.0,0.0,9e-08
1539875476532110888,1087,1539875476531337416,base_link,-0.0238599385179,-0.025306982655,-0.996689478142,-0.073487033708,1.0,0.0,0.0,0.0,1.0,0.0,0.0,0.0,1.0,0.0230841636658,-0.0113515891135,0.0366977900267,1.21846967915e-07,0.0,0.0,0.0,1.21846967915e-07,0.0,0.0,0.0,1.21846967915e-07,-0.196133,0.61781895,11.571847,9e-08,0.0,0.0,0.0,9e-08,0.0,0.0,0.0,9e-08
1539875476933966824,1088,1539875476933600776,base_link,-0.0210474515783,-0.0438652167036,-0.996551901385,-0.0672097864254,1.0,0.0,0.0,0.0,1.0,0.0,0.0,0.0,1.0,0.134021773934,0.0358627438545,0.0328045301139,1.21846967915e-07,0.0,0.0,0.0,1.21846967915e-07,0.0,0.0,0.0,1.21846967915e-07,-0.26477955,0.3530394,8.87501825,9e-08,0.0,0.0,0.0,9e-08,0.0,0.0,0.0,9e-08
1539875477421321928,1089,1539875477420957416,base_link,-0.00756639636411,-0.0757002144871,-0.995018859768,-0.0644181331533,1.0,0.0,0.0,0.0,1.0,0.0,0.0,0.0,1.0,0.109750397503,0.079174220562,-0.0869054272771,1.21846967915e-07,0.0,0.0,0.0,1.21846967915e-07,0.0,0.0,0.0,1.21846967915e-07,-0.02941995,0.7453054,8.8848249,9e-08,0.0,0.0,0.0,9e-08,0.0,0.0,0.0,9e-08
1539875477896180552,1090,1539875477895652232,base_link,0.013374825606,-0.093943601854,-0.990605844767,-0.0984671215374,1.0,0.0,0.0,0.0,1.0,0.0,0.0,0.0,1.0,0.059623233974,0.0579824857414,-0.173579186201,1.21846967915e-07,0.0,0.0,0.0,1.21846967915e-07,0.0,0.0,0.0,1.21846967915e-07,-0.26477955,0.63743225,7.40402075,9e-08,0.0,0.0,0.0,9e-08,0.0,0.0,0.0,9e-08
1539875478212990376,1091,1539875478212736104,base_link,0.0161893834233,-0.101166186487,-0.987432505307,-0.120334342728,1.0,0.0,0.0,0.0,1.0,0.0,0.0,0.0,1.0,-0.0096664391458,0.00185116857756,-0.0773990526795,1.21846967915e-07,0.0,0.0,0.0,1.21846967915e-07,0.0,0.0,0.0,1.21846967915e-07,-0.12748645,0.1176798,9.44380395,9e-08,0.0,0.0,0.0,9e-08,0.0,0.0,0.0,9e-08
1539875478586592264,1092,1539875478585962184,base_link,0.00748095105608,-0.0940294437197,-0.989302515796,-0.111279069573,1.0,0.0,0.0,0.0,1.0,0.0,0.0,0.0,1.0,-0.0885626226664,-0.043503344059,0.0925672128797,1.21846967915e-07,0.0,0.0,0.0,1.21846967915e-07,0.0,0.0,0.0,1.21846967915e-07,-0.0784532,0.48052585,10.395049,9e-08,0.0,0.0,0.0,9e-08,0.0,0.0,0.0,9e-08
1539875478862701928,1093,1539875478862397800,base_link,0.00517312849204,-0.0687899544558,-0.991681006379,-0.108673651334,1.0,0.0,0.0,0.0,1.0,0.0,0.0,0.0,1.0,-0.220193713903,-0.0296104103327,-0.0407042726874,1.21846967915e-07,0.0,0.0,0.0,1.21846967915e-07,0.0,0.0,0.0,1.21846967915e-07,0.26477955,0.5099458,10.1400761,9e-08,0.0,0.0,0.0,9e-08,0.0,0.0,0.0,9e-08
1539875479225059496,1094,1539875479223934408,base_link,0.00751072580415,-0.0394725724149,-0.991159032691,-0.126448712685,1.0,0.0,0.0,0.0,1.0,0.0,0.0,0.0,1.0,-0.0945250093937,-0.00282405829057,-0.174269080162,1.21846967915e-07,0.0,0.0,0.0,1.21846967915e-07,0.0,0.0,0.0,1.21846967915e-07,0.26477955,0.87279185,10.2185293,9e-08,0.0,0.0,0.0,9e-08,0.0,0.0,0.0,9e-08
1539875479521810344,1095,1539875479521513416,base_link,0.00414735180728,-0.0560359360965,-0.988181694653,-0.142617361114,1.0,0.0,0.0,0.0,1.0,0.0,0.0,0.0,1.0,0.225443452597,-0.0316297411919,-0.0500699430704,1.21846967915e-07,0.0,0.0,0.0,1.21846967915e-07,0.0,0.0,0.0,1.21846967915e-07,0.0588399,0.02941995,9.2770909,9e-08,0.0,0.0,0.0,9e-08,0.0,0.0,0.0,9e-08
1539875479990302184,1096,1539875479989678824,base_link,-0.0158443332674,-0.047455475227,-0.991986087358,-0.116019556377,1.0,0.0,0.0,0.0,1.0,0.0,0.0,0.0,1.0,-0.298826813698,-0.0460333265364,0.11100640893,1.21846967915e-07,0.0,0.0,0.0,1.21846967915e-07,0.0,0.0,0.0,1.21846967915e-07,0.65704555,0.9218251,11.66010685,9e-08,0.0,0.0,0.0,9e-08,0.0,0.0,0.0,9e-08
1539875480379140104,1097,1539875480378834600,base_link,-0.0115068507037,-0.00866341651937,-0.992496394564,-0.121422585948,1.0,0.0,0.0,0.0,1.0,0.0,0.0,0.0,1.0,-0.0827471390367,0.0513774529099,-0.108801566064,1.21846967915e-07,0.0,0.0,0.0,1.21846967915e-07,0.0,0.0,0.0,1.21846967915e-07,0.50013915,0.63743225,10.89518815,9e-08,0.0,0.0,0.0,9e-08,0.0,0.0,0.0,9e-08
1539875480723826760,1098,1539875480722728584,base_link,-0.00899236203565,0.0110218519479,-0.990256143731,-0.138529513128,1.0,0.0,0.0,0.0,1.0,0.0,0.0,0.0,1.0,-0.123766005039,0.0128116169944,-0.0403744243085,1.21846967915e-07,0.0,0.0,0.0,1.21846967915e-07,0.0,0.0,0.0,1.21846967915e-07,0.04903325,0.20593965,11.38552065,9e-08,0.0,0.0,0.0,9e-08,0.0,0.0,0.0,9e-08
1539875481099594536,1099,1539875481099317992,base_link,-0.00653629185533,0.00605665645796,-0.992319515516,-0.123379791407,1.0,0.0,0.0,0.0,1.0,0.0,0.0,0.0,1.0,0.0851140394807,0.0171919781715,0.0925449728966,1.21846967915e-07,0.0,0.0,0.0,1.21846967915e-07,0.0,0.0,0.0,1.21846967915e-07,0.04903325,0.3530394,9.3751574,9e-08,0.0,0.0,0.0,9e-08,0.0,0.0,0.0,9e-08
1539875481394234056,1100,1539875481393930184,base_link,-0.00477242656719,-0.00792975409568,-0.993333174113,-0.114906693237,1.0,0.0,0.0,0.0,1.0,0.0,0.0,0.0,1.0,0.129022106528,0.0418919250369,0.0477376878262,1.21846967915e-07,0.0,0.0,0.0,1.21846967915e-07,0.0,0.0,0.0,1.21846967915e-07,-0.0980665,0.2745862,10.1596894,9e-08,0.0,0.0,0.0,9e-08,0.0,0.0,0.0,9e-08
1539875481804576136,1101,1539875481801754152,base_link,0.00387871762754,-0.00322525515904,-0.994747389841,-0.102235921688,1.0,0.0,0.0,0.0,1.0,0.0,0.0,0.0,1.0,-0.273184031248,0.0572975724936,0.0386405698955,1.21846967915e-07,0.0,0.0,0.0,1.21846967915e-07,0.0,0.0,0.0,1.21846967915e-07,-0.28439285,0.26477955,9.52225715,9e-08,0.0,0.0,0.0,9e-08,0.0,0.0,0.0,9e-08
1539875482244853608,1102,1539875482243746056,base_link,0.00984720019415,-0.0239868273022,-0.99699640639,-0.0729782872513,1.0,0.0,0.0,0.0,1.0,0.0,0.0,0.0,1.0,0.0857941433787,0.0688931420445,0.15795764327,1.21846967915e-07,0.0,0.0,0.0,1.21846967915e-07,0.0,0.0,0.0,1.21846967915e-07,-0.10787315,-0.0980665,9.7870367,9e-08,0.0,0.0,0.0,9e-08,0.0,0.0,0.0,9e-08
1539875482605855944,1103,1539875482605163944,base_link,0.0259009907372,-0.025631746401,-0.99755957699,-0.0595570534032,1.0,0.0,0.0,0.0,1.0,0.0,0.0,0.0,1.0,0.042539216578,0.149453997612,-0.0938141867518,1.21846967915e-07,0.0,0.0,0.0,1.21846967915e-07,0.0,0.0,0.0,1.21846967915e-07,-0.36284605,0.67665885,9.11037785,9e-08,0.0,0.0,0.0,9e-08,0.0,0.0,0.0,9e-08
1539875482961780936,1104,1539875482960589288,base_link,0.041948354195,-0.0304763015852,-0.995954908883,-0.0733849446013,1.0,0.0,0.0,0.0,1.0,0.0,0.0,0.0,1.0,-0.00887242145836,0.0855116471648,-0.0528924576938,1.21846967915e-07,0.0,0.0,0.0,1.21846967915e-07,0.0,0.0,0.0,1.21846967915e-07,-0.7256921,0.24516625,6.3154826,9e-08,0.0,0.0,0.0,9e-08,0.0,0.0,0.0,9e-08
1539875483367009288,1105,1539875483366637320,base_link,0.0456951456111,-0.0655605964629,-0.994026108378,-0.0743361131783,1.0,0.0,0.0,0.0,1.0,0.0,0.0,0.0,1.0,0.22702679038,0.0150412181392,0.151903927326,1.21846967915e-07,0.0,0.0,0.0,1.21846967915e-07,0.0,0.0,0.0,1.21846967915e-07,-0.40207265,-0.20593965,9.01231135,9e-08,0.0,0.0,0.0,9e-08,0.0,0.0,0.0,9e-08
1539875483649879848,1106,1539875483649634984,base_link,0.0466004008632,-0.0735791794343,-0.99462503973,-0.0559958689187,1.0,0.0,0.0,0.0,1.0,0.0,0.0,0.0,1.0,-0.0669900923967,0.0398242995143,0.0738155990839,1.21846967915e-07,0.0,0.0,0.0,1.21846967915e-07,0.0,0.0,0.0,1.21846967915e-07,-0.3530394,0.7060788,8.48275225,9e-08,0.0,0.0,0.0,9e-08,0.0,0.0,0.0,9e-08
1539875483948085992,1107,1539875483947816552,base_link,0.0507437300009,-0.0439651621558,-0.996271337886,-0.0541808055396,1.0,0.0,0.0,0.0,1.0,0.0,0.0,0.0,1.0,-0.324190616608,0.0301240496337,-0.0688280686736,1.21846967915e-07,0.0,0.0,0.0,1.21846967915e-07,0.0,0.0,0.0,1.21846967915e-07,-0.02941995,1.04931155,10.65982855,9e-08,0.0,0.0,0.0,9e-08,0.0,0.0,0.0,9e-08
1539875484394244392,1108,1539875484393896648,base_link,0.0521942718322,-0.0746369927224,-0.992669072064,-0.0794555893174,1.0,0.0,0.0,0.0,1.0,0.0,0.0,0.0,1.0,0.273379147053,-0.0155245605856,-0.0222358871251,1.21846967915e-07,0.0,0.0,0.0,1.21846967915e-07,0.0,0.0,0.0,1.21846967915e-07,0.0980665,0.12748645,8.87501825,9e-08,0.0,0.0,0.0,9e-08,0.0,0.0,0.0,9e-08
1539875484709749992,1109,1539875484709050216,base_link,0.0317184389943,-0.0373838422572,-0.996509286371,-0.067569454213,1.0,0.0,0.0,0.0,1.0,0.0,0.0,0.0,1.0,-0.0165910720825,-0.0789350271225,0.064089089632,1.21846967915e-07,0.0,0.0,0.0,1.21846967915e-07,0.0,0.0,0.0,1.21846967915e-07,0.196133,0.28439285,15.5729602,9e-08,0.0,0.0,0.0,9e-08,0.0,0.0,0.0,9e-08
1539875485048234888,1110,1539875485047890856,base_link,0.0118060830202,-0.0198373659395,-0.998113912712,-0.0568833241491,1.0,0.0,0.0,0.0,1.0,0.0,0.0,0.0,1.0,0.10986033082,-0.0928711444139,0.0260410122573,1.21846967915e-07,0.0,0.0,0.0,1.21846967915e-07,0.0,0.0,0.0,1.21846967915e-07,0.02941995,0.3138128,13.9058297,9e-08,0.0,0.0,0.0,9e-08,0.0,0.0,0.0,9e-08
1539875485470613960,1111,1539875485470292808,base_link,0.00275405430206,-0.011439716903,-0.998836217695,-0.0467734784042,1.0,0.0,0.0,0.0,1.0,0.0,0.0,0.0,1.0,-0.0732401236892,0.0164223499596,0.0753767862916,1.21846967915e-07,0.0,0.0,0.0,1.21846967915e-07,0.0,0.0,0.0,1.21846967915e-07,-0.44129925,0.36284605,11.95430635,9e-08,0.0,0.0,0.0,9e-08,0.0,0.0,0.0,9e-08
1539875485831459784,1112,1539875485831216008,base_link,0.0104720059115,-0.0121642289147,-0.999237912136,-0.0355803819199,1.0,0.0,0.0,0.0,1.0,0.0,0.0,0.0,1.0,0.0784521400928,0.0833295285702,0.0624572783709,1.21846967915e-07,0.0,0.0,0.0,1.21846967915e-07,0.0,0.0,0.0,1.21846967915e-07,-0.6080123,0.10787315,9.5909037,9e-08,0.0,0.0,0.0,9e-08,0.0,0.0,0.0,9e-08
1539875486272142280,1113,1539875486270313960,base_link,0.0219118583649,-0.0549947518342,-0.997529026787,-0.0378323730571,1.0,0.0,0.0,0.0,1.0,0.0,0.0,0.0,1.0,-0.0423840768635,-0.0185310989618,-0.00805591698736,1.21846967915e-07,0.0,0.0,0.0,1.21846967915e-07,0.0,0.0,0.0,1.21846967915e-07,-0.7256921,0.2549729,10.60098865,9e-08,0.0,0.0,0.0,9e-08,0.0,0.0,0.0,9e-08
1539875486609509512,1114,1539875486609283080,base_link,0.0294526814472,-0.045429873263,-0.997437306494,-0.0467705653761,1.0,0.0,0.0,0.0,1.0,0.0,0.0,0.0,1.0,0.10746909678,0.0679315775633,-0.0759021416306,1.21846967915e-07,0.0,0.0,0.0,1.21846967915e-07,0.0,0.0,0.0,1.21846967915e-07,-0.6668522,0.4118793,9.50264385,9e-08,0.0,0.0,0.0,9e-08,0.0,0.0,0.0,9e-08
1539875486996694120,1115,1539875486996373768,base_link,0.0348991391342,-0.129675264573,-0.988744118162,-0.0659654807187,1.0,0.0,0.0,0.0,1.0,0.0,0.0,0.0,1.0,0.373196482658,0.015249104239,-0.070025138557,1.21846967915e-07,0.0,0.0,0.0,1.21846967915e-07,0.0,0.0,0.0,1.21846967915e-07,-0.69627215,0.32361945,8.8652116,9e-08,0.0,0.0,0.0,9e-08,0.0,0.0,0.0,9e-08
1539875487314986824,1116,1539875487310235912,base_link,0.0338540231811,-0.186484992071,-0.978869282303,-0.0767605433215,1.0,0.0,0.0,0.0,1.0,0.0,0.0,0.0,1.0,0.192941561341,0.0262973643839,-0.0129912206903,1.21846967915e-07,0.0,0.0,0.0,1.21846967915e-07,0.0,0.0,0.0,1.21846967915e-07,-0.44129925,0.06864655,9.75761675,9e-08,0.0,0.0,0.0,9e-08,0.0,0.0,0.0,9e-08
1539875487619902152,1117,1539875487619692136,base_link,0.0299141489259,-0.21476147266,-0.972253677429,-0.0877806372774,1.0,0.0,0.0,0.0,1.0,0.0,0.0,0.0,1.0,0.0518339984119,-0.0906277596951,-0.175663813949,1.21846967915e-07,0.0,0.0,0.0,1.21846967915e-07,0.0,0.0,0.0,1.21846967915e-07,-0.2745862,1.04931155,8.77695175,9e-08,0.0,0.0,0.0,9e-08,0.0,0.0,0.0,9e-08
1539875488009663560,1118,1539875488009418280,base_link,0.0255898391161,-0.247898540842,-0.958814613827,-0.136257146213,1.0,0.0,0.0,0.0,1.0,0.0,0.0,0.0,1.0,0.345220118761,-0.0513473376632,-0.244978055358,1.21846967915e-07,0.0,0.0,0.0,1.21846967915e-07,0.0,0.0,0.0,1.21846967915e-07,-0.26477955,0.8629852,9.40457735,9e-08,0.0,0.0,0.0,9e-08,0.0,0.0,0.0,9e-08
1539875488312412136,1119,1539875488312116232,base_link,0.0124128634606,-0.298271244627,-0.936337226116,-0.18480471974,1.0,0.0,0.0,0.0,1.0,0.0,0.0,0.0,1.0,0.289329469204,-0.185084030032,-0.292800456285,1.21846967915e-07,0.0,0.0,0.0,1.21846967915e-07,0.0,0.0,0.0,1.21846967915e-07,0.24516625,0.50013915,9.9047165,9e-08,0.0,0.0,0.0,9e-08,0.0,0.0,0.0,9e-08
1539875488766390280,1120,1539875488766131912,base_link,-0.0102342930538,-0.24889874184,-0.93410452485,-0.255721356581,1.0,0.0,0.0,0.0,1.0,0.0,0.0,0.0,1.0,-0.32795342803,-0.201961711049,-0.327699631453,1.21846967915e-07,0.0,0.0,0.0,1.21846967915e-07,0.0,0.0,0.0,1.21846967915e-07,0.91201845,1.0002783,12.64077185,9e-08,0.0,0.0,0.0,9e-08,0.0,0.0,0.0,9e-08
1539875489099274056,1121,1539875489097907368,base_link,-0.0375142241483,-0.212580926925,-0.93053360562,-0.295819609401,1.0,0.0,0.0,0.0,1.0,0.0,0.0,0.0,1.0,0.0865582153201,-0.313380986452,-0.00639890320599,1.21846967915e-07,0.0,0.0,0.0,1.21846967915e-07,0.0,0.0,0.0,1.21846967915e-07,1.28467115,-0.14709975,18.8876079,9e-08,0.0,0.0,0.0,9e-08,0.0,0.0,0.0,9e-08
1539875489425906568,1122,1539875489425629128,base_link,-0.0704793765219,-0.213412649797,-0.927094604136,-0.299972154331,1.0,0.0,0.0,0.0,1.0,0.0,0.0,0.0,1.0,-0.044017508626,-0.0873795151711,-0.118283949792,1.21846967915e-07,0.0,0.0,0.0,1.21846967915e-07,0.0,0.0,0.0,1.21846967915e-07,0.1765197,1.24544455,13.17033095,9e-08,0.0,0.0,0.0,9e-08,0.0,0.0,0.0,9e-08
1539875489742943560,1123,1539875489742165416,base_link,-0.0730403517255,-0.229601576526,-0.909112678688,-0.339797528722,1.0,0.0,0.0,0.0,1.0,0.0,0.0,0.0,1.0,0.129849746823,-0.068682000041,-0.39386087656,1.21846967915e-07,0.0,0.0,0.0,1.21846967915e-07,0.0,0.0,0.0,1.21846967915e-07,0.2157463,0.9610517,10.67944185,9e-08,0.0,0.0,0.0,9e-08,0.0,0.0,0.0,9e-08
1539875490166769896,1124,1539875490163476776,base_link,-0.0803767796666,-0.254818246235,-0.875628043335,-0.402346572498,1.0,0.0,0.0,0.0,1.0,0.0,0.0,0.0,1.0,0.223962813616,-0.0498122125864,-0.317702740431,1.21846967915e-07,0.0,0.0,0.0,1.21846967915e-07,0.0,0.0,0.0,1.21846967915e-07,-0.44129925,1.10815145,9.93413645,9e-08,0.0,0.0,0.0,9e-08,0.0,0.0,0.0,9e-08
1539875490679662664,1125,1539875490678924232,base_link,-0.116971379154,-0.304875153487,-0.819645888278,-0.470690402573,1.0,0.0,0.0,0.0,1.0,0.0,0.0,0.0,1.0,0.231709197164,-0.181371495128,-0.313786417246,1.21846967915e-07,0.0,0.0,0.0,1.21846967915e-07,0.0,0.0,0.0,1.21846967915e-07,-0.6864655,0.95124505,9.65955025,9e-08,0.0,0.0,0.0,9e-08,0.0,0.0,0.0,9e-08
1539875491098938408,1126,1539875491098630600,base_link,-0.138533925098,-0.286772133415,-0.782388857464,-0.535198814282,1.0,0.0,0.0,0.0,1.0,0.0,0.0,0.0,1.0,-0.0494687221944,-0.209413841367,-0.242024421692,1.21846967915e-07,0.0,0.0,0.0,1.21846967915e-07,0.0,0.0,0.0,1.21846967915e-07,-0.5099458,0.51975245,13.28801075,9e-08,0.0,0.0,0.0,9e-08,0.0,0.0,0.0,9e-08
1539875491474384648,1127,1539875491474027496,base_link,-0.167767950311,-0.28585656836,-0.746364445355,-0.577130879337,1.0,0.0,0.0,0.0,1.0,0.0,0.0,0.0,1.0,-0.176973879337,-0.216825678945,-0.185140147805,1.21846967915e-07,0.0,0.0,0.0,1.21846967915e-07,0.0,0.0,0.0,1.21846967915e-07,-0.5295591,0.61781895,12.52309205,9e-08,0.0,0.0,0.0,9e-08,0.0,0.0,0.0,9e-08
1539875491841024296,1128,1539875491840609128,base_link,-0.139582774268,-0.223542029573,-0.735582012627,-0.62407107996,1.0,0.0,0.0,0.0,1.0,0.0,0.0,0.0,1.0,-0.557744622231,-0.100581474602,-0.27937027812,1.21846967915e-07,0.0,0.0,0.0,1.21846967915e-07,0.0,0.0,0.0,1.21846967915e-07,-0.7060788,1.1571847,9.0417313,9e-08,0.0,0.0,0.0,9e-08,0.0,0.0,0.0,9e-08
1539875492210843880,1129,1539875492210269224,base_link,-0.109764501795,-0.183148840112,-0.704831567075,-0.676476694769,1.0,0.0,0.0,0.0,1.0,0.0,0.0,0.0,1.0,-0.0353514440358,-0.112537577748,-0.284753531218,1.21846967915e-07,0.0,0.0,0.0,1.21846967915e-07,0.0,0.0,0.0,1.21846967915e-07,-0.79433865,0.5295591,8.7475318,9e-08,0.0,0.0,0.0,9e-08,0.0,0.0,0.0,9e-08
1539875492619438184,1130,1539875492619214312,base_link,-0.121476715336,-0.164724324579,-0.678733623361,-0.705287156442,1.0,0.0,0.0,0.0,1.0,0.0,0.0,0.0,1.0,-0.293675929308,-0.118137687445,-0.100454188883,1.21846967915e-07,0.0,0.0,0.0,1.21846967915e-07,0.0,0.0,0.0,1.21846967915e-07,-0.6864655,0.7453054,11.8268199,9e-08,0.0,0.0,0.0,9e-08,0.0,0.0,0.0,9e-08
1539875493056035016,1131,1539875493053943336,base_link,-0.0364671388335,-0.0799349305819,-0.667509314954,-0.739399668046,1.0,0.0,0.0,0.0,1.0,0.0,0.0,0.0,1.0,-0.640773415565,0.0057767839171,-0.18783006072,1.21846967915e-07,0.0,0.0,0.0,1.21846967915e-07,0.0,0.0,0.0,1.21846967915e-07,-0.8237586,0.9022118,8.91424485,9e-08,0.0,0.0,0.0,9e-08,0.0,0.0,0.0,9e-08
1539875493538433160,1132,1539875493537932552,base_link,-0.00526624313168,-0.0559276031683,-0.645337100112,-0.76182963785,1.0,0.0,0.0,0.0,1.0,0.0,0.0,0.0,1.0,0.0075404047966,0.0103969527408,-0.00270400149748,1.21846967915e-07,0.0,0.0,0.0,1.21846967915e-07,0.0,0.0,0.0,1.21846967915e-07,-1.0591182,0.16671305,10.42446895,9e-08,0.0,0.0,0.0,9e-08,0.0,0.0,0.0,9e-08
1539875493862370760,1133,1539875493862094344,base_link,0.0184024127139,-0.0345348983933,-0.663920596971,-0.746778503251,1.0,0.0,0.0,0.0,1.0,0.0,0.0,0.0,1.0,-0.251762777567,0.0296675655991,0.169591709971,1.21846967915e-07,0.0,0.0,0.0,1.21846967915e-07,0.0,0.0,0.0,1.21846967915e-07,-0.9414384,-0.0588399,4.05014645,9e-08,0.0,0.0,0.0,9e-08,0.0,0.0,0.0,9e-08
1539875494209820808,1134,1539875494209618824,base_link,0.0359299765536,-0.0223141992064,-0.68212814778,-0.730008426872,1.0,0.0,0.0,0.0,1.0,0.0,0.0,0.0,1.0,-0.208740010858,0.00605397764593,0.0899757891893,1.21846967915e-07,0.0,0.0,0.0,1.21846967915e-07,0.0,0.0,0.0,1.21846967915e-07,-1.10815145,0.48052585,9.5712904,9e-08,0.0,0.0,0.0,9e-08,0.0,0.0,0.0,9e-08
1539875494589620168,1135,1539875494589421768,base_link,0.0524402129082,-0.015568051991,-0.6885745091,-0.723099443538,1.0,0.0,0.0,0.0,1.0,0.0,0.0,0.0,1.0,-0.010748446919,0.0321963950992,0.00878517515957,1.21846967915e-07,0.0,0.0,0.0,1.21846967915e-07,0.0,0.0,0.0,1.21846967915e-07,-0.8825985,0.36284605,8.629852,9e-08,0.0,0.0,0.0,9e-08,0.0,0.0,0.0,9e-08
1539875495027659336,1136,1539875495027157640,base_link,0.0477508633911,-0.0225737831293,-0.689577486957,-0.722283302342,1.0,0.0,0.0,0.0,1.0,0.0,0.0,0.0,1.0,0.0768547728658,-0.0102424900979,0.0277936663479,1.21846967915e-07,0.0,0.0,0.0,1.21846967915e-07,0.0,0.0,0.0,1.21846967915e-07,-0.75511205,0.04903325,8.69849855,9e-08,0.0,0.0,0.0,9e-08,0.0,0.0,0.0,9e-08
1539875495422628168,1137,1539875495422378824,base_link,0.0279640073602,-0.0276613420807,-0.698101871877,-0.714917226627,1.0,0.0,0.0,0.0,1.0,0.0,0.0,0.0,1.0,0.0081304628402,-0.0182881951332,0.057817813009,1.21846967915e-07,0.0,0.0,0.0,1.21846967915e-07,0.0,0.0,0.0,1.21846967915e-07,-0.44129925,0.10787315,11.13054775,9e-08,0.0,0.0,0.0,9e-08,0.0,0.0,0.0,9e-08
1539875495730202024,1138,1539875495727277928,base_link,0.0271598910938,-0.0179812983132,-0.705538945744,-0.707922177407,1.0,0.0,0.0,0.0,1.0,0.0,0.0,0.0,1.0,0.0524909906089,-0.0472830161452,0.0628344118595,1.21846967915e-07,0.0,0.0,0.0,1.21846967915e-07,0.0,0.0,0.0,1.21846967915e-07,-0.4314926,0.4511059,9.65955025,9e-08,0.0,0.0,0.0,9e-08,0.0,0.0,0.0,9e-08
1539875496219324072,1139,1539875496219037832,base_link,0.0114867969942,-0.0185114853557,-0.703664888861,-0.71019793198,1.0,0.0,0.0,0.0,1.0,0.0,0.0,0.0,1.0,0.0498505160213,-0.0825757682323,-0.00573666533455,1.21846967915e-07,0.0,0.0,0.0,1.21846967915e-07,0.0,0.0,0.0,1.21846967915e-07,-0.2353596,0.2941995,10.2185293,9e-08,0.0,0.0,0.0,9e-08,0.0,0.0,0.0,9e-08
1539875496497914632,1140,1539875496497548648,base_link,0.00995711630022,-0.00397361579209,-0.701479824219,-0.712608674116,1.0,0.0,0.0,0.0,1.0,0.0,0.0,0.0,1.0,0.0958128124475,-0.080708540976,-0.0798676684499,1.21846967915e-07,0.0,0.0,0.0,1.21846967915e-07,0.0,0.0,0.0,1.21846967915e-07,0.0,0.38245935,10.67944185,9e-08,0.0,0.0,0.0,9e-08,0.0,0.0,0.0,9e-08
1539875496849226600,1141,1539875496848981224,base_link,-0.0136830428113,-0.00566165889102,-0.699377958108,-0.714598622774,1.0,0.0,0.0,0.0,1.0,0.0,0.0,0.0,1.0,0.00066999043338,-0.0655357688665,-0.0157177560031,1.21846967915e-07,0.0,0.0,0.0,1.21846967915e-07,0.0,0.0,0.0,1.21846967915e-07,-0.26477955,1.1179581,12.99381125,9e-08,0.0,0.0,0.0,9e-08,0.0,0.0,0.0,9e-08
1539875497367500488,1142,1539875497366068040,base_link,0.00325046338659,0.0358394132885,-0.698442089023,-0.714761232318,1.0,0.0,0.0,0.0,1.0,0.0,0.0,0.0,1.0,-0.213980525732,0.0190052036196,0.0887493118644,1.21846967915e-07,0.0,0.0,0.0,1.21846967915e-07,0.0,0.0,0.0,1.21846967915e-07,0.04903325,0.50013915,9.5909037,9e-08,0.0,0.0,0.0,9e-08,0.0,0.0,0.0,9e-08
1539875497717135560,1143,1539875497712820776,base_link,-0.00188583376431,0.0296127026887,-0.705202356216,-0.708384901207,1.0,0.0,0.0,0.0,1.0,0.0,0.0,0.0,1.0,0.186479285359,0.0371534638107,-0.0370383039117,1.21846967915e-07,0.0,0.0,0.0,1.21846967915e-07,0.0,0.0,0.0,1.21846967915e-07,0.0588399,0.7649187,9.73800345,9e-08,0.0,0.0,0.0,9e-08,0.0,0.0,0.0,9e-08
1539875498239832552,1144,1539875498239549928,base_link,-0.150396105407,-0.12381939116,-0.704263396997,-0.682687950313,1.0,0.0,0.0,0.0,1.0,0.0,0.0,0.0,1.0,0.0327230319381,-0.0886064767838,0.447167992592,1.21846967915e-07,0.0,0.0,0.0,1.21846967915e-07,0.0,0.0,0.0,1.21846967915e-07,0.4511059,-0.12748645,11.15016105,9e-08,0.0,0.0,0.0,9e-08,0.0,0.0,0.0,9e-08
1539875498530015560,1145,1539875498529769704,base_link,-0.104338701908,-0.0674702245677,-0.733134157649,-0.668637054739,1.0,0.0,0.0,0.0,1.0,0.0,0.0,0.0,1.0,-0.647797942162,0.210788235068,-0.0414049439132,1.21846967915e-07,0.0,0.0,0.0,1.21846967915e-07,0.0,0.0,0.0,1.21846967915e-07,0.67665885,2.0397832,12.160246,9e-08,0.0,0.0,0.0,9e-08,0.0,0.0,0.0,9e-08
1539875498889131272,1146,1539875498888594984,base_link,-0.0216394804518,-0.0392358179165,-0.704355140374,-0.708432156036,1.0,0.0,0.0,0.0,1.0,0.0,0.0,0.0,1.0,-0.241918206215,0.129991278052,-0.336553633213,1.21846967915e-07,0.0,0.0,0.0,1.21846967915e-07,0.0,0.0,0.0,1.21846967915e-07,0.00980665,0.61781895,5.0602314,9e-08,0.0,0.0,0.0,9e-08,0.0,0.0,0.0,9e-08
1539875499307545608,1147,1539875499307267112,base_link,-0.00166253190672,-0.0248175337314,-0.675999052855,-0.736482590796,1.0,0.0,0.0,0.0,1.0,0.0,0.0,0.0,1.0,0.0693974494934,-0.0625761523843,-0.021415323019,1.21846967915e-07,0.0,0.0,0.0,1.21846967915e-07,0.0,0.0,0.0,1.21846967915e-07,0.2941995,0.0588399,10.1400761,9e-08,0.0,0.0,0.0,9e-08,0.0,0.0,0.0,9e-08
1539875499664799624,1148,1539875499664172712,base_link,-0.0313835897636,-0.0366094798971,-0.690306374335,-0.721908530098,1.0,0.0,0.0,0.0,1.0,0.0,0.0,0.0,1.0,0.234838575125,-0.0386572554708,0.171988323331,1.21846967915e-07,0.0,0.0,0.0,1.21846967915e-07,0.0,0.0,0.0,1.21846967915e-07,0.7060788,0.3726527,10.983448,9e-08,0.0,0.0,0.0,9e-08,0.0,0.0,0.0,9e-08
1539875499965759176,1149,1539875499965511272,base_link,-0.021855219766,-0.0126459515351,-0.70100552862,-0.712708690928,1.0,0.0,0.0,0.0,1.0,0.0,0.0,0.0,1.0,-0.231794700027,-0.0594200491905,0.0383493378758,1.21846967915e-07,0.0,0.0,0.0,1.21846967915e-07,0.0,0.0,0.0,1.21846967915e-07,0.7453054,0.8237586,11.67972015,9e-08,0.0,0.0,0.0,9e-08,0.0,0.0,0.0,9e-08
1539875500316614120,1150,1539875500316344552,base_link,-0.0085114455874,0.0148541027824,-0.700899710043,-0.713054350934,1.0,0.0,0.0,0.0,1.0,0.0,0.0,0.0,1.0,-0.163831323385,-0.0427710078657,0.0740497112274,1.21846967915e-07,0.0,0.0,0.0,1.21846967915e-07,0.0,0.0,0.0,1.21846967915e-07,0.5491724,0.1569064,9.81645665,9e-08,0.0,0.0,0.0,9e-08,0.0,0.0,0.0,9e-08
1539875500565589992,1151,1539875500565275304,base_link,-0.0121412687947,0.0150898424938,-0.700984121772,-0.712913842809,1.0,0.0,0.0,0.0,1.0,0.0,0.0,0.0,1.0,-0.0203154981136,-0.0302052814513,-0.0159925147891,1.21846967915e-07,0.0,0.0,0.0,1.21846967915e-07,0.0,0.0,0.0,1.21846967915e-07,0.36284605,0.26477955,8.1002929,9e-08,0.0,0.0,0.0,9e-08,0.0,0.0,0.0,9e-08
1539875500869796584,1152,1539875500869564296,base_link,-0.0173939218945,0.0214688693656,-0.703808336844,-0.709852353746,1.0,0.0,0.0,0.0,1.0,0.0,0.0,0.0,1.0,-0.164273843169,-0.0427895970643,0.0372928678989,1.21846967915e-07,0.0,0.0,0.0,1.21846967915e-07,0.0,0.0,0.0,1.21846967915e-07,0.6668522,0.10787315,10.87557485,9e-08,0.0,0.0,0.0,9e-08,0.0,0.0,0.0,9e-08
1539875501319841928,1153,1539875501319510568,base_link,-0.0176944957745,0.040047582304,-0.718300824613,-0.694353671648,1.0,0.0,0.0,0.0,1.0,0.0,0.0,0.0,1.0,-0.159689858556,-0.0206907577813,0.104521341622,1.21846967915e-07,0.0,0.0,0.0,1.21846967915e-07,0.0,0.0,0.0,1.21846967915e-07,1.3337044,0.79433865,15.60238015,9e-08,0.0,0.0,0.0,9e-08,0.0,0.0,0.0,9e-08
1539875501659009032,1154,1539875501653998088,base_link,-0.02915180321,0.0183681588268,-0.714046153319,-0.699250222768,1.0,0.0,0.0,0.0,1.0,0.0,0.0,0.0,1.0,0.055247746408,0.0187112800777,-0.0662318393588,1.21846967915e-07,0.0,0.0,0.0,1.21846967915e-07,0.0,0.0,0.0,1.21846967915e-07,0.81395195,-0.2157463,8.1395195,9e-08,0.0,0.0,0.0,9e-08,0.0,0.0,0.0,9e-08
1539875502050916104,1155,1539875502050613096,base_link,-0.0879209974013,-0.0548782386929,-0.710033024189,-0.696499376665,1.0,0.0,0.0,0.0,1.0,0.0,0.0,0.0,1.0,0.310459047556,0.0164152123034,0.0483466610312,1.21846967915e-07,0.0,0.0,0.0,1.21846967915e-07,0.0,0.0,0.0,1.21846967915e-07,0.75511205,0.1372931,9.7870367,9e-08,0.0,0.0,0.0,9e-08,0.0,0.0,0.0,9e-08
1539875502463076648,1156,1539875502462899464,base_link,-0.147543533618,-0.119005433354,-0.709652901532,-0.678573040923,1.0,0.0,0.0,0.0,1.0,0.0,0.0,0.0,1.0,0.0184024013579,0.059646204114,-0.0329047590494,1.21846967915e-07,0.0,0.0,0.0,1.21846967915e-07,0.0,0.0,0.0,1.21846967915e-07,0.48052585,1.24544455,9.8654899,9e-08,0.0,0.0,0.0,9e-08,0.0,0.0,0.0,9e-08
1539875502881199048,1157,1539875502880437160,base_link,-0.158284346955,-0.151053217799,-0.673814070629,-0.705764542269,1.0,0.0,0.0,0.0,1.0,0.0,0.0,0.0,1.0,0.479441821575,0.0832905694842,-0.402912944555,1.21846967915e-07,0.0,0.0,0.0,1.21846967915e-07,0.0,0.0,0.0,1.21846967915e-07,0.46091255,0.85317855,8.85540495,9e-08,0.0,0.0,0.0,9e-08,0.0,0.0,0.0,9e-08
1539875503218752680,1158,1539875503218377544,base_link,-0.227470039406,-0.217647728768,-0.621020131073,-0.717788857629,1.0,0.0,0.0,0.0,1.0,0.0,0.0,0.0,1.0,0.514078319073,-0.169426634908,-0.0717034414411,1.21846967915e-07,0.0,0.0,0.0,1.21846967915e-07,0.0,0.0,0.0,1.21846967915e-07,0.34323275,-0.26477955,9.63993695,9e-08,0.0,0.0,0.0,9e-08,0.0,0.0,0.0,9e-08
1539875503624217032,1159,1539875503623253736,base_link,-0.253807068986,-0.196544969874,-0.601333007195,-0.731676609581,1.0,0.0,0.0,0.0,1.0,0.0,0.0,0.0,1.0,-0.144979536533,-0.170402094722,-0.193474456668,1.21846967915e-07,0.0,0.0,0.0,1.21846967915e-07,0.0,0.0,0.0,1.21846967915e-07,0.6472389,1.3140911,10.91480145,9e-08,0.0,0.0,0.0,9e-08,0.0,0.0,0.0,9e-08
1539875503978010024,1160,1539875503977628392,base_link,-0.257510169008,-0.206561380869,-0.550609519453,-0.766713809631,1.0,0.0,0.0,0.0,1.0,0.0,0.0,0.0,1.0,0.011516192928,-0.101353868842,-0.464349210262,1.21846967915e-07,0.0,0.0,0.0,1.21846967915e-07,0.0,0.0,0.0,1.21846967915e-07,0.50013915,0.9022118,10.9049948,9e-08,0.0,0.0,0.0,9e-08,0.0,0.0,0.0,9e-08
1539875504379958056,1161,1539875504379438472,base_link,-0.30043540334,-0.231508434124,-0.460106050671,-0.802773215476,1.0,0.0,0.0,0.0,1.0,0.0,0.0,0.0,1.0,0.258460581303,-0.172517418861,-0.312674343586,1.21846967915e-07,0.0,0.0,0.0,1.21846967915e-07,0.0,0.0,0.0,1.21846967915e-07,0.38245935,0.81395195,9.99297635,9e-08,0.0,0.0,0.0,9e-08,0.0,0.0,0.0,9e-08
1539875504699814024,1162,1539875504699465064,base_link,-0.328428743237,-0.233443413043,-0.390364615341,-0.827800821824,1.0,0.0,0.0,0.0,1.0,0.0,0.0,0.0,1.0,0.0167334415019,-0.330202996731,-0.425096720457,1.21846967915e-07,0.0,0.0,0.0,1.21846967915e-07,0.0,0.0,0.0,1.21846967915e-07,0.5295591,0.69627215,13.9058297,9e-08,0.0,0.0,0.0,9e-08,0.0,0.0,0.0,9e-08
1539875505005800232,1163,1539875505003485576,base_link,-0.335449241663,-0.203487669194,-0.334189234906,-0.856962152039,1.0,0.0,0.0,0.0,1.0,0.0,0.0,0.0,1.0,0.0583769232035,-0.360626637936,-0.292496055365,1.21846967915e-07,0.0,0.0,0.0,1.21846967915e-07,0.0,0.0,0.0,1.21846967915e-07,0.50013915,1.0395049,14.32751565,9e-08,0.0,0.0,0.0,9e-08,0.0,0.0,0.0,9e-08
1539875505398391336,1164,1539875505398144008,base_link,-0.33495055674,-0.161869930907,-0.252721550893,-0.893161837363,1.0,0.0,0.0,0.0,1.0,0.0,0.0,0.0,1.0,0.00778042385355,-0.325430691242,-0.397266060114,1.21846967915e-07,0.0,0.0,0.0,1.21846967915e-07,0.0,0.0,0.0,1.21846967915e-07,0.02941995,1.1375714,11.6306869,9e-08,0.0,0.0,0.0,9e-08,0.0,0.0,0.0,9e-08
1539875505827312168,1165,1539875505826916552,base_link,-0.363863364631,-0.1096291088,-0.167393699107,-0.909705589673,1.0,0.0,0.0,0.0,1.0,0.0,0.0,0.0,1.0,-0.0485237427056,-0.348734408617,-0.175297111273,1.21846967915e-07,0.0,0.0,0.0,1.21846967915e-07,0.0,0.0,0.0,1.21846967915e-07,-0.10787315,0.6472389,12.95458465,9e-08,0.0,0.0,0.0,9e-08,0.0,0.0,0.0,9e-08
1539875506333890120,1166,1539875506333409256,base_link,-0.301120578456,-0.0853410286696,-0.0594338745354,-0.947898159411,1.0,0.0,0.0,0.0,1.0,0.0,0.0,0.0,1.0,-0.207599535584,-0.193094730377,-0.527369260788,1.21846967915e-07,0.0,0.0,0.0,1.21846967915e-07,0.0,0.0,0.0,1.21846967915e-07,-0.2745862,1.0395049,10.3165958,9e-08,0.0,0.0,0.0,9e-08,0.0,0.0,0.0,9e-08
1539875506751183080,1167,1539875506750936168,base_link,-0.299766930371,-0.0423005498892,0.0172707091807,-0.952917716038,1.0,0.0,0.0,0.0,1.0,0.0,0.0,0.0,1.0,-0.105598218739,-0.338549375534,-0.109282553196,1.21846967915e-07,0.0,0.0,0.0,1.21846967915e-07,0.0,0.0,0.0,1.21846967915e-07,-0.20593965,0.48052585,18.03442935,9e-08,0.0,0.0,0.0,9e-08,0.0,0.0,0.0,9e-08
1539875507184286184,1168,1539875507180375112,base_link,-0.190472150047,0.00255955507575,0.041311113998,-0.980819657529,1.0,0.0,0.0,0.0,1.0,0.0,0.0,0.0,1.0,-0.842928111553,-0.0829683914781,-0.0440371967852,1.21846967915e-07,0.0,0.0,0.0,1.21846967915e-07,0.0,0.0,0.0,1.21846967915e-07,-1.01008495,0.87279185,11.5130071,9e-08,0.0,0.0,0.0,9e-08,0.0,0.0,0.0,9e-08
1539875507640523368,1169,1539875507639379528,base_link,-0.011977523992,-0.0117946593462,0.0598815073112,-0.998063940844,1.0,0.0,0.0,0.0,1.0,0.0,0.0,0.0,1.0,-0.614926159382,0.124600499868,-0.103995211422,1.21846967915e-07,0.0,0.0,0.0,1.21846967915e-07,0.0,0.0,0.0,1.21846967915e-07,-1.16699135,0.71588545,7.97280645,9e-08,0.0,0.0,0.0,9e-08,0.0,0.0,0.0,9e-08
1539875507999169672,1170,1539875507998649704,base_link,0.0810550748793,-0.0362346434515,0.0771562699803,-0.9930579215,1.0,0.0,0.0,0.0,1.0,0.0,0.0,0.0,1.0,-0.240681767464,0.0834927111864,-0.0488860122859,1.21846967915e-07,0.0,0.0,0.0,1.21846967915e-07,0.0,0.0,0.0,1.21846967915e-07,-1.5494507,0.10787315,4.97197155,9e-08,0.0,0.0,0.0,9e-08,0.0,0.0,0.0,9e-08
1539875508442143528,1171,1539875508441834792,base_link,0.104786167329,-0.0519484959146,0.0682576875949,-0.990788625789,1.0,0.0,0.0,0.0,1.0,0.0,0.0,0.0,1.0,0.0100278584287,0.0716534256935,0.131841629744,1.21846967915e-07,0.0,0.0,0.0,1.21846967915e-07,0.0,0.0,0.0,1.21846967915e-07,-1.46119085,-0.2549729,8.14932615,9e-08,0.0,0.0,0.0,9e-08,0.0,0.0,0.0,9e-08
1539875508772125384,1172,1539875508771829448,base_link,0.0981202486685,-0.0635010759696,0.0437166027096,-0.99218389868,1.0,0.0,0.0,0.0,1.0,0.0,0.0,0.0,1.0,-0.0755954086781,0.0659517645836,0.156983584166,1.21846967915e-07,0.0,0.0,0.0,1.21846967915e-07,0.0,0.0,0.0,1.21846967915e-07,-1.4121576,0.30400615,7.256921,9e-08,0.0,0.0,0.0,9e-08,0.0,0.0,0.0,9e-08
1539875509108554472,1173,1539875509107580680,base_link,0.112475960704,-0.0701158082272,0.0155513388132,-0.991055542117,1.0,0.0,0.0,0.0,1.0,0.0,0.0,0.0,1.0,-0.207404643297,-0.0124784521759,0.208508178592,1.21846967915e-07,0.0,0.0,0.0,1.21846967915e-07,0.0,0.0,0.0,1.21846967915e-07,-1.44157755,0.12748645,9.18883105,9e-08,0.0,0.0,0.0,9e-08,0.0,0.0,0.0,9e-08
1539875509509273032,1174,1539875509508631400,base_link,0.100586653375,-0.0761666777074,-0.0146629527491,-0.991900176523,1.0,0.0,0.0,0.0,1.0,0.0,0.0,0.0,1.0,0.533488035202,-0.0215414073318,0.199923276901,1.21846967915e-07,0.0,0.0,0.0,1.21846967915e-07,0.0,0.0,0.0,1.21846967915e-07,-1.04931155,-0.59820565,8.9436648,9e-08,0.0,0.0,0.0,9e-08,0.0,0.0,0.0,9e-08
1539875509877229800,1175,1539875509876779944,base_link,0.0441362062525,-0.079989191281,-0.0603865313754,-0.993985508649,1.0,0.0,0.0,0.0,1.0,0.0,0.0,0.0,1.0,0.165520429611,-0.0223739091307,0.262208521366,1.21846967915e-07,0.0,0.0,0.0,1.21846967915e-07,0.0,0.0,0.0,1.21846967915e-07,-0.89240515,0.1176798,10.56176205,9e-08,0.0,0.0,0.0,9e-08,0.0,0.0,0.0,9e-08
1539875510322975176,1176,1539875510321920776,base_link,0.0278622686695,-0.0734921748133,-0.108297428202,-0.99100669083,1.0,0.0,0.0,0.0,1.0,0.0,0.0,0.0,1.0,-0.00772472796962,-0.0574949607253,0.131386294961,1.21846967915e-07,0.0,0.0,0.0,1.21846967915e-07,0.0,0.0,0.0,1.21846967915e-07,-0.9610517,0.57859235,10.0223963,9e-08,0.0,0.0,0.0,9e-08,0.0,0.0,0.0,9e-08
1539875510654830888,1177,1539875510654581160,base_link,0.0249918517131,-0.0657683831871,-0.110035753105,-0.991434344856,1.0,0.0,0.0,0.0,1.0,0.0,0.0,0.0,1.0,0.103705577552,-0.0890600532293,-0.0239412095398,1.21846967915e-07,0.0,0.0,0.0,1.21846967915e-07,0.0,0.0,0.0,1.21846967915e-07,-1.0198916,0.2941995,9.83606995,9e-08,0.0,0.0,0.0,9e-08,0.0,0.0,0.0,9e-08
1539875511041107464,1178,1539875511040553032,base_link,0.0203863986749,-0.046759323951,-0.112424382446,-0.992350098808,1.0,0.0,0.0,0.0,1.0,0.0,0.0,0.0,1.0,-0.0201777648181,-0.0905247628689,-0.0186135955155,1.21846967915e-07,0.0,0.0,0.0,1.21846967915e-07,0.0,0.0,0.0,1.21846967915e-07,-0.87279185,0.6472389,11.5130071,9e-08,0.0,0.0,0.0,9e-08,0.0,0.0,0.0,9e-08
1539875511469131176,1179,1539875511467765864,base_link,-0.00651885543084,-0.0295009189197,-0.102911100491,-0.994231615723,1.0,0.0,0.0,0.0,1.0,0.0,0.0,0.0,1.0,0.138472646475,-0.0784437656403,-0.0105240540579,1.21846967915e-07,0.0,0.0,0.0,1.21846967915e-07,0.0,0.0,0.0,1.21846967915e-07,-0.48052585,-0.38245935,9.11037785,9e-08,0.0,0.0,0.0,9e-08,0.0,0.0,0.0,9e-08
1539875511955600232,1180,1539875511955203272,base_link,-0.0595673321605,-0.00808135077835,-0.132691164821,-0.989332845653,1.0,0.0,0.0,0.0,1.0,0.0,0.0,0.0,1.0,0.0881704464555,-0.0978230759501,0.138605475426,1.21846967915e-07,0.0,0.0,0.0,1.21846967915e-07,0.0,0.0,0.0,1.21846967915e-07,-0.0196133,0.2157463,11.24822755,9e-08,0.0,0.0,0.0,9e-08,0.0,0.0,0.0,9e-08
1539875512344793384,1181,1539875512343647752,base_link,-0.0629303853095,0.000878989845406,-0.138602268571,-0.988346298181,1.0,0.0,0.0,0.0,1.0,0.0,0.0,0.0,1.0,-0.147498220205,-0.0199264027178,-0.0925796627998,1.21846967915e-07,0.0,0.0,0.0,1.21846967915e-07,0.0,0.0,0.0,1.21846967915e-07,0.0,0.46091255,10.50292215,9e-08,0.0,0.0,0.0,9e-08,0.0,0.0,0.0,9e-08
1539875512605732808,1182,1539875512604953480,base_link,-0.0569051294861,0.00409354194406,-0.125322543317,-0.990474285022,1.0,0.0,0.0,0.0,1.0,0.0,0.0,0.0,1.0,-0.0769189745188,-0.0184503290802,-0.0936425179243,1.21846967915e-07,0.0,0.0,0.0,1.21846967915e-07,0.0,0.0,0.0,1.21846967915e-07,0.12748645,0.2353596,10.4342756,9e-08,0.0,0.0,0.0,9e-08,0.0,0.0,0.0,9e-08
1539875512886722280,1183,1539875512886121992,base_link,-0.0415138671859,0.00164050421206,-0.11631663028,-0.992342858642,1.0,0.0,0.0,0.0,1.0,0.0,0.0,0.0,1.0,-0.108677744865,0.0508929342031,-0.0471849180758,1.21846967915e-07,0.0,0.0,0.0,1.21846967915e-07,0.0,0.0,0.0,1.21846967915e-07,0.08825985,0.32361945,9.79684335,9e-08,0.0,0.0,0.0,9e-08,0.0,0.0,0.0,9e-08
1539875513294739400,1184,1539875513294213192,base_link,-0.0485572535796,-0.0120128828072,-0.101137327335,-0.993614173002,1.0,0.0,0.0,0.0,1.0,0.0,0.0,0.0,1.0,0.11903513968,0.0247845202684,-0.0977407246828,1.21846967915e-07,0.0,0.0,0.0,1.21846967915e-07,0.0,0.0,0.0,1.21846967915e-07,-0.0784532,0.5099458,7.7276402,9e-08,0.0,0.0,0.0,9e-08,0.0,0.0,0.0,9e-08
1539875513680616616,1185,1539875513679596456,base_link,-0.0419864871837,-0.0105090336977,-0.0887879441158,-0.995109740724,1.0,0.0,0.0,0.0,1.0,0.0,0.0,0.0,1.0,-0.013792312704,-0.0329695865512,-0.0515780113637,1.21846967915e-07,0.0,0.0,0.0,1.21846967915e-07,0.0,0.0,0.0,1.21846967915e-07,0.1176798,0.1176798,8.8063717,9e-08,0.0,0.0,0.0,9e-08,0.0,0.0,0.0,9e-08
1539875514038738120,1186,1539875514037988328,base_link,-0.0447552762972,0.00343381183988,-0.106202567307,-0.993330855696,1.0,0.0,0.0,0.0,1.0,0.0,0.0,0.0,1.0,-0.181436106563,-0.0763645917177,0.205563098192,1.21846967915e-07,0.0,0.0,0.0,1.21846967915e-07,0.0,0.0,0.0,1.21846967915e-07,0.6864655,0.3334261,12.64077185,9e-08,0.0,0.0,0.0,9e-08,0.0,0.0,0.0,9e-08
1539875514361585672,1187,1539875514361367240,base_link,-0.0141320929383,0.00954653975127,-0.122730376823,-0.992293506042,1.0,0.0,0.0,0.0,1.0,0.0,0.0,0.0,1.0,-0.196976512671,0.00810885243118,-0.000334668671712,1.21846967915e-07,0.0,0.0,0.0,1.21846967915e-07,0.0,0.0,0.0,1.21846967915e-07,0.32361945,1.0591182,9.7478101,9e-08,0.0,0.0,0.0,9e-08,0.0,0.0,0.0,9e-08
1539875514786332936,1188,1539875514783264552,base_link,-0.0123550873246,0.0118948379995,-0.10720272889,-0.994089251307,1.0,0.0,0.0,0.0,1.0,0.0,0.0,0.0,1.0,-0.0406257323921,-0.0799774453044,0.00187646225095,1.21846967915e-07,0.0,0.0,0.0,1.21846967915e-07,0.0,0.0,0.0,1.21846967915e-07,0.36284605,0.2745862,10.89518815,9e-08,0.0,0.0,0.0,9e-08,0.0,0.0,0.0,9e-08
1539875515156413768,1189,1539875515156137704,base_link,-0.0185028891592,0.00829252384045,-0.0897947882707,-0.995753871768,1.0,0.0,0.0,0.0,1.0,0.0,0.0,0.0,1.0,0.171378076077,-0.0223362930119,-0.23790615797,1.21846967915e-07,0.0,0.0,0.0,1.21846967915e-07,0.0,0.0,0.0,1.21846967915e-07,0.87279185,0.57859235,7.9041599,9e-08,0.0,0.0,0.0,9e-08,0.0,0.0,0.0,9e-08
1539875515439205800,1190,1539875515438908744,base_link,-0.0420808466687,0.0179285885938,-0.0707718326906,-0.996443232579,1.0,0.0,0.0,0.0,1.0,0.0,0.0,0.0,1.0,0.157492682338,-0.137924239039,-0.0155663657933,1.21846967915e-07,0.0,0.0,0.0,1.21846967915e-07,0.0,0.0,0.0,1.21846967915e-07,1.06892485,0.04903325,12.6701918,9e-08,0.0,0.0,0.0,9e-08,0.0,0.0,0.0,9e-08
1539875515927689160,1191,1539875515927375304,base_link,0.0228381742273,0.069582017631,-0.113767272743,-0.990804606506,1.0,0.0,0.0,0.0,1.0,0.0,0.0,0.0,1.0,0.0905172154307,-0.108520336449,0.299022227526,1.21846967915e-07,0.0,0.0,0.0,1.21846967915e-07,0.0,0.0,0.0,1.21846967915e-07,1.30428445,0.0980665,16.91647125,9e-08,0.0,0.0,0.0,9e-08,0.0,0.0,0.0,9e-08
1539875516270438632,1192,1539875516270101800,base_link,-0.00956506787345,0.0675360485992,-0.145033645322,-0.987072759902,1.0,0.0,0.0,0.0,1.0,0.0,0.0,0.0,1.0,-0.00233736261725,0.0818671286106,0.000770221929997,1.21846967915e-07,0.0,0.0,0.0,1.21846967915e-07,0.0,0.0,0.0,1.21846967915e-07,0.5687857,1.0983448,10.4735022,9e-08,0.0,0.0,0.0,9e-08,0.0,0.0,0.0,9e-08
1539875516712454952,1193,1539875516709253320,base_link,-0.00662396466782,0.0407173690346,-0.117831188934,-0.992176410658,1.0,0.0,0.0,0.0,1.0,0.0,0.0,0.0,1.0,0.0900272578001,0.122031025589,-0.147191151977,1.21846967915e-07,0.0,0.0,0.0,1.21846967915e-07,0.0,0.0,0.0,1.21846967915e-07,0.44129925,0.06864655,7.93357985,9e-08,0.0,0.0,0.0,9e-08,0.0,0.0,0.0,9e-08
1539875517163789992,1194,1539875517163059784,base_link,-0.0381075692103,0.0164997609255,-0.112375431287,-0.992797730407,1.0,0.0,0.0,0.0,1.0,0.0,0.0,0.0,1.0,0.276151657104,0.0756159126759,0.0880669355392,1.21846967915e-07,0.0,0.0,0.0,1.21846967915e-07,0.0,0.0,0.0,1.21846967915e-07,0.48052585,0.26477955,9.93413645,9e-08,0.0,0.0,0.0,9e-08,0.0,0.0,0.0,9e-08
1539875517471910856,1195,1539875517470793928,base_link,-0.0746437812198,-0.00233183571525,-0.123701076049,-0.989505387682,1.0,0.0,0.0,0.0,1.0,0.0,0.0,0.0,1.0,0.135869294405,0.111501209438,0.027848739177,1.21846967915e-07,0.0,0.0,0.0,1.21846967915e-07,0.0,0.0,0.0,1.21846967915e-07,0.34323275,1.04931155,10.40485565,9e-08,0.0,0.0,0.0,9e-08,0.0,0.0,0.0,9e-08
1539875517809690856,1196,1539875517809193672,base_link,-0.120866745708,-0.0383947190726,-0.108534983115,-0.985970198723,1.0,0.0,0.0,0.0,1.0,0.0,0.0,0.0,1.0,0.380402117968,0.194719180465,-0.134383708239,1.21846967915e-07,0.0,0.0,0.0,1.21846967915e-07,0.0,0.0,0.0,1.21846967915e-07,-0.1569064,0.38245935,5.30539765,9e-08,0.0,0.0,0.0,9e-08,0.0,0.0,0.0,9e-08
1539875518163721160,1197,1539875518163165192,base_link,-0.133216894246,-0.0621976376248,-0.0856058204608,-0.985421917995,1.0,0.0,0.0,0.0,1.0,0.0,0.0,0.0,1.0,-0.014938079752,0.080207683146,-0.130355909467,1.21846967915e-07,0.0,0.0,0.0,1.21846967915e-07,0.0,0.0,0.0,1.21846967915e-07,-0.0980665,0.40207265,7.61976705,9e-08,0.0,0.0,0.0,9e-08,0.0,0.0,0.0,9e-08
1539875518575291496,1198,1539875518574818376,base_link,-0.086544370776,-0.070741930465,-0.0772740470764,-0.990724165855,1.0,0.0,0.0,0.0,1.0,0.0,0.0,0.0,1.0,-0.487887561321,0.100526161492,-0.0358206145465,1.21846967915e-07,0.0,0.0,0.0,1.21846967915e-07,0.0,0.0,0.0,1.21846967915e-07,-0.02941995,1.28467115,10.6696352,9e-08,0.0,0.0,0.0,9e-08,0.0,0.0,0.0,9e-08
1539875519002886632,1199,1539875519002605064,base_link,-0.0607434225432,-0.102473724222,-0.0147439728759,-0.992769856374,1.0,0.0,0.0,0.0,1.0,0.0,0.0,0.0,1.0,0.258698105812,-0.0140538690612,-0.426634311676,1.21846967915e-07,0.0,0.0,0.0,1.21846967915e-07,0.0,0.0,0.0,1.21846967915e-07,-0.65704555,0.6276256,7.75706015,9e-08,0.0,0.0,0.0,9e-08,0.0,0.0,0.0,9e-08
1539875519375070152,1200,1539875519374736264,base_link,-0.117043390783,-0.0977426330644,0.0142153071227,-0.988202988965,1.0,0.0,0.0,0.0,1.0,0.0,0.0,0.0,1.0,0.193554595113,-0.0986412912607,0.189045846462,1.21846967915e-07,0.0,0.0,0.0,1.21846967915e-07,0.0,0.0,0.0,1.21846967915e-07,-0.85317855,-0.85317855,7.69822025,9e-08,0.0,0.0,0.0,9e-08,0.0,0.0,0.0,9e-08
1539875519807963912,1201,1539875519807693160,base_link,-0.0752793610436,-0.0509985075387,-0.0413280210539,-0.994999580254,1.0,0.0,0.0,0.0,1.0,0.0,0.0,0.0,1.0,-0.511254549026,-0.208234667778,0.19441409409,1.21846967915e-07,0.0,0.0,0.0,1.21846967915e-07,0.0,0.0,0.0,1.21846967915e-07,-0.44129925,0.5491724,10.7088618,9e-08,0.0,0.0,0.0,9e-08,0.0,0.0,0.0,9e-08
1539875520202771752,1202,1539875520202347656,base_link,-0.0432017261965,-0.0363665170445,-0.0380782285996,-0.997677871759,1.0,0.0,0.0,0.0,1.0,0.0,0.0,0.0,1.0,0.0432621277869,-0.015058375895,-0.169143766165,1.21846967915e-07,0.0,0.0,0.0,1.21846967915e-07,0.0,0.0,0.0,1.21846967915e-07,-0.44129925,0.89240515,10.8657682,9e-08,0.0,0.0,0.0,9e-08,0.0,0.0,0.0,9e-08
1539875520509388520,1203,1539875520508965864,base_link,-0.021228256669,-0.0285595064762,-0.0215220857445,-0.999134883554,1.0,0.0,0.0,0.0,1.0,0.0,0.0,0.0,1.0,-0.0601892769337,-0.0833152532578,-0.01662879996,1.21846967915e-07,0.0,0.0,0.0,1.21846967915e-07,0.0,0.0,0.0,1.21846967915e-07,-0.28439285,0.0588399,8.9240515,9e-08,0.0,0.0,0.0,9e-08,0.0,0.0,0.0,9e-08
1539875521002010408,1204,1539875521001573960,base_link,-0.00257130609753,-0.00551265502165,-0.0402745135125,-0.999170136954,1.0,0.0,0.0,0.0,1.0,0.0,0.0,0.0,1.0,-0.277864277363,-0.09350438416,0.194367423654,1.21846967915e-07,0.0,0.0,0.0,1.21846967915e-07,0.0,0.0,0.0,1.21846967915e-07,0.1176798,-0.1372931,9.46341725,9e-08,0.0,0.0,0.0,9e-08,0.0,0.0,0.0,9e-08
1539875521467484904,1205,1539875521467308072,base_link,0.00116660532231,0.00511948871831,-0.0744166447531,-0.997213413894,1.0,0.0,0.0,0.0,1.0,0.0,0.0,0.0,1.0,0.193431302905,-0.0175933502614,0.0761432275176,1.21846967915e-07,0.0,0.0,0.0,1.21846967915e-07,0.0,0.0,0.0,1.21846967915e-07,0.5295591,0.24516625,11.964113,9e-08,0.0,0.0,0.0,9e-08,0.0,0.0,0.0,9e-08
1539875521758310248,1206,1539875521758068008,base_link,0.0105142018228,0.00819169690341,-0.0812588515399,-0.996603906629,1.0,0.0,0.0,0.0,1.0,0.0,0.0,0.0,1.0,0.0110476147383,0.0650975257158,-0.0248887557536,1.21846967915e-07,0.0,0.0,0.0,1.21846967915e-07,0.0,0.0,0.0,1.21846967915e-07,0.3334261,0.87279185,10.13026945,9e-08,0.0,0.0,0.0,9e-08,0.0,0.0,0.0,9e-08
1539875522120246408,1207,1539875522119439208,base_link,0.00627836370356,-3.26210409364e-05,-0.0647541078601,-0.997881499278,1.0,0.0,0.0,0.0,1.0,0.0,0.0,0.0,1.0,-0.0864291489124,0.0741297155619,-0.0725731179118,1.21846967915e-07,0.0,0.0,0.0,1.21846967915e-07,0.0,0.0,0.0,1.21846967915e-07,0.3530394,0.06864655,9.0613446,9e-08,0.0,0.0,0.0,9e-08,0.0,0.0,0.0,9e-08
1539875522589468776,1208,1539875522589133864,base_link,-0.044640878146,-0.00171227340286,-0.0746020921357,-0.996212220346,1.0,0.0,0.0,0.0,1.0,0.0,0.0,0.0,1.0,-0.00247313920408,-0.108514875174,0.0506741628051,1.21846967915e-07,0.0,0.0,0.0,1.21846967915e-07,0.0,0.0,0.0,1.21846967915e-07,0.2353596,1.67775264984e-15,13.69989005,9e-08,0.0,0.0,0.0,9e-08,0.0,0.0,0.0,9e-08
1539875522963213672,1209,1539875522962960200,base_link,-0.0540916855103,0.0133910497888,-0.0908562136313,-0.994303735178,1.0,0.0,0.0,0.0,1.0,0.0,0.0,0.0,1.0,0.0947592109442,0.0349259674549,0.0470427162945,1.21846967915e-07,0.0,0.0,0.0,1.21846967915e-07,0.0,0.0,0.0,1.21846967915e-07,-0.0196133,1.176798,9.93413645,9e-08,0.0,0.0,0.0,9e-08,0.0,0.0,0.0,9e-08
1539875523404952328,1210,1539875523404121096,base_link,-0.127847584651,-0.00513098353611,-0.0530011259588,-0.990363341786,1.0,0.0,0.0,0.0,1.0,0.0,0.0,0.0,1.0,0.606345295906,-0.00448129978031,-0.273823618889,1.21846967915e-07,0.0,0.0,0.0,1.21846967915e-07,0.0,0.0,0.0,1.21846967915e-07,0.0588399,0.42168595,8.07087295,9e-08,0.0,0.0,0.0,9e-08,0.0,0.0,0.0,9e-08
1539875523795562472,1211,1539875523795229128,base_link,-0.230297665011,-0.00532642976402,-0.0188253133014,-0.97292354387,1.0,0.0,0.0,0.0,1.0,0.0,0.0,0.0,1.0,0.381025910378,-0.0698187425733,-0.100832536817,1.21846967915e-07,0.0,0.0,0.0,1.21846967915e-07,0.0,0.0,0.0,1.21846967915e-07,0.63743225,0.42168595,8.18855275,9e-08,0.0,0.0,0.0,9e-08,0.0,0.0,0.0,9e-08
1539875524125205096,1212,1539875524124998728,base_link,-0.282109272913,0.0109981968282,0.00795935670322,-0.959286217166,1.0,0.0,0.0,0.0,1.0,0.0,0.0,0.0,1.0,0.367190301418,-0.172627836466,-0.160896465182,1.21846967915e-07,0.0,0.0,0.0,1.21846967915e-07,0.0,0.0,0.0,1.21846967915e-07,0.85317855,0.9414384,10.03220295,9e-08,0.0,0.0,0.0,9e-08,0.0,0.0,0.0,9e-08
1539875524632148872,1213,1539875524631888360,base_link,-0.310574698923,0.0432474713504,0.0818386775941,-0.946031417798,1.0,0.0,0.0,0.0,1.0,0.0,0.0,0.0,1.0,0.116304576397,-0.243903487921,-0.313587099314,1.21846967915e-07,0.0,0.0,0.0,1.21846967915e-07,0.0,0.0,0.0,1.21846967915e-07,1.40235095,1.1179581,12.03275955,9e-08,0.0,0.0,0.0,9e-08,0.0,0.0,0.0,9e-08
1539875525136174120,1214,1539875525135946088,base_link,-0.337355746915,0.0951203049698,0.173853686841,-0.920281545603,1.0,0.0,0.0,0.0,1.0,0.0,0.0,0.0,1.0,-0.0209395457059,-0.31061065197,-0.290859252214,1.21846967915e-07,0.0,0.0,0.0,1.21846967915e-07,0.0,0.0,0.0,1.21846967915e-07,2.0593965,1.18660465,14.50403535,9e-08,0.0,0.0,0.0,9e-08,0.0,0.0,0.0,9e-08
1539875525450725896,1215,1539875525450256136,base_link,-0.342496254097,0.12887957383,0.235848601792,-0.900256523671,1.0,0.0,0.0,0.0,1.0,0.0,0.0,0.0,1.0,0.0650818794966,-0.33052277565,-0.297094732523,1.21846967915e-07,0.0,0.0,0.0,1.21846967915e-07,0.0,0.0,0.0,1.21846967915e-07,2.0593965,0.97085835,12.3956056,9e-08,0.0,0.0,0.0,9e-08,0.0,0.0,0.0,9e-08
1539875525720758280,1216,1539875525720495944,base_link,-0.343358983191,0.163050779774,0.285225303913,-0.879866795535,1.0,0.0,0.0,0.0,1.0,0.0,0.0,0.0,1.0,-0.077624283731,-0.387947171926,-0.247681245208,1.21846967915e-07,0.0,0.0,0.0,1.21846967915e-07,0.0,0.0,0.0,1.21846967915e-07,2.7262487,0.9610517,16.85763135,9e-08,0.0,0.0,0.0,9e-08,0.0,0.0,0.0,9e-08
1539875526134091784,1217,1539875526133079272,base_link,-0.333879757749,0.228340278966,0.365297197819,-0.838416949753,1.0,0.0,0.0,0.0,1.0,0.0,0.0,0.0,1.0,-0.146096378565,-0.327825427055,-0.219389870763,1.21846967915e-07,0.0,0.0,0.0,1.21846967915e-07,0.0,0.0,0.0,1.21846967915e-07,3.14793465,1.2160246,19.3975537,9e-08,0.0,0.0,0.0,9e-08,0.0,0.0,0.0,9e-08
1539875526606285544,1218,1539875526605912584,base_link,-0.294044884069,0.258860105181,0.453559191934,-0.800508033383,1.0,0.0,0.0,0.0,1.0,0.0,0.0,0.0,1.0,-0.17642326653,-0.232647940516,-0.254986792803,1.21846967915e-07,0.0,0.0,0.0,1.21846967915e-07,0.0,0.0,0.0,1.21846967915e-07,1.765197,1.02969825,12.552512,9e-08,0.0,0.0,0.0,9e-08,0.0,0.0,0.0,9e-08
1539875526852373704,1219,1539875526851964488,base_link,-0.274858682398,0.262793657631,0.493248033129,-0.782367289726,1.0,0.0,0.0,0.0,1.0,0.0,0.0,0.0,1.0,-0.195754632354,-0.194189161062,-0.290858417749,1.21846967915e-07,0.0,0.0,0.0,1.21846967915e-07,0.0,0.0,0.0,1.21846967915e-07,1.48080415,0.83356525,11.5522337,9e-08,0.0,0.0,0.0,9e-08,0.0,0.0,0.0,9e-08
1539875527301683560,1220,1539875527301322504,base_link,-0.239044380081,0.206291083147,0.586924196805,-0.745534546866,1.0,0.0,0.0,0.0,1.0,0.0,0.0,0.0,1.0,-0.407401710749,0.0934076085687,-0.597416937351,1.21846967915e-07,0.0,0.0,0.0,1.21846967915e-07,0.0,0.0,0.0,1.21846967915e-07,0.6864655,1.3337044,1.569064,9e-08,0.0,0.0,0.0,9e-08,0.0,0.0,0.0,9e-08
1539875527647547368,1221,1539875527647233608,base_link,-0.247571563596,0.207744592205,0.650700875698,-0.687123624738,1.0,0.0,0.0,0.0,1.0,0.0,0.0,0.0,1.0,-0.0136518795043,-0.309853285551,-0.230006664991,1.21846967915e-07,0.0,0.0,0.0,1.21846967915e-07,0.0,0.0,0.0,1.21846967915e-07,0.5687857,-0.3138128,10.73828175,9e-08,0.0,0.0,0.0,9e-08,0.0,0.0,0.0,9e-08
1539875528076899752,1222,1539875528076383848,base_link,0.220248476084,-0.249345695583,-0.679717963567,0.653682509236,1.0,0.0,0.0,0.0,1.0,0.0,0.0,0.0,1.0,-0.269009411335,-0.197562813759,-0.0577418729663,1.21846967915e-07,0.0,0.0,0.0,1.21846967915e-07,0.0,0.0,0.0,1.21846967915e-07,0.5295591,0.9610517,9.63993695,9e-08,0.0,0.0,0.0,9e-08,0.0,0.0,0.0,9e-08
1539875528404114472,1223,1539875528403403976,base_link,0.145060134482,-0.206159930121,-0.719687664214,0.646919861015,1.0,0.0,0.0,0.0,1.0,0.0,0.0,0.0,1.0,-0.696914315224,-0.122847922146,-0.226543813944,1.21846967915e-07,0.0,0.0,0.0,1.21846967915e-07,0.0,0.0,0.0,1.21846967915e-07,0.67665885,1.6671305,11.89546645,9e-08,0.0,0.0,0.0,9e-08,0.0,0.0,0.0,9e-08
1539875528843454952,1224,1539875528841789896,base_link,0.0558800143151,-0.1048353083,-0.786409250681,0.606174457213,1.0,0.0,0.0,0.0,1.0,0.0,0.0,0.0,1.0,-0.452171593904,-0.0752666965127,-0.289039462805,1.21846967915e-07,0.0,0.0,0.0,1.21846967915e-07,0.0,0.0,0.0,1.21846967915e-07,0.34323275,0.6080123,12.7094184,9e-08,0.0,0.0,0.0,9e-08,0.0,0.0,0.0,9e-08
1539875529213693864,1225,1539875529213240552,base_link,0.00167949013403,-0.0579814787706,-0.807120589341,0.587530153859,1.0,0.0,0.0,0.0,1.0,0.0,0.0,0.0,1.0,-0.391024202108,-0.075905546546,-0.0201242510229,1.21846967915e-07,0.0,0.0,0.0,1.21846967915e-07,0.0,0.0,0.0,1.21846967915e-07,0.0784532,0.48052585,11.58165365,9e-08,0.0,0.0,0.0,9e-08,0.0,0.0,0.0,9e-08
1539875529535774536,1226,1539875529535380488,base_link,-0.0417281248569,-0.0125314585388,-0.809424574302,0.585605314745,1.0,0.0,0.0,0.0,1.0,0.0,0.0,0.0,1.0,-0.294966757298,-0.0565516352654,0.0672107562423,1.21846967915e-07,0.0,0.0,0.0,1.21846967915e-07,0.0,0.0,0.0,1.21846967915e-07,-0.0980665,0.1569064,11.4345539,9e-08,0.0,0.0,0.0,9e-08,0.0,0.0,0.0,9e-08
1539875529870871688,1227,1539875529870562984,base_link,-0.072763091514,0.0283835565348,-0.79530256072,0.601160330647,1.0,0.0,0.0,0.0,1.0,0.0,0.0,0.0,1.0,-0.210758820176,-0.0156619623303,0.148636326194,1.21846967915e-07,0.0,0.0,0.0,1.21846967915e-07,0.0,0.0,0.0,1.21846967915e-07,-0.10787315,0.2745862,10.79712165,9e-08,0.0,0.0,0.0,9e-08,0.0,0.0,0.0,9e-08
1539875530136258312,1228,1539875530135815688,base_link,-0.0773770616412,0.0425416807538,-0.784017636632,0.6144260258,1.0,0.0,0.0,0.0,1.0,0.0,0.0,0.0,1.0,-0.0772630795836,0.0949990525842,0.0759449377656,1.21846967915e-07,0.0,0.0,0.0,1.21846967915e-07,0.0,0.0,0.0,1.21846967915e-07,-0.24516625,0.59820565,8.9436648,9e-08,0.0,0.0,0.0,9e-08,0.0,0.0,0.0,9e-08
1539875530580521768,1229,1539875530580159656,base_link,-0.0682283362633,0.0600926497805,-0.783308588149,0.614948309458,1.0,0.0,0.0,0.0,1.0,0.0,0.0,0.0,1.0,0.155942797661,0.108837671578,-0.0190116558224,1.21846967915e-07,0.0,0.0,0.0,1.21846967915e-07,0.0,0.0,0.0,1.21846967915e-07,-0.34323275,0.0784532,7.1588545,9e-08,0.0,0.0,0.0,9e-08,0.0,0.0,0.0,9e-08
1539875531001415144,1230,1539875531000669320,base_link,-0.0311335741534,0.0430124668923,-0.773352136666,0.631749238991,1.0,0.0,0.0,0.0,1.0,0.0,0.0,0.0,1.0,-0.0410616584122,0.0589549914002,0.167632222176,1.21846967915e-07,0.0,0.0,0.0,1.21846967915e-07,0.0,0.0,0.0,1.21846967915e-07,-0.38245935,0.6864655,8.4925589,9e-08,0.0,0.0,0.0,9e-08,0.0,0.0,0.0,9e-08
1539875531323049480,1231,1539875531320113864,base_link,-0.0460097489025,0.0689574156004,-0.764435389997,0.639348506185,1.0,0.0,0.0,0.0,1.0,0.0,0.0,0.0,1.0,0.0801190882921,0.031020630151,-0.0464895889163,1.21846967915e-07,0.0,0.0,0.0,1.21846967915e-07,0.0,0.0,0.0,1.21846967915e-07,0.50013915,0.55897905,19.21122735,9e-08,0.0,0.0,0.0,9e-08,0.0,0.0,0.0,9e-08
1539875531750784424,1232,1539875531747366024,base_link,-0.0120714268184,0.05187778743,-0.766881461303,0.639574702545,1.0,0.0,0.0,0.0,1.0,0.0,0.0,0.0,1.0,0.531654655933,0.131545677781,-0.0669789612293,1.21846967915e-07,0.0,0.0,0.0,1.21846967915e-07,0.0,0.0,0.0,1.21846967915e-07,-0.67665885,0.8629852,7.9826131,9e-08,0.0,0.0,0.0,9e-08,0.0,0.0,0.0,9e-08
1539875532190838024,1233,1539875532190417256,base_link,0.0793664201647,-0.0478040781258,-0.767822141417,0.633928150987,1.0,0.0,0.0,0.0,1.0,0.0,0.0,0.0,1.0,0.30988869071,-0.0193715635687,0.204380184412,1.21846967915e-07,0.0,0.0,0.0,1.21846967915e-07,0.0,0.0,0.0,1.21846967915e-07,-0.8041453,0.02941995,7.03136805,9e-08,0.0,0.0,0.0,9e-08,0.0,0.0,0.0,9e-08
1539875532675293992,1234,1539875532674933800,base_link,0.128371879209,-0.0903454383377,-0.747452189783,0.645502584339,1.0,0.0,0.0,0.0,1.0,0.0,0.0,0.0,1.0,-0.478698551655,-0.0045823645778,-0.063436485827,1.21846967915e-07,0.0,0.0,0.0,1.21846967915e-07,0.0,0.0,0.0,1.21846967915e-07,-0.18632635,0.79433865,11.11093445,9e-08,0.0,0.0,0.0,9e-08,0.0,0.0,0.0,9e-08
1539875533055264584,1235,1539875533054885416,base_link,0.0817080164344,-0.0095423308398,-0.759517589282,0.645264113014,1.0,0.0,0.0,0.0,1.0,0.0,0.0,0.0,1.0,-0.420781701803,0.13868317008,-0.125288724899,1.21846967915e-07,0.0,0.0,0.0,1.21846967915e-07,0.0,0.0,0.0,1.21846967915e-07,-0.4707192,0.87279185,8.9632781,9e-08,0.0,0.0,0.0,9e-08,0.0,0.0,0.0,9e-08
1539875533450967528,1236,1539875533450696712,base_link,0.0477380565595,0.0579475791858,-0.771283540636,0.632048143709,1.0,0.0,0.0,0.0,1.0,0.0,0.0,0.0,1.0,-0.212920635939,0.0475443899632,-0.0876117646694,1.21846967915e-07,0.0,0.0,0.0,1.21846967915e-07,0.0,0.0,0.0,1.21846967915e-07,-0.5491724,0.04903325,10.05181625,9e-08,0.0,0.0,0.0,9e-08,0.0,0.0,0.0,9e-08
1539875533842345448,1237,1539875533841704264,base_link,0.0724573857,0.0319752858865,-0.766870889264,0.636896025697,1.0,0.0,0.0,0.0,1.0,0.0,0.0,0.0,1.0,0.578113853931,-0.00330873206258,0.117017664015,1.21846967915e-07,0.0,0.0,0.0,1.21846967915e-07,0.0,0.0,0.0,1.21846967915e-07,-0.588399,-0.22555295,8.48275225,9e-08,0.0,0.0,0.0,9e-08,0.0,0.0,0.0,9e-08
1539875534319108424,1238,1539875534318882536,base_link,0.0696351969322,0.0324433473444,-0.740051019979,0.668148828024,1.0,0.0,0.0,0.0,1.0,0.0,0.0,0.0,1.0,-0.202962502837,0.0342220366001,0.0966960042715,1.21846967915e-07,0.0,0.0,0.0,1.21846967915e-07,0.0,0.0,0.0,1.21846967915e-07,-0.53936575,0.48052585,7.6295737,9e-08,0.0,0.0,0.0,9e-08,0.0,0.0,0.0,9e-08
1539875534796766120,1239,1539875534796482792,base_link,0.0629816346734,0.038055925979,-0.724813373137,0.685004112626,1.0,0.0,0.0,0.0,1.0,0.0,0.0,0.0,1.0,0.0437334366143,-0.0173823349178,0.0835474580526,1.21846967915e-07,0.0,0.0,0.0,1.21846967915e-07,0.0,0.0,0.0,1.21846967915e-07,-0.65704555,0.5099458,9.38496405,9e-08,0.0,0.0,0.0,9e-08,0.0,0.0,0.0,9e-08
1539875535265066792,1240,1539875535264391720,base_link,0.0880451742181,-0.000334407474678,-0.724811883606,0.683297642944,1.0,0.0,0.0,0.0,1.0,0.0,0.0,0.0,1.0,-0.0370251387358,-0.0611783489585,-0.0468832068145,1.21846967915e-07,0.0,0.0,0.0,1.21846967915e-07,0.0,0.0,0.0,1.21846967915e-07,-0.4314926,0.85317855,10.87557485,9e-08,0.0,0.0,0.0,9e-08,0.0,0.0,0.0,9e-08
1539875535562115784,1241,1539875535561847208,base_link,0.0998560184979,-0.0271988966351,-0.738714784402,0.666025121822,1.0,0.0,0.0,0.0,1.0,0.0,0.0,0.0,1.0,0.404631793499,-0.0760294795036,-0.171384066343,1.21846967915e-07,0.0,0.0,0.0,1.21846967915e-07,0.0,0.0,0.0,1.21846967915e-07,-0.2745862,0.51975245,11.6306869,9e-08,0.0,0.0,0.0,9e-08,0.0,0.0,0.0,9e-08
1539875535860407112,1242,1539875535860107560,base_link,0.169458383622,-0.119578263126,-0.748158313491,0.63027298305,1.0,0.0,0.0,0.0,1.0,0.0,0.0,0.0,1.0,0.607729554176,-0.201796114445,-0.0940564125776,1.21846967915e-07,0.0,0.0,0.0,1.21846967915e-07,0.0,0.0,0.0,1.21846967915e-07,0.0,0.02941995,12.87613145,9e-08,0.0,0.0,0.0,9e-08,0.0,0.0,0.0,9e-08
1539875536296849416,1243,1539875536291136232,base_link,0.186619368802,-0.205709767488,-0.747716179992,0.603139467226,1.0,0.0,0.0,0.0,1.0,0.0,0.0,0.0,1.0,0.260364443064,-0.180908218026,-0.110362492502,1.21846967915e-07,0.0,0.0,0.0,1.21846967915e-07,0.0,0.0,0.0,1.21846967915e-07,0.7649187,1.2552512,14.7295883,9e-08,0.0,0.0,0.0,9e-08,0.0,0.0,0.0,9e-08
1539875536739129448,1244,1539875536737673992,base_link,0.194141730468,-0.24158793038,-0.779518975829,0.544329336623,1.0,0.0,0.0,0.0,1.0,0.0,0.0,0.0,1.0,0.195205017924,-0.171437695622,-0.344844400883,1.21846967915e-07,0.0,0.0,0.0,1.21846967915e-07,0.0,0.0,0.0,1.21846967915e-07,0.392266,1.08853815,11.22861425,9e-08,0.0,0.0,0.0,9e-08,0.0,0.0,0.0,9e-08
1539875537002715912,1245,1539875537002535336,base_link,0.197339248134,-0.267664582093,-0.805238048138,0.4909221715,1.0,0.0,0.0,0.0,1.0,0.0,0.0,0.0,1.0,0.123741671443,-0.207292705774,-0.342593044043,1.21846967915e-07,0.0,0.0,0.0,1.21846967915e-07,0.0,0.0,0.0,1.21846967915e-07,0.30400615,0.87279185,11.15016105,9e-08,0.0,0.0,0.0,9e-08,0.0,0.0,0.0,9e-08
1539875537390084328,1246,1539875537389717800,base_link,0.187430839521,-0.308958625729,-0.830485213766,0.423920461526,1.0,0.0,0.0,0.0,1.0,0.0,0.0,0.0,1.0,0.128557652235,-0.324859142303,-0.252426922321,1.21846967915e-07,0.0,0.0,0.0,1.21846967915e-07,0.0,0.0,0.0,1.21846967915e-07,0.65704555,0.2745862,13.03303785,9e-08,0.0,0.0,0.0,9e-08,0.0,0.0,0.0,9e-08
1539875537776953032,1247,1539875537776653704,base_link,0.146147376661,-0.353509582217,-0.844879363762,0.373966282256,1.0,0.0,0.0,0.0,1.0,0.0,0.0,0.0,1.0,-0.021338628605,-0.34299826622,-0.219846352935,1.21846967915e-07,0.0,0.0,0.0,1.21846967915e-07,0.0,0.0,0.0,1.21846967915e-07,-0.87279185,2.0593965,16.0044528,9e-08,0.0,0.0,0.0,9e-08,0.0,0.0,0.0,9e-08
1539875538067071656,1248,1539875538066837192,base_link,0.12551821022,-0.351740553929,-0.875193767691,0.307505496894,1.0,0.0,0.0,0.0,1.0,0.0,0.0,0.0,1.0,-0.171532094479,-0.271916806698,-0.606120407581,1.21846967915e-07,0.0,0.0,0.0,1.21846967915e-07,0.0,0.0,0.0,1.21846967915e-07,-1.3533177,1.12776475,17.6715833,9e-08,0.0,0.0,0.0,9e-08,0.0,0.0,0.0,9e-08
1539875538522766376,1249,1539875538522343496,base_link,0.0834196785091,-0.22962190945,-0.947567938691,0.205985284675,1.0,0.0,0.0,0.0,1.0,0.0,0.0,0.0,1.0,-0.748047232628,-0.141666799784,-0.262100458145,1.21846967915e-07,0.0,0.0,0.0,1.21846967915e-07,0.0,0.0,0.0,1.21846967915e-07,-1.9809433,-0.26477955,9.3947707,9e-08,0.0,0.0,0.0,9e-08,0.0,0.0,0.0,9e-08
1539875538927388360,1250,1539875538926667560,base_link,0.070955753831,-0.149363089414,-0.969335564646,0.181781494196,1.0,0.0,0.0,0.0,1.0,0.0,0.0,0.0,1.0,-0.0395362973213,0.101438291371,-0.11502301693,1.21846967915e-07,0.0,0.0,0.0,1.21846967915e-07,0.0,0.0,0.0,1.21846967915e-07,-1.9221034,0.1372931,8.5710121,9e-08,0.0,0.0,0.0,9e-08,0.0,0.0,0.0,9e-08
1539875539376381608,1251,1539875539376145800,base_link,0.109884152438,-0.182760771521,-0.962551581441,0.167387055956,1.0,0.0,0.0,0.0,1.0,0.0,0.0,0.0,1.0,0.388087898493,0.151472523808,-0.0654143095016,1.21846967915e-07,0.0,0.0,0.0,1.21846967915e-07,0.0,0.0,0.0,1.21846967915e-07,-1.77500365,7.78227428129e-16,6.3547092,9e-08,0.0,0.0,0.0,9e-08,0.0,0.0,0.0,9e-08
1539875539817283304,1252,1539875539816939560,base_link,0.154540011572,-0.225963967073,-0.954270553278,0.120105709913,1.0,0.0,0.0,0.0,1.0,0.0,0.0,0.0,1.0,0.246053472161,0.083580814302,-0.433044195175,1.21846967915e-07,0.0,0.0,0.0,1.21846967915e-07,0.0,0.0,0.0,1.21846967915e-07,-1.69655045,1.5102241,2.73605535,9e-08,0.0,0.0,0.0,9e-08,0.0,0.0,0.0,9e-08
1539875540164606888,1253,1539875540164016200,base_link,0.174962137718,-0.250834612291,-0.951637101414,0.0292758407951,1.0,0.0,0.0,0.0,1.0,0.0,0.0,0.0,1.0,0.214658007026,-0.0833180993795,-0.473340511322,1.21846967915e-07,0.0,0.0,0.0,1.21846967915e-07,0.0,0.0,0.0,1.21846967915e-07,-1.9221034,0.4707192,8.8652116,9e-08,0.0,0.0,0.0,9e-08,0.0,0.0,0.0,9e-08
1539875540430968360,1254,1539875540430658440,base_link,0.165805600937,-0.284372195016,-0.943844869898,-0.0282456893453,1.0,0.0,0.0,0.0,1.0,0.0,0.0,0.0,1.0,0.321482241154,-0.22617700696,-0.222957924008,1.21846967915e-07,0.0,0.0,0.0,1.21846967915e-07,0.0,0.0,0.0,1.21846967915e-07,-1.6671305,-0.12748645,10.77750835,9e-08,0.0,0.0,0.0,9e-08,0.0,0.0,0.0,9e-08
1539875540858264104,1255,1539875540857604232,base_link,0.112678326708,-0.284514285104,-0.94830656158,-0.0840825875313,1.0,0.0,0.0,0.0,1.0,0.0,0.0,0.0,1.0,-0.331492364407,-0.331046193838,-0.216858252883,1.21846967915e-07,0.0,0.0,0.0,1.21846967915e-07,0.0,0.0,0.0,1.21846967915e-07,-1.4317709,0.97085835,14.3569356,9e-08,0.0,0.0,0.0,9e-08,0.0,0.0,0.0,9e-08
1539875541225121576,1256,1539875541224627912,base_link,0.096325201055,-0.271456723233,-0.944477486324,-0.158098010363,1.0,0.0,0.0,0.0,1.0,0.0,0.0,0.0,1.0,0.0568594112992,-0.204905644059,-0.514420747757,1.21846967915e-07,0.0,0.0,0.0,1.21846967915e-07,0.0,0.0,0.0,1.21846967915e-07,-1.6082906,0.8825985,11.4933938,9e-08,0.0,0.0,0.0,9e-08,0.0,0.0,0.0,9e-08
1539875541639087656,1257,1539875541638807528,base_link,0.0472077890785,-0.325751943285,-0.909324738952,-0.254530185296,1.0,0.0,0.0,0.0,1.0,0.0,0.0,0.0,1.0,0.361183911562,-0.352558284998,-0.182002335787,1.21846967915e-07,0.0,0.0,0.0,1.21846967915e-07,0.0,0.0,0.0,1.21846967915e-07,-1.85345685,0.0196133,12.7878716,9e-08,0.0,0.0,0.0,9e-08,0.0,0.0,0.0,9e-08
1539875541931922824,1258,1539875541931634760,base_link,-0.0186011326218,-0.35301084966,-0.888619040801,-0.292221727826,1.0,0.0,0.0,0.0,1.0,0.0,0.0,0.0,1.0,0.267508327961,-0.464429944754,-0.10841999948,1.21846967915e-07,0.0,0.0,0.0,1.21846967915e-07,0.0,0.0,0.0,1.21846967915e-07,-1.5494507,-0.04903325,15.19050085,9e-08,0.0,0.0,0.0,9e-08,0.0,0.0,0.0,9e-08
1539875542347128168,1259,1539875542346461928,base_link,-0.094218736912,-0.342970557705,-0.86588228186,-0.351769669136,1.0,0.0,0.0,0.0,1.0,0.0,0.0,0.0,1.0,0.08826931566,-0.359727859497,-0.261445999146,1.21846967915e-07,0.0,0.0,0.0,1.21846967915e-07,0.0,0.0,0.0,1.21846967915e-07,-1.4906108,1.0591182,13.7685366,9e-08,0.0,0.0,0.0,9e-08,0.0,0.0,0.0,9e-08
1539875542838277288,1260,1539875542838011944,base_link,-0.157315745843,-0.352378252349,-0.806621908562,-0.447707962862,1.0,0.0,0.0,0.0,1.0,0.0,0.0,0.0,1.0,0.0420507863164,-0.477997928858,-0.353220313787,1.21846967915e-07,0.0,0.0,0.0,1.21846967915e-07,0.0,0.0,0.0,1.21846967915e-07,-1.28467115,0.5491724,14.0823494,9e-08,0.0,0.0,0.0,9e-08,0.0,0.0,0.0,9e-08
1539875543261730952,1261,1539875543261536488,base_link,-0.204185699685,-0.309979992342,-0.747110431998,-0.551404213615,1.0,0.0,0.0,0.0,1.0,0.0,0.0,0.0,1.0,-0.0717812329531,-0.434571564198,-0.415594100952,1.21846967915e-07,0.0,0.0,0.0,1.21846967915e-07,0.0,0.0,0.0,1.21846967915e-07,-1.02969825,0.784532,14.73939495,9e-08,0.0,0.0,0.0,9e-08,0.0,0.0,0.0,9e-08
1539875543611378536,1262,1539875543611072328,base_link,-0.212394103115,-0.249628824229,-0.703082714483,-0.631069640905,1.0,0.0,0.0,0.0,1.0,0.0,0.0,0.0,1.0,-0.303663134575,-0.424760580063,-0.386060059071,1.21846967915e-07,0.0,0.0,0.0,1.21846967915e-07,0.0,0.0,0.0,1.21846967915e-07,-0.9610517,0.89240515,14.34712895,9e-08,0.0,0.0,0.0,9e-08,0.0,0.0,0.0,9e-08
1539875544008859848,1263,1539875544008499400,base_link,-0.223702596224,-0.189889069648,-0.641751440141,-0.708557957226,1.0,0.0,0.0,0.0,1.0,0.0,0.0,0.0,1.0,-0.304324150085,-0.340572983027,-0.340724498034,1.21846967915e-07,0.0,0.0,0.0,1.21846967915e-07,0.0,0.0,0.0,1.21846967915e-07,-0.87279185,0.1569064,13.42530385,9e-08,0.0,0.0,0.0,9e-08,0.0,0.0,0.0,9e-08
1539875544456899144,1264,1539875544456663080,base_link,-0.204531219274,-0.10845968003,-0.585793960386,-0.77669100299,1.0,0.0,0.0,0.0,1.0,0.0,0.0,0.0,1.0,-0.230050474405,-0.260409504175,-0.300051867962,1.21846967915e-07,0.0,0.0,0.0,1.21846967915e-07,0.0,0.0,0.0,1.21846967915e-07,-0.59820565,0.4314926,12.6505785,9e-08,0.0,0.0,0.0,9e-08,0.0,0.0,0.0,9e-08
1539875544768219976,1265,1539875544767655304,base_link,-0.181123214167,-0.0607819356833,-0.543787453701,-0.817187336405,1.0,0.0,0.0,0.0,1.0,0.0,0.0,0.0,1.0,-0.344917714596,-0.184670642018,-0.301583349705,1.21846967915e-07,0.0,0.0,0.0,1.21846967915e-07,0.0,0.0,0.0,1.21846967915e-07,-0.5687857,1.39552511032e-15,11.3953273,9e-08,0.0,0.0,0.0,9e-08,0.0,0.0,0.0,9e-08
1539875545138519176,1266,1539875545137496776,base_link,-0.141658554548,-0.0118149653358,-0.503991290907,-0.85193077137,1.0,0.0,0.0,0.0,1.0,0.0,0.0,0.0,1.0,-0.421666562557,-0.130342677236,-0.20801487565,1.21846967915e-07,0.0,0.0,0.0,1.21846967915e-07,0.0,0.0,0.0,1.21846967915e-07,-0.3530394,0.28439285,10.44408225,9e-08,0.0,0.0,0.0,9e-08,0.0,0.0,0.0,9e-08
1539875545473303272,1267,1539875545468870568,base_link,-0.0901798761251,0.0305547258966,-0.47222286866,-0.876321608191,1.0,0.0,0.0,0.0,1.0,0.0,0.0,0.0,1.0,-0.390876621008,-0.0675562769175,-0.171190366149,1.21846967915e-07,0.0,0.0,0.0,1.21846967915e-07,0.0,0.0,0.0,1.21846967915e-07,-0.51975245,-0.00980665,9.7085835,9e-08,0.0,0.0,0.0,9e-08,0.0,0.0,0.0,9e-08
1539875545853052392,1268,1539875545852785896,base_link,-0.00747125894996,0.0908055980558,-0.446082294048,-0.890342131199,1.0,0.0,0.0,0.0,1.0,0.0,0.0,0.0,1.0,-0.521953701973,-0.0700763165951,-0.109349794686,1.21846967915e-07,0.0,0.0,0.0,1.21846967915e-07,0.0,0.0,0.0,1.21846967915e-07,0.69627215,-0.0588399,12.07198615,9e-08,0.0,0.0,0.0,9e-08,0.0,0.0,0.0,9e-08
1539875546272093896,1269,1539875546271870728,base_link,0.0427759144529,0.0904896482019,-0.43535669699,-0.894676696409,1.0,0.0,0.0,0.0,1.0,0.0,0.0,0.0,1.0,-0.0786991119385,0.140110820532,0.0768567994237,1.21846967915e-07,0.0,0.0,0.0,1.21846967915e-07,0.0,0.0,0.0,1.21846967915e-07,0.3530394,-0.16671305,10.30678915,9e-08,0.0,0.0,0.0,9e-08,0.0,0.0,0.0,9e-08
1539875546597650472,1270,1539875546597437448,base_link,0.0528425729727,0.0764096091971,-0.460076871985,-0.883005382752,1.0,0.0,0.0,0.0,1.0,0.0,0.0,0.0,1.0,0.199019551277,0.0766132995486,0.206205025315,1.21846967915e-07,0.0,0.0,0.0,1.21846967915e-07,0.0,0.0,0.0,1.21846967915e-07,0.3138128,-0.0980665,9.9047165,9e-08,0.0,0.0,0.0,9e-08,0.0,0.0,0.0,9e-08
1539875547011927176,1271,1539875547011657704,base_link,0.0570664746728,0.0734355994228,-0.513214901815,-0.853206361182,1.0,0.0,0.0,0.0,1.0,0.0,0.0,0.0,1.0,-0.148601323366,-0.123913653195,0.294470638037,1.21846967915e-07,0.0,0.0,0.0,1.21846967915e-07,0.0,0.0,0.0,1.21846967915e-07,-0.04903325,0.0392266,8.3748791,9e-08,0.0,0.0,0.0,9e-08,0.0,0.0,0.0,9e-08
1539875547389478504,1272,1539875547389239976,base_link,0.0458690393747,0.0862704215183,-0.56215185142,-0.821242194205,1.0,0.0,0.0,0.0,1.0,0.0,0.0,0.0,1.0,0.253010481596,-0.0721224471927,0.232786104083,1.21846967915e-07,0.0,0.0,0.0,1.21846967915e-07,0.0,0.0,0.0,1.21846967915e-07,0.4903325,0.3530394,10.05181625,9e-08,0.0,0.0,0.0,9e-08,0.0,0.0,0.0,9e-08
1539875547815023432,1273,1539875547814833032,base_link,0.0136850229027,0.0697164635867,-0.600440574371,-0.796507031671,1.0,0.0,0.0,0.0,1.0,0.0,0.0,0.0,1.0,-0.0794432461262,-0.0121152885258,0.124268949032,1.21846967915e-07,0.0,0.0,0.0,1.21846967915e-07,0.0,0.0,0.0,1.21846967915e-07,0.57859235,0.8041453,9.40457735,9e-08,0.0,0.0,0.0,9e-08,0.0,0.0,0.0,9e-08
1539875548105706120,1274,1539875548105346888,base_link,0.034653622938,0.0663165933606,-0.60321437555,-0.794061491946,1.0,0.0,0.0,0.0,1.0,0.0,0.0,0.0,1.0,0.0369974263012,0.25161036849,-0.0699455440044,1.21846967915e-07,0.0,0.0,0.0,1.21846967915e-07,0.0,0.0,0.0,1.21846967915e-07,0.53936575,0.1372931,8.87501825,9e-08,0.0,0.0,0.0,9e-08,0.0,0.0,0.0,9e-08
1539875548402735016,1275,1539875548402528040,base_link,-0.00139962344532,0.00788012027319,-0.59841300022,-0.801147817776,1.0,0.0,0.0,0.0,1.0,0.0,0.0,0.0,1.0,0.766405463219,0.0878789275885,-0.0529167577624,1.21846967915e-07,0.0,0.0,0.0,1.21846967915e-07,0.0,0.0,0.0,1.21846967915e-07,0.32361945,-0.06864655,7.97280645,9e-08,0.0,0.0,0.0,9e-08,0.0,0.0,0.0,9e-08
1539875548897116712,1276,1539875548896916936,base_link,-0.111019552098,-0.0339615065164,-0.604458448481,-0.788131498664,1.0,0.0,0.0,0.0,1.0,0.0,0.0,0.0,1.0,-0.0643980950117,-0.256960391998,0.0712900087237,1.21846967915e-07,0.0,0.0,0.0,1.21846967915e-07,0.0,0.0,0.0,1.21846967915e-07,0.9218251,0.588399,11.0226746,9e-08,0.0,0.0,0.0,9e-08,0.0,0.0,0.0,9e-08
1539875549320244712,1277,1539875549319047720,base_link,-0.0626223778526,-0.0131290233186,-0.598827602021,-0.798317962717,1.0,0.0,0.0,0.0,1.0,0.0,0.0,0.0,1.0,-0.221245095134,0.43750166893,-0.15447384119,1.21846967915e-07,0.0,0.0,0.0,1.21846967915e-07,0.0,0.0,0.0,1.21846967915e-07,0.61781895,0.57859235,9.40457735,9e-08,0.0,0.0,0.0,9e-08,0.0,0.0,0.0,9e-08
1539875549716759240,1278,1539875549716442728,base_link,-0.00115390456567,-0.0557577025605,-0.56926948484,-0.820257277163,1.0,0.0,0.0,0.0,1.0,0.0,0.0,0.0,1.0,-0.0519030503929,0.226794481277,-0.191890642047,1.21846967915e-07,0.0,0.0,0.0,1.21846967915e-07,0.0,0.0,0.0,1.21846967915e-07,0.3530394,0.7649187,8.09048625,9e-08,0.0,0.0,0.0,9e-08,0.0,0.0,0.0,9e-08
1539875550069441480,1279,1539875550069137576,base_link,0.00725557068791,-0.0526542589049,-0.541212941197,-0.839204050273,1.0,0.0,0.0,0.0,1.0,0.0,0.0,0.0,1.0,0.216990187764,-0.155823469162,-0.196755185723,1.21846967915e-07,0.0,0.0,0.0,1.21846967915e-07,0.0,0.0,0.0,1.21846967915e-07,0.6080123,0.34323275,9.58109705,9e-08,0.0,0.0,0.0,9e-08,0.0,0.0,0.0,9e-08
1539875550454224424,1280,1539875550453905928,base_link,-0.042674649914,-0.0794450672432,-0.527580792613,-0.844704600917,1.0,0.0,0.0,0.0,1.0,0.0,0.0,0.0,1.0,0.154384553432,0.127023816109,-0.0254470556974,1.21846967915e-07,0.0,0.0,0.0,1.21846967915e-07,0.0,0.0,0.0,1.21846967915e-07,0.38245935,0.5491724,10.11065615,9e-08,0.0,0.0,0.0,9e-08,0.0,0.0,0.0,9e-08
1539875550710733736,1281,1539875550710446984,base_link,-0.0378358300527,-0.117262453939,-0.523406715058,-0.84312714195,1.0,0.0,0.0,0.0,1.0,0.0,0.0,0.0,1.0,0.0357001945376,0.297568529844,-0.0859831050038,1.21846967915e-07,0.0,0.0,0.0,1.21846967915e-07,0.0,0.0,0.0,1.21846967915e-07,0.51975245,0.2745862,9.58109705,9e-08,0.0,0.0,0.0,9e-08,0.0,0.0,0.0,9e-08
1539875551013294088,1282,1539875551012243176,base_link,-0.0208209472208,-0.0888520630656,-0.519580957772,-0.849533652875,1.0,0.0,0.0,0.0,1.0,0.0,0.0,0.0,1.0,-0.380840033293,-0.402083158493,-0.0511321760714,1.21846967915e-07,0.0,0.0,0.0,1.21846967915e-07,0.0,0.0,0.0,1.21846967915e-07,0.59820565,-0.08825985,11.01286795,9e-08,0.0,0.0,0.0,9e-08,0.0,0.0,0.0,9e-08
1539875551321523592,1283,1539875551321088008,base_link,-0.0324113064744,-0.0412622281995,-0.517552766896,-0.854041023145,1.0,0.0,0.0,0.0,1.0,0.0,0.0,0.0,1.0,0.0666976571083,-0.0374074801803,0.0284479316324,1.21846967915e-07,0.0,0.0,0.0,1.21846967915e-07,0.0,0.0,0.0,1.21846967915e-07,0.67665885,0.2353596,11.71894675,9e-08,0.0,0.0,0.0,9e-08,0.0,0.0,0.0,9e-08
1539875551644980616,1284,1539875551644696744,base_link,-0.0127271563394,-0.0424849591172,-0.53321546954,-0.844816140225,1.0,0.0,0.0,0.0,1.0,0.0,0.0,0.0,1.0,-0.258513212204,0.0576789975166,0.100551016629,1.21846967915e-07,0.0,0.0,0.0,1.21846967915e-07,0.0,0.0,0.0,1.21846967915e-07,0.53936575,0.4707192,10.7480884,9e-08,0.0,0.0,0.0,9e-08,0.0,0.0,0.0,9e-08
